acc_x,acc_y,acc_z,gyro_x,gyro_y,gyro_z,timestamp
0.24925,-0.006,-0.00975,-0.00029,-0.00062550005,-0.00045775,1742093390.371073
0.24875,-0.00775,-0.0095,-0.00013725001,-0.00054925,-0.0003815,1742093390.3848078
0.25,-0.007,-0.009,-0.00019825,-0.000473,-3.0500001e-05,1742093390.3994381
0.2515,-0.004,-0.00925,-0.000183,-0.00019825,0.0001525,1742093390.4139369
0.25275,-0.0005,-0.0115,-7.625e-05,-9.15e-05,-0.0001525,1742093390.4286458
0.2525,-0.0035,-0.0125,0.00010675,-0.000122000005,-0.0005035,1742093390.444034
0.25275,-0.00725,-0.01225,0.0001525,-0.00019825,-0.0004425,1742093390.457929
0.25375,-0.0065,-0.0115,0.00013725001,-0.000183,-0.000229,1742093390.4722931
0.254,-0.00375,-0.0105,0.0001525,-0.00010675,-0.0003205,1742093390.4868412
0.25425,-0.0035,-0.011,0.0,3.0500001e-05,-0.0003815,1742093390.50122
0.25725,-0.006,-0.00975,-0.00016775,4.575e-05,-0.000122000005,1742093390.5157251
0.2585,-0.00675,-0.0085,-0.00024425,0.0001525,9.15e-05,1742093390.530129
0.258,-0.00725,-0.009,0.000183,0.00065625,-0.00045775,1742093390.544571
0.2525,-0.00875,-0.01325,0.000473,0.000824,-0.00074775,1742093390.5590122
0.25125,-0.009,-0.01425,0.0005645,0.00074775,-0.0003205,1742093390.574464
0.25175,-0.00725,-0.01125,0.00042725,0.00067150005,0.00013725001,1742093390.5878022
0.25325,-0.0055,-0.00925,0.00024425,0.00086975005,0.00030525,1742093390.602131
0.2535,-0.0055,-0.007,0.00033575002,0.00119025,1.5250001e-05,1742093390.6165981
0.25075,-0.00725,-0.004,0.00054925,0.001831,-0.00024425,1742093390.631115
0.25375,-0.01,0.02625,0.00067150005,0.0016785001,-0.0001525,1742093390.645532
0.25875,-0.00925,0.0645,0.001114,0.000946,-0.000122000005,1742093390.6598132
0.27625,-0.01175,0.13125,0.0030365,-0.0020752498,0.0007935,1742093390.674349
0.375,-0.051,0.38125,0.00390625,-0.00334175,0.0012055,1742093390.688504
0.42575,-0.07275,0.52525,0.00201425,-0.0026245,0.0040435,1742093390.703968
0.46075,-0.1105,0.72,0.00054925,0.000763,0.00924675,1742093390.717247
0.426,-0.08625,0.73025,0.00029,0.016235251,0.018097,1742093390.731516
0.25675,0.0405,0.528,-0.00016775,0.02433775,0.01519775,1742093390.745909
0.18575,0.0535,0.34025,-0.00024425,0.030731251,0.00570675,1742093390.760248
0.13325,0.01375,0.10325,-0.002884,0.0398255,-0.020202748,1742093390.774694
0.025,-0.0605,-0.3705,9.15e-05,0.040969748,-0.027237,1742093390.7891169
-0.0345,-0.038,-0.52225,0.012741,0.03392025,-0.02648925,1742093390.804229
-0.08875,0.09,-0.6775,0.014495751,0.0265045,-0.024353001,1742093390.818243
-0.074,0.1345,-0.719,0.013153,0.0089569995,-0.02456675,1742093390.833853
0.01425,0.13925,-0.707,0.0106355,0.0012817499,-0.02487175,1742093390.847266
0.0615,0.113,-0.641,0.00585925,-0.01091,-0.017517,1742093390.861662
0.154,0.0285,-0.423,0.00463875,-0.01560975,-0.010009751,1742093390.876307
0.21175,-0.003,-0.28575,0.00408925,-0.018692,-0.00242625,1742093390.890809
0.2725,-0.0295,-0.1525,0.0041810004,-0.01652525,0.006073,1742093390.905439
0.31875,-0.0795,-0.00175,0.003662,-0.01115425,0.007782,1742093390.919942
0.3055,-0.09875,0.01875,0.0037079998,-0.00190725,0.009674,1742093390.934318
0.28975,-0.0805,0.0195,0.0054780003,-0.00112925,0.00862125,1742093390.948859
0.28025,-0.0515,0.00425,0.008788999,-0.00181575,0.001709,1742093390.9642
0.251,-0.0125,-0.0315,0.0084379995,-0.001419,-0.00062550005,1742093390.977814
0.23725,0.00325,-0.04725,0.0056,0.000122000005,-0.000824,1742093390.992329
0.21975,0.0285,-0.076,0.00434875,0.00045775,-0.00067150005,1742093391.006772
0.2145,0.0275,-0.08825,0.003769,0.0001525,-0.00131225,1742093391.02119
0.2145,0.019,-0.09525,0.00396725,-0.0017242499,-0.0042115003,1742093391.035695
0.22275,0.00175,-0.09625,0.004074,-0.00267025,-0.0050202496,1742093391.0502279
0.22725,0.004,-0.095,0.0024414998,-0.004013,-0.00367725,1742093391.070785
0.23625,0.0045,-0.08725,0.0010375,-0.00434875,-0.00239575,1742093391.079277
0.24025,-0.00325,-0.081,6.1000002e-05,-0.004593,-0.00080875,1742093391.094503
0.24425,-0.02625,-0.07225,-3.0500001e-05,-0.0044555003,0.00039675,1742093391.108469
0.24375,-0.03625,-0.067,-0.00099175,-0.0031585,0.004547,1742093391.122976
0.24725,-0.0325,-0.056,-0.00125125,-0.0027160002,0.00587475,1742093391.137571
0.2505,-0.02125,-0.054,-4.575e-05,-0.003128,0.00505075,1742093391.152301
0.24825,-0.002,-0.0545,0.00048825,-0.00367725,0.00396725,1742093391.1668952
0.2455,-0.0,-0.05625,0.00035100002,-0.0043335,0.00283825,1742093391.181422
0.24175,-0.00475,-0.05775,0.00149525,-0.0060882503,0.00112925,1742093391.1958761
0.22675,-0.00575,-0.06625,0.00115975,-0.005783,0.00070200005,1742093391.210442
0.22325,0.00225,-0.07025,-0.00201425,-0.00419625,0.002121,1742093391.225021
0.228,0.00625,-0.05975,-0.00334175,-0.0042725,0.0034637498,1742093391.239421
0.22925,0.00125,-0.055,-0.0050965,-0.004242,0.0049895,1742093391.254396
0.224,-0.00675,-0.054,-0.0054780003,-0.00390625,0.0048217503,1742093391.268468
0.22125,-0.014,-0.0555,-0.0040587503,-0.0036010002,0.0030975002,1742093391.284752
0.21975,-0.01775,-0.05675,-0.0022735,-0.0041504996,0.001648,1742093391.297598
0.223,-0.01125,-0.05075,-0.00061025,-0.00546275,-4.575e-05,1742093391.312248
0.241,-0.00125,-0.023,-0.00184625,-0.008636501,-0.000763,1742093391.326894
0.2535,-0.004,-0.0115,-0.0048217503,-0.008850001,0.001236,1742093391.341472
0.25825,-0.01075,-0.00875,-0.008026,-0.0055237496,0.004486,1742093391.355983
0.24225,-0.02075,-0.026,-0.006836,-0.003891,0.00367725,1742093391.3705862
0.2305,-0.02225,-0.036,-0.00238025,-0.0033722501,0.00074775,1742093391.385289
0.22625,-0.0255,-0.03525,-0.00102225,-0.00440975,0.0004425,1742093391.399982
0.23275,-0.01775,-0.0255,-0.002777,-0.00741575,0.00289925,1742093391.414586
0.2595,0.002,-0.00325,-0.0050812503,-0.008133001,0.004776,1742093391.429124
0.26275,-0.00125,-0.00125,-0.006256,-0.00646975,0.0052947504,1742093391.444318
0.2455,-0.012,-0.01775,-0.005005,-0.0050965,0.00367725,1742093391.4583218
0.23775,-0.0105,-0.02525,-0.002777,-0.003769,0.00108325,1742093391.472998
0.229,-0.00825,-0.02575,-0.00283825,-0.003952,0.00131225,1742093391.4875531
0.2265,-0.0025,-0.02275,-0.00367725,-0.00463875,0.0023497501,1742093391.502124
0.2305,0.00475,-0.01675,-0.00611875,-0.00668325,0.00416575,1742093391.5165582
0.25,-0.003,-0.00075,-0.006302,-0.0071409997,0.00419625,1742093391.531179
0.255,-0.00875,0.00225,-0.0045625,-0.0060425,0.0025787498,1742093391.5455759
0.2575,-0.006,0.001,-0.0036162501,-0.0051880004,0.0012817499,1742093391.560008
0.2565,-0.00575,-0.00075,-0.002655,-0.00354,-0.0003205,1742093391.575257
0.2475,-0.0195,-0.007,-0.0027465,-0.00289925,0.00074775,1742093391.589243
0.243,-0.026,-0.00775,-0.00352475,-0.00169375,0.005539,1742093391.6044009
0.238,-0.002,-0.005,-0.00355525,-0.00175475,0.0067445002,1742093391.618355
0.244,0.01425,0.00175,-0.00331125,-0.002411,0.006363,1742093391.63401
0.261,0.01525,0.019,-0.001953,-0.0038605002,0.0020599999,1742093391.647446
0.26325,0.00725,0.026,-0.001236,-0.0040435,-0.00039675,1742093391.661916
0.26375,-0.0025,0.03225,-0.002121,-0.00263975,-0.0007325,1742093391.6764429
0.262,-0.0135,0.055,-0.00276175,-0.0005645,0.00059500005,1742093391.6908789
0.2495,-0.004,0.06875,-0.002365,0.00279225,0.00146475,1742093391.705368
0.24475,0.0075,0.14175,-0.00201425,0.00279225,0.0018005001,1742093391.719747
0.25825,0.00475,0.20975,-0.00071725,0.0012055,0.002655,1742093391.73413
0.33725,-0.04725,0.453,-0.00045775,-0.00048825,0.00292975,1742093391.7484329
0.40775,-0.084,0.6195,-0.000473,-0.00181575,0.00238025,1742093391.764448
0.47625,-0.1085,0.7595,0.0041504996,0.0055695,-0.0033570002,1742093391.777347
0.448,-0.1155,0.807,0.00708,0.014663749,-0.0048217503,1742093391.791706
0.34575,-0.07575,0.71375,0.006256,0.033798248,0.00045775,1742093391.8059149
0.16475,-0.0175,0.3375,0.00494375,0.03958125,0.00177,1742093391.8203158
0.12025,-0.0505,0.1045,0.006073,0.03955075,-0.011078,1742093391.834692
0.0815,-0.07275,-0.34625,0.0070952503,0.03521725,-0.019348249,1742093391.8491058
0.0575,0.0085,-0.4595,0.0152435,0.02595525,-0.02023325,1742093391.864606
0.05225,0.143,-0.55575,0.0148315,0.02241525,-0.01985175,1742093391.878131
0.0575,0.142,-0.61625,0.013916001,0.01918025,-0.0220185,1742093391.892512
0.0645,0.118,-0.655,0.010391249,0.011139,-0.017929,1742093391.907007
0.09725,0.07025,-0.57175,0.00912475,0.0066374997,-0.0128175,1742093391.9214249
0.10875,0.069,-0.4835,0.008865249,-0.00077825,-0.00416575,1742093391.935882
0.152,0.07175,-0.31325,0.00767525,-0.003662,0.0005035,1742093391.9503272
0.18575,0.0575,-0.23625,0.0055237496,-0.007553,0.0052337497,1742093391.96481
0.25975,0.00325,-0.09775,0.00546275,-0.00785825,0.0039215,1742093391.979294
0.26925,-0.02125,-0.05775,0.00514225,-0.0065612504,0.0022735,1742093391.994633
0.24375,-0.03225,-0.03275,0.00193775,-0.00198375,0.00460825,1742093392.00815
0.23075,-0.028,-0.03625,0.000763,-0.00048825,0.0067597497,1742093392.022631
0.22,-0.0225,-0.0465,0.00251775,-0.00093075,0.0055695,1742093392.037229
0.20975,-0.00475,-0.07275,0.00354,-0.00242625,0.0029449998,1742093392.05169
0.215,0.008,-0.07775,0.0029907501,-0.00555425,0.0002595,1742093392.06601
0.23875,0.03125,-0.07475,0.00193775,-0.00621025,-0.00013725001,1742093392.080511
0.24725,0.033,-0.07725,-0.00010675,-0.0054015,-0.00108325,1742093392.095126
0.259,0.005,-0.082,-0.0005035,-0.00505075,-0.00163275,1742093392.1098151
0.264,-0.012,-0.08075,0.00051875,-0.0054932497,-0.0028535,1742093392.125438
0.2555,-0.013,-0.07925,0.0008545,-0.0055085,-0.0026854998,1742093392.138942
0.2455,-0.002,-0.079,4.575e-05,-0.0053709997,-0.001419,1742093392.154488
0.2405,0.004,-0.07575,-0.003128,-0.00514225,0.00270075,1742093392.167985
0.241,0.00075,-0.065,-0.00372325,-0.0048674997,0.0034637498,1742093392.182486
0.244,-0.0025,-0.06275,-0.00305175,-0.0039825,0.00263975,1742093392.196975
0.244,-0.00675,-0.0655,-0.00216675,-0.0038299998,0.00193775,1742093392.211465
0.24275,-0.00625,-0.0665,0.00010675,-0.0045165,-0.00039675,1742093392.225963
0.2355,0.011,-0.06875,0.00030525,-0.0053405,-0.00115975,1742093392.2404082
0.235,0.01675,-0.067,-0.00231925,-0.0064850003,0.00033575002,1742093392.2548459
0.25,0.00525,-0.0505,-0.0036315,-0.00614925,0.00143425,1742093392.2693372
0.25125,-0.00025,-0.04925,-0.00428775,-0.0049895,0.00201425,1742093392.2845151
0.24525,-0.0045,-0.055,-0.0038299998,-0.0022125002,0.0017852499,1742093392.29846
0.2305,-0.012,-0.0675,-0.0028229998,-0.002121,0.0010375,1742093392.314531
0.22825,-0.014,-0.06575,-0.0017395001,-0.0043182503,9.15e-05,1742093392.3274791
0.22975,-0.0135,-0.05425,-0.0025634998,-0.0054475004,0.00067150005,1742093392.3420658
0.2325,-0.01075,-0.05075,-0.00543225,-0.006546,0.003418,1742093392.356561
0.2385,-0.006,-0.04375,-0.0057220003,-0.00668325,0.00419625,1742093392.3711958
0.236,-0.006,-0.04225,-0.00390625,-0.0061339997,0.00251775,1742093392.3857322
0.23625,-0.0085,-0.03575,-0.0028687501,-0.0061645,0.000824,1742093392.40031
0.243,-0.008,-0.0275,-0.0016175,-0.00767525,-0.0012817499,1742093392.415097
0.258,-0.0005,-0.01475,-0.0023039998,-0.008377,-0.00045775,1742093392.429824
0.262,0.0015,-0.01475,-0.0043944996,-0.0077667497,0.00163275,1742093392.444472
0.25575,0.003,-0.02025,-0.0091095,-0.0029755002,0.0047150003,1742093392.458888
0.23675,0.003,-0.0325,-0.009597749,-0.0013580001,0.004242,1742093392.47514
0.234,0.002,-0.03325,-0.007843,-0.001587,0.00057975,1742093392.487891
0.2335,-0.0105,-0.027,-0.0071409997,-0.0027160002,-0.001007,1742093392.502547
0.23575,-0.02125,-0.0215,-0.00717175,-0.0047912505,-0.00074775,1742093392.517266
0.2475,-0.02475,-0.014,-0.0072480002,-0.005005,0.00059500005,1742093392.531978
0.2485,-0.0125,-0.01625,-0.00823975,-0.00328075,0.0037079998,1742093392.546602
0.24,0.00575,-0.025,-0.008667,-0.00225825,0.0040587503,1742093392.561158
0.23225,0.00275,-0.02925,-0.00712575,-0.0017852499,0.00048825,1742093392.57559
0.22125,-0.0155,-0.0265,-0.0060272496,-0.00263975,-0.0014495,1742093392.5902588
0.2235,-0.0245,-0.0215,-0.00561525,-0.0042267498,-0.001831,1742093392.6051042
0.2475,-0.0355,0.00275,-0.006302,-0.007553,0.0017852499,1742093392.619549
0.258,-0.03125,0.0065,-0.0065155,-0.007904,0.00367725,1742093392.634559
0.2615,-0.0205,0.0035,-0.0054015,-0.0050355,0.0043639997,1742093392.648674
0.25475,-0.00125,-0.00925,-0.00381475,-0.003296,0.0032195,1742093392.664602
0.24725,0.001,-0.014,-0.00157175,-0.002243,0.00067150005,1742093392.677724
0.23975,-0.00825,-0.017,-0.0025634998,-0.002884,0.001068,1742093392.69232
0.23975,-0.01475,-0.017,-0.0061645,-0.00354,0.0055085,1742093392.706964
0.24,-0.01425,-0.0155,-0.0070952503,-0.00331125,0.0073242504,1742093392.721618
0.2435,-0.0105,-0.01425,-0.0051574996,-0.00267025,0.0063477503,1742093392.7361479
0.24975,0.00125,-0.01075,-0.0029755002,-0.0025025,0.0037385002,1742093392.750592
0.2475,0.0055,-0.0085,-0.0013580001,-0.00263975,0.000946,1742093392.765116
0.2455,0.0045,-0.0065,-0.00251775,-0.00396725,-0.00019825,1742093392.779683
0.2485,0.001,0.00125,-0.0046539996,-0.0043182503,0.0022277501,1742093392.794561
0.24875,0.0035,0.01,-0.0072480002,-0.00292975,0.0069580004,1742093392.808628
0.24875,0.007,0.037,-0.00646975,-0.0019685,0.00637825,1742093392.823005
0.24975,0.007,0.05875,-0.0023345,-0.0009765,0.001068,1742093392.8372731
0.2475,0.006,0.105,-0.0012055,-0.000885,-0.00068675,1742093392.8518772
0.24425,0.00525,0.138,-0.0025025,-0.001236,0.00074775,1742093392.8662999
0.249,-0.00875,0.26425,-0.00343325,-0.001953,0.00251775,1742093392.88088
0.2735,-0.0265,0.377,-0.0039825,-0.003296,0.003891,1742093392.895406
0.3265,-0.055,0.523,-0.0053709997,-0.00463875,0.0017242499,1742093392.90989
0.46425,-0.12975,0.74375,-0.00567625,-0.00077825,-0.00328075,1742093392.925813
0.4565,-0.159,0.74725,-0.0019685,0.018219,-0.0057372497,1742093392.939005
0.3005,-0.08725,0.61225,-0.0028074998,0.0280915,0.00074775,1742093392.954405
0.243,-0.025,0.48475,-0.0054015,0.037704498,0.0036315,1742093392.967785
0.173,-0.04425,0.08625,-0.001526,0.03756725,-0.00668325,1742093392.982272
0.1345,-0.092,-0.11475,0.0034484998,0.033157248,-0.027237,1742093392.997004
0.04175,-0.05675,-0.41725,0.0037385002,0.03059375,-0.0264435,1742093393.011586
0.0305,0.005,-0.47575,0.0080415,0.026596,-0.021988,1742093393.0260081
0.0655,0.09975,-0.594,0.014053251,0.01586925,-0.022064252,1742093393.040289
0.07825,0.1065,-0.63875,0.01289375,0.012039251,-0.02253725,1742093393.05478
0.081,0.09025,-0.643,0.009216251,0.0069885002,-0.01634225,1742093393.069207
0.083,0.0665,-0.5535,0.008316,0.0045777503,-0.01033025,1742093393.084784
0.106,0.0765,-0.479,0.0050965,-0.00146475,0.0045165,1742093393.097972
0.16,0.09875,-0.32,0.0037079998,-0.0057372497,0.00811775,1742093393.112395
0.18925,0.0755,-0.2255,0.0030975002,-0.013336251,0.00741575,1742093393.126805
0.273,-0.00075,-0.019,0.00352475,-0.014389,0.0062407497,1742093393.141224
0.3095,-0.023,0.05275,0.003952,-0.0137635,0.00494375,1742093393.155603
0.3265,-0.034,0.0795,0.0030669998,-0.008133001,0.0022735,1742093393.169987
0.29775,-0.02975,0.04675,0.001892,-0.00411975,0.0032347501,1742093393.1848278
0.26925,-0.017,0.014,0.0013275,-0.00099175,0.002365,1742093393.19889
0.21775,0.006,-0.0505,0.0024872501,-0.00231925,-0.000122000005,1742093393.2141929
0.204,0.012,-0.07225,0.0029755002,-0.00402825,-0.00242625,1742093393.227854
0.20975,0.02725,-0.08075,0.00184625,-0.004242,-0.0017852499,1742093393.2422569
0.21925,0.029,-0.0805,0.00024425,-0.00555425,-0.00030525,1742093393.2569332
0.23725,0.01275,-0.07875,0.00019825,-0.0059205,-3.0500001e-05,1742093393.271416
0.24475,0.001,-0.07825,0.0003205,-0.00590525,0.00016775,1742093393.2858088
0.25075,-0.0085,-0.07625,0.00083925005,-0.0054780003,0.000763,1742093393.300263
0.25225,-0.01625,-0.0695,0.00105275,-0.00555425,0.0012817499,1742093393.3149
0.25025,-0.015,-0.06575,0.00029,-0.00567625,0.00390625,1742093393.329376
0.25075,-0.00325,-0.0555,-0.00068675,-0.0052795,0.0054475004,1742093393.344482
0.2535,0.00525,-0.04925,-0.002777,-0.003952,0.00587475,1742093393.358581
0.25275,0.0165,-0.0455,-0.0031127501,-0.00355525,0.0049895,1742093393.373112
0.24875,0.01675,-0.0455,-0.0034637498,-0.00343325,0.0030975002,1742093393.387569
0.238,0.0095,-0.0465,-0.00325,-0.0037537501,0.002121,1742093393.402137
0.23625,0.00725,-0.04425,-0.0028687501,-0.00434875,0.00143425,1742093393.416617
0.2415,0.003,-0.03675,-0.0027465,-0.0059967497,0.0013427499,1742093393.431106
0.25975,-0.0095,-0.016,-0.00296025,-0.0061339997,0.00177,1742093393.445677
0.26825,-0.0075,-0.0095,-0.00411975,-0.0042572496,0.0027312501,1742093393.460191
0.2655,0.01025,-0.01425,-0.0046845004,-0.0025940002,0.002884,1742093393.474699
0.25475,0.01175,-0.023,-0.00463875,-0.0003815,0.00143425,1742093393.489074
0.2365,0.004,-0.03425,-0.0048065,-0.00045775,0.00093075,1742093393.5042381
0.238,-0.00475,-0.03,-0.00590525,-0.0014495,0.002365,1742093393.518166
0.24725,-0.01825,-0.01975,-0.0053252503,-0.0018615,0.002365,1742093393.532681
0.25075,-0.01875,-0.01625,-0.0037995,-0.00213625,0.00131225,1742093393.547266
0.249,0.00525,-0.0195,-0.0014037499,-0.002533,-0.00163275,1742093393.56187
0.251,0.01125,-0.019,-0.00228875,-0.00314325,-0.0022735,1742093393.576458
0.253,0.00475,-0.01825,-0.00590525,-0.00343325,-0.000824,1742093393.590924
0.24275,-0.0215,-0.02625,-0.00720225,-0.00254825,0.0013275,1742093393.605487
0.238,-0.0285,-0.031,-0.006607,-0.00115975,0.0051574996,1742093393.6202052
0.2435,-0.01875,-0.02875,-0.00428775,-0.0018005001,0.00437925,1742093393.634807
0.24725,-0.00475,-0.024,7.625e-05,-0.0051574996,-0.0018005001,1742093393.649345
0.25725,0.00775,-0.009,0.00013725001,-0.00688175,-0.0045625,1742093393.664542
0.2615,-0.008,-0.002,-0.002655,-0.0070037497,-0.0035095,1742093393.678553
0.264,-0.0335,-0.0005,-0.00416575,-0.004547,7.625e-05,1742093393.69445
0.25525,-0.027,-0.011,-0.00413525,0.001648,0.0048065,1742093393.707843
0.237,-0.017,-0.033,-0.0021515,0.002777,0.00434875,1742093393.722633
0.2355,-0.0215,-0.0315,0.0008545,0.00201425,0.002533,1742093393.736968
0.23275,-0.02175,-0.02425,0.003296,-0.00238025,-0.0007325,1742093393.751471
0.238,-0.00825,-0.012,0.00045775,-0.0044250004,0.00029,1742093393.765863
0.25025,-0.0125,-0.005,-0.005066,-0.004013,0.0060272496,1742093393.780488
0.24925,-0.0095,-0.0085,-0.00491325,-0.00169375,0.0070342496,1742093393.795097
0.24075,-0.0025,-0.01675,-0.000763,0.00105275,0.0045012496,1742093393.809607
0.24075,-0.0035,-0.01825,0.0013275,0.00036625,0.0023497501,1742093393.825399
0.24275,-0.00375,-0.0155,0.0013580001,-0.00320425,-4.575e-05,1742093393.838466
0.24775,0.00075,-0.006,-0.00045775,-0.00453175,0.00070200005,1742093393.854335
0.2525,-0.00775,-0.0035,-0.0024414998,-0.0046845004,0.00254825,1742093393.867352
0.25425,-0.01525,-0.00475,-0.00334175,-0.0021972498,0.00543225,1742093393.881933
0.25525,-0.001,-0.0095,-0.00216675,-0.0010375,0.005066,1742093393.8964689
0.2565,0.011,-0.01025,0.0018615,-0.00065625,0.00090025004,1742093393.910913
0.247,0.00975,-0.00975,0.00328075,-0.00115975,-0.00148,1742093393.925338
0.24125,-0.0065,-0.0055,0.0028535,-0.002472,-0.00175475,1742093393.939934
0.236,-0.0215,0.007,0.00169375,-0.0026092501,0.00054925,1742093393.9543831
0.24025,-0.0165,0.0165,7.625e-05,-0.00149525,0.00538625,1742093393.968661
0.24475,0.0025,0.04175,0.00061025,-0.00083925005,0.0054475004,1742093393.984256
0.24375,0.0045,0.058,0.0016175,-0.00071725,0.0039825,1742093393.9972951
0.24225,0.002,0.08225,0.0040435,-0.0021819999,0.00042725,1742093394.011601
0.2385,0.011,0.17175,0.004013,-0.00320425,-1.5250001e-05,1742093394.025941
0.24575,0.0065,0.24325,0.00096125,-0.0044250004,0.00190725,1742093394.0402691
0.27175,-0.04,0.44325,0.0007935,-0.0040587503,0.0018005001,1742093394.054881
0.3035,-0.07525,0.53875,-0.000122000005,-0.00071725,0.0024872501,1742093394.069391
0.35875,-0.14325,0.64925,-9.15e-05,0.0036315,0.0064545004,1742093394.084539
0.327,-0.11975,0.663,0.0012207499,0.01036075,0.01013175,1742093394.098123
0.2665,-0.078,0.62975,0.004013,0.022766002,0.00646975,1742093394.114238
0.16725,-0.06625,0.38325,0.004776,0.0263825,0.00175475,1742093394.1271749
0.155,-0.0785,0.18475,-0.00096125,0.031784,-0.00396725,1742093394.141566
0.137,-0.00525,-0.31375,-0.0056304997,0.03279125,-0.008072,1742093394.156258
0.1225,0.09,-0.48275,0.0023345,0.0218505,-0.019516,1742093394.170638
0.1575,0.1715,-0.54375,0.004486,0.0128785,-0.02595525,1742093394.184994
0.19025,0.114,-0.53425,0.00437925,0.00328075,-0.033905,1742093394.199372
0.1925,-0.00725,-0.5605,0.00367725,0.00411975,-0.029663,1742093394.214484
0.1805,-0.0085,-0.5485,0.00263975,0.0058135,-0.019455,1742093394.228392
0.1755,0.0245,-0.50525,0.0031889998,0.0053252503,-0.00070200005,1742093394.2446048
0.16875,0.08425,-0.3735,0.0041810004,0.0029907501,0.0028229998,1742093394.257313
0.171,0.07325,-0.3045,0.0043944996,-0.00408925,0.0039825,1742093394.271637
0.19375,0.01825,-0.156,0.0043944996,-0.00715625,0.00364675,1742093394.286231
0.20825,0.003,-0.0865,0.00352475,-0.008545,0.0028229998,1742093394.30069
0.2205,-0.01875,-0.007,0.0025634998,-0.0075072497,0.00408925,1742093394.315109
0.22925,-0.02875,0.008,0.00216675,-0.0066985004,0.0060577504,1742093394.329466
0.2545,-0.037,0.01375,0.00343325,-0.0075225,0.00283825,1742093394.344574
0.25275,-0.026,-0.00275,0.00546275,-0.008667,-0.0012665,1742093394.3585868
0.24625,-0.01325,-0.02125,0.0075072497,-0.009262,-0.0065765,1742093394.374751
0.24275,0.00825,-0.0445,0.00671375,-0.008727999,-0.0072175004,1742093394.3875442
0.24575,0.01125,-0.04975,0.003418,-0.00697325,-0.0050355,1742093394.40213
0.24225,0.01475,-0.06625,0.0021515,-0.00593575,-0.0028229998,1742093394.416553
0.244,0.015,-0.06975,0.00181575,-0.0055847503,0.000824,1742093394.430985
0.2565,0.015,-0.05725,0.00231925,-0.0062407497,0.0009155,1742093394.4453068
0.261,0.01475,-0.0465,0.0027465,-0.0084379995,-0.0019225,1742093394.459777
0.26475,0.00625,-0.02875,0.00228875,-0.009491,-0.0029145,1742093394.4757462
0.26625,-0.004,-0.02225,0.00148,-0.009887749,-0.00239575,1742093394.4889789
0.26725,-0.0145,-0.01675,-0.00119025,-0.00738525,0.0027465,1742093394.504294
0.26475,-0.01725,-0.01175,-0.0028687501,-0.0045165,0.0047150003,1742093394.518233
0.259,-0.01275,-0.0155,-0.00270075,-0.001648,0.0025940002,1742093394.534325
0.24975,-0.001,-0.0235,-0.0016175,-0.0024414998,0.00039675,1742093394.547492
0.25125,-0.001,-0.022,-0.00109875,-0.0043944996,-0.001419,1742093394.562125
0.25125,-0.0125,-0.0185,-0.001419,-0.00453175,-0.00105275,1742093394.576768
0.249,-0.015,-0.0195,-0.00242625,-0.0033722501,0.0013427499,1742093394.5913742
0.25325,-0.00725,-0.01225,-0.00276175,-0.0025025,0.002243,1742093394.6060019
0.25725,-0.00475,-0.006,-0.0013885,-0.00086975005,-0.00051875,1742093394.6206431
0.25125,-0.013,-0.00675,-0.000412,-0.0003815,-0.0027465,1742093394.635247
0.2445,-0.0205,-0.00975,-0.00016775,-0.00027475,-0.00378425,1742093394.649931
0.2415,-0.021,-0.014,-0.0021972498,-0.0008545,-0.00070200005,1742093394.66457
0.244,-0.0135,-0.01475,-0.0037079998,-0.000824,0.0022735,1742093394.679326
0.247,-0.0055,-0.0145,-0.0046539996,0.000122000005,0.00505075,1742093394.694407
0.25125,0.0025,-0.0145,-0.0037995,-1.5250001e-05,0.0036010002,1742093394.708432
0.25525,-0.002,-0.0105,-0.00254825,-0.00090025004,0.00065625,1742093394.724441
0.2565,-0.012,-0.006,-0.0027465,-0.00051875,0.000763,1742093394.737879
0.252,-0.0155,-0.00825,-0.003952,0.00163275,0.00334175,1742093394.752409
0.24,-0.0135,-0.01275,-0.0042267498,0.002472,0.00453175,1742093394.766894
0.2405,-0.009,-0.01275,-0.00367725,0.001709,0.003769,1742093394.781462
0.24275,-0.0085,-0.01825,-0.00292975,0.00080875,0.001953,1742093394.7960021
0.24225,-0.009,-0.021,-0.00187675,-0.00036625,-0.001236,1742093394.8106182
0.24825,-0.019,-0.00975,-0.001953,-0.0007935,-0.0014037499,1742093394.825282
0.2545,-0.03075,-0.0015,-0.002533,-0.000946,-0.00024425,1742093394.839971
0.26025,-0.04025,0.0025,-0.003006,0.00119025,0.0037385002,1742093394.854378
0.24975,-0.0275,-0.0095,-0.0017852499,0.00305175,0.0047607496,1742093394.868778
0.23625,-0.011,-0.01775,-0.00067150005,0.00453175,0.0046234997,1742093394.8844538
0.23025,-0.006,-0.02025,-0.00125125,0.0036162501,0.0044707498,1742093394.897752
0.23425,-0.01325,-0.0185,-0.00074775,0.00108325,0.00419625,1742093394.912271
0.24075,-0.012,-0.019,-0.000473,0.000412,0.0045165,1742093394.926817
0.24025,-0.0035,-0.0215,-0.000473,0.00068675,0.0054932497,1742093394.941282
0.23775,0.0095,-0.02225,-0.0001525,0.00083925005,0.0050202496,1742093394.955659
0.2375,0.00625,-0.0175,0.00065625,0.00062550005,0.0037995,1742093394.969922
0.23975,-0.0025,-0.0115,0.00302125,6.1000002e-05,0.00062550005,1742093394.984728
0.24075,-0.02025,-0.0095,0.0037995,0.00016775,0.0,1742093394.998954
0.239,-0.0225,-0.01025,0.0041044997,0.00090025004,0.0026092501,1742093395.014445
0.24575,-0.01175,-0.00725,0.003891,0.00108325,0.0047302498,1742093395.027783
0.249,-0.003,-0.0085,0.00355525,0.00154125,0.0070037497,1742093395.0421178
0.241,0.0115,-0.01475,0.00352475,0.001831,0.0066985004,1742093395.056371
0.2365,0.01475,-0.0125,0.0037537501,0.0018005001,0.0056609996,1742093395.0706692
0.23575,0.0195,0.011,0.0049895,0.00054925,0.0029145,1742093395.0848992
0.2365,0.02675,0.032,0.0052337497,-0.00039675,0.00231925,1742093395.099136
0.24225,0.0355,0.058,0.003662,-0.0020295,0.00184625,1742093395.114465
0.26875,0.03475,0.13225,0.00190725,-0.00228875,0.001114,1742093395.1277812
0.27825,0.022,0.1835,-0.00057975,-0.00119025,-0.000824,1742093395.1421921
0.3125,-0.0215,0.32475,-0.000824,-0.00068675,-0.00148,1742093395.1568372
0.35325,-0.0525,0.417,-0.0015565,0.0019989999,-0.00048825,1742093395.171405
0.44975,-0.103,0.551,-0.00381475,0.005539,0.00169375,1742093395.185759
0.445,-0.10925,0.5695,-0.0055695,0.010314999,0.0054475004,1742093395.20028
0.39775,-0.108,0.56425,-0.00466925,0.01722725,0.013046251,1742093395.2146938
0.318,-0.06325,0.487,-0.0036010002,0.01849375,0.013214,1742093395.229085
0.29625,-0.0385,0.36675,0.00070200005,0.02275075,0.0010375,1742093395.244332
0.21375,-0.02,-0.033,-0.0019685,0.026428249,-0.007019,1742093395.257962
0.15025,0.0395,-0.23925,-0.0067445002,0.027832001,-0.01380925,1742093395.272367
0.12725,0.13,-0.41825,-0.0045777503,0.02351375,-0.01643375,1742093395.286835
0.12625,0.09775,-0.448,-0.003662,0.019226,-0.02171325,1742093395.3013718
0.0535,-0.06325,-0.5165,-0.00080875,0.017273001,-0.02967825,1742093395.315975
0.00825,-0.07575,-0.5395,0.00108325,0.017395,-0.0229035,1742093395.3307168
-0.0135,-0.02225,-0.537,0.00059500005,0.012542751,0.0012207499,1742093395.3452868
-0.002,0.076,-0.467,0.00119025,0.0077515002,0.006012,1742093395.359665
0.02175,0.077,-0.4235,0.00367725,-0.00396725,0.002243,1742093395.374783
0.09675,0.0405,-0.29975,0.0044555003,-0.009674,0.00099175,1742093395.388693
0.15275,0.03175,-0.2075,0.00460825,-0.017334,0.000183,1742093395.403018
0.258,0.03175,-0.0515,0.00434875,-0.01678475,-0.00016775,1742093395.417574
0.278,0.01975,-0.022,0.0025787498,-0.00935375,0.00177,1742093395.431842
0.276,-0.011,-0.02325,0.00177,-0.0060425,0.00320425,1742093395.446336
0.274,-0.0145,-0.02925,0.00175475,-0.0045165,0.0033264998,1742093395.460757
0.27575,-0.009,-0.03425,0.0039825,-0.0054780003,-7.625e-05,1742093395.475275
0.2725,-0.007,-0.0455,0.0046845004,-0.00611875,-0.0019225,1742093395.489855
0.265,-0.00825,-0.05525,0.0040435,-0.0053405,-0.003128,1742093395.5045629
0.2545,-0.003,-0.067,0.0038605002,-0.0052185003,-0.0036162501,1742093395.519105
0.2525,-0.00025,-0.06875,0.0037995,-0.0052642496,-0.00399775,1742093395.534676
0.243,0.00425,-0.07725,0.0035704998,-0.00453175,-0.00292975,1742093395.548079
0.23825,0.009,-0.08225,0.0025787498,-0.0032347501,0.00027475,1742093395.562477
0.2305,0.01675,-0.09,0.0022277501,-0.0034484998,0.0012207499,1742093395.576854
0.232,0.01425,-0.088,0.0022735,-0.00428775,0.00131225,1742093395.591269
0.2375,0.0075,-0.08075,0.003418,-0.00691225,-0.00024425,1742093395.6057842
0.24275,-0.002,-0.063,0.0035704998,-0.0079345,-0.00054925,1742093395.6202428
0.24475,-0.00125,-0.05475,0.00251775,-0.00842275,0.00024425,1742093395.63477
0.24825,0.0015,-0.0445,0.00193775,-0.008209251,0.00042725,1742093395.649046
0.24675,0.0035,-0.044,-0.00030525,-0.0061950004,0.0013580001,1742093395.66429
0.239,0.01825,-0.04975,-0.0013275,-0.005249,0.00216675,1742093395.678011
0.237,0.0235,-0.04975,-0.001831,-0.0055237496,0.0012817499,1742093395.693821
0.23675,0.014,-0.043,-0.00169375,-0.0062407497,-1.5250001e-05,1742093395.7072
0.2395,0.00275,-0.03625,-0.0019225,-0.0067902496,-0.0004425,1742093395.721596
0.2425,-0.00675,-0.0305,-0.0031585,-0.0068969997,0.00187675,1742093395.736154
0.24275,-0.005,-0.0275,-0.0036315,-0.00643925,0.00354,1742093395.750635
0.24075,0.003,-0.02725,-0.003006,-0.0054015,0.00469975,1742093395.765065
0.23975,0.018,-0.02075,-0.0021515,-0.0053252503,0.0035095,1742093395.779576
0.242,0.023,-0.01725,-0.00204475,-0.00567625,-7.625e-05,1742093395.794282
0.24575,0.01525,-0.01225,-0.00302125,-0.00570675,-0.0013275,1742093395.8086169
0.2465,0.00075,-0.01,-0.00444025,-0.0057525,-0.00228875,1742093395.823113
0.24575,-0.01875,-0.0125,-0.0044707498,-0.00564575,-0.00175475,1742093395.837781
0.247,-0.01675,-0.01425,-0.0043639997,-0.0052642496,-0.00062550005,1742093395.852349
0.25,-0.00875,-0.013,-0.0037995,-0.00440975,0.00071725,1742093395.866837
0.25375,0.00525,-0.00975,-0.0033722501,-0.0043335,0.0002595,1742093395.8814862
0.2545,0.00875,-0.00775,-0.00384525,-0.004593,-0.00093075,1742093395.8960052
0.25675,0.0025,-0.00375,-0.0045625,-0.0047912505,-0.0009765,1742093395.910615
0.25325,-0.004,-0.007,-0.0052185003,-0.00393675,-0.000229,1742093395.9252229
0.2415,-0.008,-0.01975,-0.0053252503,-0.0036010002,0.00065625,1742093395.939847
0.24175,-0.00725,-0.02075,-0.0051269997,-0.0034484998,0.0033722501,1742093395.954454
0.25375,-0.0025,-0.011,-0.00408925,-0.0036162501,0.003769,1742093395.969166
0.25875,0.002,-0.0025,-0.00187675,-0.003769,0.00051875,1742093395.984069
0.25575,0.008,0.00225,-0.00216675,-0.0033875,-0.001114,1742093395.998083
0.2475,0.00275,-0.00325,-0.00340275,-0.00254825,-0.0009155,1742093396.012598
0.237,-0.0065,-0.0125,-0.00715625,-6.1000002e-05,0.0053405,1742093396.027265
0.2175,-0.01425,-0.03125,-0.0077972496,0.0005645,0.00839225,1742093396.041881
0.216,-0.01075,-0.0335,-0.0044250004,-0.0020599999,0.007965,1742093396.056462
0.23625,-0.00075,-0.01025,-0.001526,-0.00453175,0.0047455,1742093396.070972
0.24625,0.006,0.00375,0.001953,-0.0075682504,-0.0029449998,1742093396.085365
0.24825,0.005,0.01125,0.001526,-0.007187,-0.0042267498,1742093396.099761
0.24875,-0.00625,0.01175,-0.0012665,-0.003769,0.0004425,1742093396.114152
0.24875,-0.0265,0.00825,-0.00181575,-0.00216675,0.0036315,1742093396.12866
0.246,-0.0295,0.004,-0.00148,-0.0014037499,0.0059205,1742093396.1441212
0.2445,-0.02675,-0.0005,0.00108325,-0.00154125,0.00672925,1742093396.157575
0.24075,0.00025,-0.008,0.0027312501,-0.00184625,0.00567625,1742093396.171863
0.23775,0.01725,-0.00675,0.003891,-0.002411,0.00343325,1742093396.186238
0.2385,0.02825,0.00725,0.0031127501,-0.00270075,0.002884,1742093396.200534
0.24175,0.0195,0.0165,0.0013885,-0.00317375,0.0027160002,1742093396.2149491
0.25175,0.00125,0.0385,0.0013580001,-0.0031889998,0.0029145,1742093396.2293792
0.254,0.00275,0.052,0.00369275,-0.0021972498,0.0026854998,1742093396.244597
0.24075,0.02275,0.10325,0.0054015,-0.00187675,0.00177,1742093396.25789
0.23325,0.031,0.15925,0.0065917503,-0.002533,0.00102225,1742093396.2722912
0.238,0.02975,0.24675,0.004303,-0.00744625,0.002121,1742093396.286616
0.3285,-0.0555,0.54075,0.0004425,-0.0091705,0.0044250004,1742093396.300991
0.42275,-0.13575,0.71725,-0.00517275,0.00030525,0.01036075,1742093396.3154402
0.52925,-0.22025,0.8685,-0.00334175,0.010513251,0.013031,1742093396.32989
0.445,-0.17325,0.8445,0.00384525,0.027847249,0.0187225,1742093396.3447082
0.25625,0.02,0.746,0.0031127501,0.033035252,0.0199585,1742093396.3584929
0.18525,0.09525,0.583,0.00245675,0.03822325,0.01501475,1742093396.372745
0.09875,0.1295,0.295,-0.00070200005,0.046752997,-0.0093995,1742093396.3872378
0.0335,0.056,-0.40825,-0.00720225,0.04550175,-0.02056875,1742093396.401763
0.05175,0.02525,-0.6385,0.00520325,0.0280305,-0.038757253,1742093396.4162529
0.02,0.14975,-0.73925,0.0061950004,0.01852425,-0.037658747,1742093396.430631
0.04225,0.20725,-0.69775,-0.004547,0.00930775,-0.02537525,1742093396.445077
0.07625,0.11375,-0.67175,-0.00614925,0.00883475,-0.024047751,1742093396.459508
0.06025,0.01375,-0.6625,-0.0051269997,0.0087585,-0.020111,1742093396.475416
0.06525,-0.03775,-0.51325,-0.00064075,0.002243,0.00061025,1742093396.488587
0.0985,-0.007,-0.384,0.002884,-0.0042115003,0.008545,1742093396.504572
0.14875,0.018,-0.2475,0.00767525,-0.0138245,0.010940501,1742093396.517547
0.2455,0.013,-0.0495,0.0078125,-0.0134735005,0.009323,1742093396.532168
0.26425,-0.00975,-0.0065,0.0061035,-0.00587475,0.00708,1742093396.546656
0.2755,-0.04675,0.01975,0.00567625,-0.0033264998,0.007019,1742093396.5609658
0.2815,-0.04975,0.01925,0.00637825,-0.0024872501,0.002884,1742093396.5753658
0.2615,-0.01625,-0.02025,0.0075225,-0.0032655,-0.00062550005,1742093396.5899498
0.24325,0.012,-0.04425,0.00874325,-0.0043639997,-0.0033264998,1742093396.604455
0.23075,0.055,-0.06575,0.00891125,-0.0049285004,-0.0065307496,1742093396.618937
0.23375,0.0595,-0.071,0.00782775,-0.00485225,-0.0069885002,1742093396.634612
0.237,0.0505,-0.07725,0.00535575,-0.0059510004,-0.00416575,1742093396.6477492
0.24175,0.02325,-0.084,0.00463875,-0.0063325,-0.0023497501,1742093396.662278
0.2435,0.01625,-0.078,0.00352475,-0.00579825,0.00016775,1742093396.67663
0.24025,0.00975,-0.056,0.0019685,-0.0051880004,0.0012055,1742093396.690997
0.2435,0.0035,-0.043,0.0007935,-0.0059815003,0.00263975,1742093396.705444
0.254,-0.0045,-0.02975,0.0014037499,-0.0064850003,0.00283825,1742093396.71999
0.25375,-0.004,-0.03225,0.00190725,-0.0065307496,0.00283825,1742093396.7347782
0.2465,0.015,-0.0385,0.001648,-0.0056304997,0.002777,1742093396.748945
0.23875,0.02575,-0.042,0.00071725,-0.0052337497,0.0028687501,1742093396.764529
0.2325,0.02975,-0.04325,-0.001526,-0.004837,0.00328075,1742093396.777751
0.23575,0.0185,-0.03175,-0.00193775,-0.0050202496,0.002472,1742093396.792238
0.24275,0.0065,-0.022,-0.0012970001,-0.0052337497,0.0009765,1742093396.806726
0.25675,0.001,-0.00975,-7.625e-05,-0.0049742498,0.00027475,1742093396.821146
0.26025,0.012,-0.00925,0.002121,-0.004486,-0.001587,1742093396.835639
0.25475,0.03925,-0.01025,0.0019685,-0.00411975,-0.002411,1742093396.8500748
0.248,0.04275,-0.015,0.00086975005,-0.00367725,-0.00305175,1742093396.864543
0.23875,0.037,-0.02225,-0.0028074998,-0.00254825,-0.0018005001,1742093396.879082
0.218,0.015,-0.03425,-0.00491325,-0.0020599999,0.00074775,1742093396.894389
0.21525,0.00575,-0.032,-0.0057372497,-0.002655,0.0056,1742093396.9080598
0.2395,0.007,-0.00775,-0.00381475,-0.004074,0.0048979996,1742093396.922514
0.25625,0.01275,0.007,0.00039675,-0.0058287503,-0.001114,1742093396.93697
0.2675,0.021,0.01425,0.001236,-0.0054015,-0.00416575,1742093396.951475
0.2605,0.0155,0.00575,-0.0019225,-0.00352475,-0.00358575,1742093396.965929
0.2445,-0.00425,-0.0155,-0.0048979996,-0.0021057501,0.0009765,1742093396.980416
0.2385,-0.00175,-0.02275,-0.00694275,-0.00059500005,0.005844,1742093396.995528
0.23425,0.00675,-0.0265,-0.0060882503,0.0004425,0.007904,1742093397.009376
0.2345,0.0175,-0.0205,-0.0037995,-0.0007325,0.0045777503,1742093397.0257049
0.24175,0.0145,-0.012,0.0002135,-0.004593,-0.00340275,1742093397.0383658
0.2505,0.01375,-0.00325,0.00033575002,-0.0053252503,-0.00517275,1742093397.054485
0.25,0.012,-0.0045,-0.00369275,-0.003128,-0.00143425,1742093397.067337
0.245,-0.0015,-0.01425,-0.00546275,-0.0012055,0.00245675,1742093397.081973
0.2365,-0.0025,-0.02275,-0.00384525,0.00070200005,0.0052337497,1742093397.0964742
0.223,0.00625,-0.03025,-0.00198375,-0.0002595,0.0033570002,1742093397.110954
0.22725,0.00625,-0.0255,-0.0002595,-0.0022277501,0.00045775,1742093397.125448
0.242,-0.00725,-0.017,0.0008545,-0.0060577504,-0.00296025,1742093397.140053
0.24825,-0.01075,-0.01275,0.0005035,-0.006256,-0.002243,1742093397.154621
0.25425,-0.0085,-0.00675,-0.00035100002,-0.00328075,0.002243,1742093397.169122
0.2555,0.01025,0.00025,-0.0004425,-0.0014037499,0.003891,1742093397.1842828
0.25025,0.02225,0.00025,3.0500001e-05,-7.625e-05,0.0022125002,1742093397.197859
0.23875,0.0315,-0.00625,-0.000229,-0.00096125,9.15e-05,1742093397.213981
0.236,0.02925,-0.00975,-0.00239575,-0.00390625,-0.00143425,1742093397.226839
0.242,0.01975,-0.00425,-0.003296,-0.0049285004,-0.000885,1742093397.241432
0.251,0.0125,0.0025,-0.002533,-0.0043639997,-0.0004425,1742093397.2559628
0.256,0.0145,0.0075,-0.00090025004,-0.00334175,-0.0018005001,1742093397.2703412
0.25175,0.02125,0.00825,0.00077825,-0.00267025,-0.0040587503,1742093397.2847202
0.246,0.022,0.01475,0.00080875,-0.00305175,-0.0065155,1742093397.299119
0.241,-0.00225,0.03875,-0.00090025004,-0.0035704998,-0.00466925,1742093397.314485
0.24375,-0.01575,0.05475,-0.0024872501,-0.0031889998,0.00216675,1742093397.328033
0.249,-0.01325,0.09375,-0.0010375,-0.00238025,0.00399775,1742093397.3425841
0.2455,0.003,0.1345,0.0013427499,-0.0029907501,0.0029755002,1742093397.356837
0.27475,0.00275,0.30825,0.00019825,-0.0048979996,0.0025940002,1742093397.3711581
0.314,-0.0375,0.431,-0.001587,-0.006836,0.00270075,1742093397.385634
0.36875,-0.09775,0.564,-0.00289925,-0.00314325,0.0031127501,1742093397.4002528
0.46825,-0.1775,0.73575,-0.00213625,0.00378425,0.00308225,1742093397.414725
0.43225,-0.1775,0.73425,0.0038605002,0.01855475,0.0069885002,1742093397.42897
0.26025,-0.099,0.66125,0.0059967497,0.023528999,0.01136775,1742093397.4451141
0.20025,-0.0285,0.5725,0.00665275,0.02958675,0.010024999,1742093397.457531
0.177,0.08175,0.15075,0.005539,0.03182975,0.001587,1742093397.471767
0.17125,0.101,-0.14525,-0.00177,0.034378,-0.007843,1742093397.486161
0.1445,0.08775,-0.406,-0.00411975,0.0342865,-0.024475,1742093397.500588
0.0385,-0.02125,-0.59075,0.00143425,0.030075,-0.029876752,1742093397.515
0.04625,-0.0145,-0.57975,-0.00119025,0.015564,-0.021514999,1742093397.52953
0.179,0.121,-0.544,-0.00213625,0.010757499,-0.013854999,1742093397.5447638
0.19675,0.15825,-0.548,-0.00225825,0.012313751,-0.00738525,1742093397.55834
0.13175,0.10175,-0.49175,-0.0033570002,0.013916001,-0.0048979996,1742093397.572813
0.09975,0.0545,-0.4185,-0.00187675,0.009674,0.002884,1742093397.587252
0.09475,-0.004,-0.25,0.00059500005,0.0041504996,0.0052185003,1742093397.601655
0.12575,-0.02025,-0.17375,0.0026092501,-0.001648,0.00541675,1742093397.61602
0.168,-0.03225,-0.11325,0.0032347501,-0.00640875,0.0030365,1742093397.630498
0.208,-0.038,-0.06025,0.0027160002,-0.005005,0.0025940002,1742093397.6449752
0.2085,-0.0335,-0.05625,0.002884,-0.0027160002,0.0044555003,1742093397.659411
0.2265,-0.01225,-0.045,0.00399775,-0.00354,0.0033570002,1742093397.675432
0.23975,-0.00125,-0.04275,0.006256,-0.006775,-0.00340275,1742093397.688538
0.2605,0.01575,-0.043,0.006546,-0.008285499,-0.00585925,1742093397.70443
0.26375,0.02325,-0.04625,0.00494375,-0.0085755,-0.00712575,1742093397.7174962
0.26125,0.02725,-0.0535,0.0041504996,-0.007599,-0.00691225,1742093397.731955
0.259,0.01925,-0.0575,0.00355525,-0.00643925,-0.0062407497,1742093397.74644
0.255,0.0065,-0.06275,0.0020599999,-0.00390625,-0.0024414998,1742093397.7609441
0.243,0.001,-0.0695,0.0009765,-0.0028687501,0.00045775,1742093397.775352
0.23675,0.00225,-0.071,0.0012207499,-0.0026245,0.0007935,1742093397.789634
0.2275,-0.006,-0.0735,0.0023039998,-0.0038299998,-0.0004425,1742093397.804518
0.22925,-0.00825,-0.069,0.00369275,-0.0065307496,-0.0007935,1742093397.818942
0.24425,-0.00325,-0.05625,0.0030365,-0.0063934997,-0.00029,1742093397.833961
0.25025,0.004,-0.0525,-0.0007935,-0.0036010002,0.0020905002,1742093397.847946
0.247,0.00975,-0.047,-0.00254825,-0.0021972498,0.00396725,1742093397.8623989
0.23975,0.00775,-0.04375,-0.0034942501,-0.001236,0.00494375,1742093397.876898
0.23425,0.00525,-0.04175,-0.00296025,-0.0025025,0.0027465,1742093397.891377
0.23325,-0.0035,-0.0415,-0.00225825,-0.00419625,0.00112925,1742093397.905946
0.238,-0.008,-0.03925,-0.0008545,-0.00708,-0.000412,1742093397.920568
0.24725,0.0015,-0.03,-0.0002595,-0.00785825,-0.00102225,1742093397.935112
0.2515,0.00575,-0.01975,-0.0007935,-0.0073242504,-0.000763,1742093397.949812
0.26525,-0.0005,0.00075,-0.0015565,-0.005844,-0.000183,1742093397.964213
0.26225,-0.00325,-0.00275,-0.002655,-0.0022735,0.0002135,1742093397.978821
0.23875,-0.009,-0.0255,-0.003006,-0.0014037499,0.00042725,1742093397.9946282
0.229,-0.0095,-0.035,-0.00331125,-0.0020752498,0.00148,1742093398.0080771
0.22225,-0.00025,-0.0435,-0.0036010002,-0.0030975002,0.00251775,1742093398.022602
0.2245,0.00725,-0.04375,-0.00408925,-0.0042267498,0.0041044997,1742093398.0371552
0.2325,0.015,-0.036,-0.0047150003,-0.0060272496,0.0065765,1742093398.0516238
0.2615,0.02825,-0.0045,-0.0046845004,-0.0062712496,0.0055847503,1742093398.0660968
0.26725,0.02575,0.0015,-0.0041504996,-0.0048065,0.0003815,1742093398.080461
0.24925,-0.006,-0.01525,-0.00358575,-0.004074,-0.00184625,1742093398.095134
0.2365,-0.0195,-0.02725,-0.0028687501,-0.004547,-0.0018005001,1742093398.109813
0.229,-0.012,-0.039,-0.00317375,-0.0048979996,0.00086975005,1742093398.125319
0.2295,0.00725,-0.03675,-0.0042725,-0.0049742498,0.00485225,1742093398.138978
0.234,0.0325,-0.0235,-0.0049590003,-0.0051574996,0.00413525,1742093398.1544151
0.23625,0.02025,-0.02075,-0.00538625,-0.00543225,0.0020905002,1742093398.1679401
0.232,-0.01175,-0.02625,-0.0050202496,-0.00579825,-0.000824,1742093398.18259
0.23025,-0.009,-0.02175,-0.0050202496,-0.00640875,0.000183,1742093398.197124
0.229,0.00075,-0.02425,-0.006256,-0.00688175,0.0030365,1742093398.211749
0.2255,0.00825,-0.031,-0.0064545004,-0.0054932497,0.002411,1742093398.226201
0.22,0.00075,-0.03975,-0.00469975,-0.0033570002,0.00019825,1742093398.240716
0.22875,-0.01025,-0.02975,-0.00352475,-0.0038757501,0.00054925,1742093398.255203
0.2385,-0.00025,-0.02075,-0.0049285004,-0.00968925,0.0032195,1742093398.269849
0.252,0.02025,-0.01025,-0.0064239996,-0.010727,0.0046845004,1742093398.284595
0.2585,0.02075,-0.003,-0.008545,-0.0067902496,0.005844,1742093398.298825
0.26125,0.01,0.006,-0.008270251,-0.0052337497,0.0049285004,1742093398.313934
0.2585,0.00125,0.00725,-0.0069274995,-0.0046845004,0.00358575,1742093398.327629
0.25875,-0.00725,0.006,-0.0028074998,-0.00491325,0.00125125,1742093398.342203
0.26275,-0.00475,0.00575,-0.001007,-0.0052947504,0.000122000005,1742093398.356725
0.264,-0.001,0.0065,-0.001587,-0.0065917503,0.0022735,1742093398.371249
0.27475,0.0045,0.022,-0.0036315,-0.00617975,0.0056,1742093398.385643
0.279,0.005,0.0315,-0.0047607496,-0.0029145,0.008651749,1742093398.400034
0.2745,0.0095,0.04,-0.0035095,-0.0012207499,0.007553,1742093398.414468
0.26075,0.01525,0.03825,-0.00181575,6.1000002e-05,0.0050965,1742093398.428761
0.237,0.01775,0.05275,-0.00187675,-0.0005645,0.00538625,1742093398.444434
0.23425,0.01,0.069,-0.00177,-0.0016632499,0.00646975,1742093398.457508
0.23875,0.0045,0.09375,-0.00067150005,-0.00331125,0.0072937496,1742093398.471862
0.2655,0.022,0.18175,-0.0005645,-0.003418,0.0062865,1742093398.4862158
0.2725,0.03875,0.24225,-0.00190725,-0.00216675,0.00314325,1742093398.500627
0.28675,0.024,0.40275,-0.0031127501,-0.0012207499,0.0023345,1742093398.515071
0.31825,-0.01125,0.50325,-0.0063934997,0.003891,0.00340275,1742093398.5294359
0.43175,-0.066,0.68025,-0.008651749,0.009140001,0.0038757501,1742093398.544481
0.444,-0.06125,0.72175,-0.008865249,0.01564025,0.00283825,1742093398.558298
0.39975,-0.033,0.726,-0.0042572496,0.028656,0.00242625,1742093398.572639
0.2665,0.026,0.6235,-0.0024872501,0.032364,0.0047607496,1742093398.5869582
0.229,0.037,0.49,0.0039215,0.033966,-0.00314325,1742093398.601218
0.187,0.01775,0.078,0.006836,0.03338625,-0.0135955,1742093398.615498
0.16375,-0.0065,-0.1615,-0.0015105,0.030853251,-0.026352,1742093398.630044
0.08275,-0.03925,-0.50075,0.00070200005,0.028594999,-0.02604675,1742093398.644566
0.05975,-0.02925,-0.56425,0.00463875,0.0258025,-0.02357475,1742093398.6589692
0.08775,0.09625,-0.66675,0.0026854998,0.01988225,-0.017700251,1742093398.673337
0.10025,0.1575,-0.6965,0.00027475,0.017685,-0.0153502505,1742093398.687704
0.09775,0.18025,-0.69025,-0.00305175,0.014419501,-0.011245751,1742093398.702124
0.0785,0.1245,-0.5565,-0.003952,0.01177975,-0.008499251,1742093398.716604
0.07375,0.0575,-0.45575,-0.0013580001,0.0056,-0.00276175,1742093398.7310982
0.074,-0.09625,-0.26175,0.0017242499,0.002411,-0.00077825,1742093398.745822
0.087,-0.1405,-0.18,0.0061035,-0.00343325,0.00440975,1742093398.760349
0.15375,-0.1245,-0.05725,0.0074615004,-0.0059205,0.0058287503,1742093398.775444
0.19575,-0.08425,-0.021,0.0088195,-0.0081025,0.0050202496,1742093398.789335
0.25525,-0.00525,0.002,0.01133725,-0.010376001,-0.0001525,1742093398.804588
0.26775,0.02175,-0.0035,0.011612001,-0.0099639995,-0.0027160002,1742093398.818311
0.26625,0.03775,-0.01825,0.0089875,-0.00747675,-0.00270075,1742093398.8340878
0.25075,0.056,-0.04325,0.007553,-0.00662225,-0.0036315,1742093398.847314
0.23525,0.0515,-0.05925,0.00617975,-0.00798025,-0.007019,1742093398.861802
0.2215,0.03175,-0.08025,0.0055085,-0.008773751,-0.00715625,1742093398.87633
0.22375,0.0245,-0.07925,0.004242,-0.008788999,-0.00355525,1742093398.890801
0.243,0.01225,-0.0685,0.00364675,-0.008285499,-0.0012207499,1742093398.905347
0.25375,0.001,-0.0655,0.00367725,-0.0063934997,0.0023497501,1742093398.9197319
0.262,-0.01775,-0.0595,0.004303,-0.0057525,0.0029755002,1742093398.934357
0.265,-0.01075,-0.0525,0.0043335,-0.0055237496,0.00308225,1742093398.948714
0.2645,-0.001,-0.04675,0.0023497501,-0.0049285004,0.0033722501,1742093398.963973
0.25625,0.00475,-0.0425,0.0013885,-0.004593,0.0036010002,1742093398.977504
0.252,0.00975,-0.04325,-9.15e-05,-0.00402825,0.0038299998,1742093398.9919128
0.24625,0.0125,-0.041,-0.00024425,-0.004242,0.0030975002,1742093399.006498
0.249,0.00425,-0.0365,-4.575e-05,-0.0061950004,0.00154125,1742093399.0208051
0.25175,-0.00925,-0.028,-3.0500001e-05,-0.0067902496,0.001953,1742093399.0354218
0.25025,-0.00675,-0.0215,-0.0001525,-0.0068665,0.00279225,1742093399.050045
0.2575,0.00825,-0.00025,-0.00099175,-0.0055695,0.00354,1742093399.0645618
0.2565,0.013,0.0055,-0.0013580001,-0.003891,0.0028535,1742093399.0788329
0.246,0.0115,0.001,-0.0019685,-0.0002135,0.00054925,1742093399.094666
0.21675,-0.0085,-0.027,-0.0021819999,0.0003815,6.1000002e-05,1742093399.1082702
0.2105,-0.012,-0.03675,-0.00154125,-0.0017852499,3.0500001e-05,1742093399.122707
0.216,-0.00075,-0.03775,-0.0009765,-0.0034942501,0.00010675,1742093399.137245
0.2215,0.00375,-0.0335,-0.0007325,-0.0056,0.00125125,1742093399.151741
0.233,0.0105,-0.0215,-0.001175,-0.0054932497,0.0020752498,1742093399.166173
0.23425,0.00775,-0.018,-0.0016175,-0.00416575,0.002411,1742093399.180626
0.2405,-0.002,-0.015,-0.001175,-0.0039215,0.0015105,1742093399.195209
0.244,0.0,-0.016,-0.00062550005,-0.0043335,0.000412,1742093399.2097259
0.247,0.00425,-0.0155,-0.000534,-0.0054780003,0.000183,1742093399.225064
0.2535,0.00475,-0.014,-0.0010375,-0.00567625,0.00099175,1742093399.2385752
0.25375,0.0025,-0.017,-0.00238025,-0.00413525,0.0042115003,1742093399.254379
0.25125,0.01,-0.0175,-0.0027160002,-0.00289925,0.0057372497,1742093399.267516
0.24875,0.0155,-0.019,-0.00177,-0.00402825,0.00428775,1742093399.282013
0.24725,0.01775,-0.029,-0.000946,-0.0043639997,0.0016632499,1742093399.296465
0.24725,0.02025,-0.03075,-0.00033575002,-0.0045625,-0.0019989999,1742093399.311027
0.26025,0.01675,-0.02275,-0.00042725,-0.0037995,-0.0016785001,1742093399.325527
0.2695,0.01275,-0.006,-0.00051875,-0.0023497501,-6.1000002e-05,1742093399.340014
0.27375,0.0085,0.0025,-0.0028535,-0.0021972498,0.0042267498,1742093399.3544111
0.26375,0.002,-0.0105,-0.002533,-0.00193775,0.0044555003,1742093399.368843
0.2575,0.0005,-0.0165,0.0013885,0.00068675,0.00083925005,1742093399.3845289
0.25125,0.00075,-0.0155,0.0031127501,0.00080875,-0.000885,1742093399.397467
0.25425,0.005,-0.01275,0.00065625,-0.00090025004,0.0017852499,1742093399.411941
0.26575,0.0115,-0.00875,-0.0024872501,-0.00062550005,0.00617975,1742093399.4264529
0.268,0.013,-0.00775,-0.0047150003,0.00083925005,0.0100707505,1742093399.440804
0.2645,0.01725,-0.0085,-0.0032347501,0.00428775,0.009643501,1742093399.4552279
0.2625,0.0175,-0.009,-0.00125125,0.004593,0.0068207504,1742093399.469632
0.25975,0.0185,-0.01025,0.00080875,0.00328075,0.00276175,1742093399.484839
0.2465,0.026,-0.01,0.001114,0.002655,0.0022735,1742093399.498204
0.24325,0.026,-0.00675,3.0500001e-05,0.0021057501,0.00437925,1742093399.512481
0.2435,0.011,0.0005,-0.00074775,0.0021819999,0.0057220003,1742093399.526803
0.24475,0.00525,0.004,-6.1000002e-05,0.002655,0.0060577504,1742093399.54113
0.24475,0.021,0.0145,0.00090025004,0.002655,0.005539,1742093399.5553112
0.24275,0.03925,0.0195,0.0014495,0.00245675,0.0049895,1742093399.569505
0.24025,0.0565,0.0255,-0.00019825,0.00198375,0.00355525,1742093399.584084
0.23825,0.05625,0.0485,-0.00204475,0.00169375,0.0028074998,1742093399.598125
0.24225,0.0455,0.06975,-0.0032195,0.0013427499,0.0003815,1742093399.6124291
0.2545,0.034,0.14375,-0.00193775,0.000946,-0.00125125,1742093399.6268349
0.269,0.0375,0.20925,-0.000412,0.00013725001,-0.0027465,1742093399.6411588
0.297,0.031,0.30875,-0.00115975,-0.0024872501,-0.00593575,1742093399.6557062
0.452,-0.07875,0.58575,-0.0037537501,-0.0021972498,-0.00782775,1742093399.670221
0.539,-0.1555,0.70175,-0.004776,0.008133001,-0.0061950004,1742093399.684705
0.462,-0.169,0.71925,-0.001236,0.016967751,-0.00010675,1742093399.6991181
0.336,-0.12175,0.64575,0.0062712496,0.027587999,0.008484,1742093399.71447
0.18175,-0.083,0.392,0.0110932505,0.02734375,0.0061645,1742093399.7277288
0.15025,-0.045,0.199,0.01823425,0.025970502,-0.00093075,1742093399.742112
0.143,0.132,-0.21175,0.012695249,0.02548225,-0.00505075,1742093399.756542
0.147,0.17725,-0.406,0.0070037497,0.02333075,-0.0143737495,1742093399.770901
0.13175,0.169,-0.54225,0.015533499,0.01651,-0.038437,1742093399.785216
0.06825,0.16775,-0.65,0.01412975,0.01510625,-0.03990175,1742093399.799602
0.0485,0.19825,-0.64575,-0.00042725,0.015976,-0.020782499,1742093399.814464
0.0225,0.21775,-0.60575,-0.00466925,0.0163575,-0.012375,1742093399.828608
0.0225,0.181,-0.569,-0.0049742498,0.009674,-0.00317375,1742093399.8442938
0.086,0.05375,-0.41825,-0.0036010002,0.00381475,-0.000473,1742093399.857578
0.1325,-0.00825,-0.315,-0.000122000005,-0.0060272496,0.0029145,1742093399.8722298
0.20975,-0.07775,-0.116,0.0001525,-0.00697325,0.00590525,1742093399.88675
0.22125,-0.07225,-0.0585,-0.00045775,-0.0047912505,0.0093995,1742093399.901212
0.21875,-0.05425,-0.03575,-0.00108325,0.0012207499,0.0128175,1742093399.915703
0.22,-0.02625,-0.03475,0.00029,0.001114,0.0105742505,1742093399.930104
0.22525,-0.01575,-0.039,0.00396725,-0.00231925,-0.0002595,1742093399.944732
0.2255,0.01075,-0.04875,0.0050355,-0.0034637498,-0.0038757501,1742093399.959143
0.22425,0.01875,-0.05375,0.0039825,-0.0047912505,-0.0046539996,1742093399.975638
0.2255,0.01725,-0.068,0.0028229998,-0.0052795,-0.0043639997,1742093399.9880981
0.22125,0.021,-0.08,0.00190725,-0.0065765,-0.0050355,1742093400.002559
0.22225,0.02875,-0.08725,0.001526,-0.00640875,-0.0049590003,1742093400.017117
0.23475,0.02325,-0.08175,0.00137325,-0.00617975,-0.00416575,1742093400.03164
0.24825,0.01125,-0.07575,0.00213625,-0.00561525,-0.001419,1742093400.0461109
0.261,-0.00325,-0.068,0.002243,-0.0050355,0.000229,1742093400.060597
0.26225,0.0015,-0.06425,0.00086975005,-0.0046539996,0.002533,1742093400.075556
0.25825,0.0185,-0.06475,0.00065625,-0.0050812503,0.002533,1742093400.0893838
0.25025,0.02025,-0.06925,-0.0005035,-0.00488275,0.00143425,1742093400.104351
0.2435,0.00975,-0.069,-0.0017242499,-0.0041044997,0.00090025004,1742093400.118419
0.24825,0.0045,-0.0625,-0.0019989999,-0.0032655,-4.575e-05,1742093400.1342359
0.2545,0.005,-0.05275,-0.0014037499,-0.0031127501,-0.00070200005,1742093400.1475751
0.24925,0.01075,-0.05475,-0.0009765,-0.00292975,-0.0013580001,1742093400.162126
0.243,0.0155,-0.0595,-0.0019989999,-0.0027160002,-0.00115975,1742093400.1767051
0.233,0.02,-0.068,-0.0034790002,-0.002777,0.00030525,1742093400.191083
0.229,0.02175,-0.069,-0.0058899997,-0.0026092501,0.00390625,1742093400.205601
0.22125,0.01875,-0.06775,-0.0062255003,-0.00263975,0.0043944996,1742093400.220132
0.21875,0.01225,-0.0655,-0.00535575,-0.0029449998,0.0026245,1742093400.2345831
0.22675,-0.00575,-0.055,-0.0040587503,-0.00314325,0.00090025004,1742093400.249197
0.23275,-0.01175,-0.051,-0.0015565,-0.00320425,-0.001892,1742093400.2644742
0.23025,-0.0055,-0.05275,-0.001831,-0.00340275,-0.00146475,1742093400.2785852
0.228,0.00475,-0.05625,-0.00617975,-0.0034637498,0.0040587503,1742093400.294464
0.221,0.0145,-0.0645,-0.00794975,-0.0032347501,0.00694275,1742093400.3075871
0.2145,0.01825,-0.0685,-0.00823975,-0.00317375,0.00798025,1742093400.322113
0.21225,0.02025,-0.06825,-0.0060882503,-0.005249,0.0047150003,1742093400.336592
0.23775,0.01225,-0.04825,-0.0048217503,-0.0072480002,0.0025634998,1742093400.3511198
0.25375,0.00725,-0.03475,-0.00334175,-0.00947575,0.00057975,1742093400.3655941
0.26075,0.006,-0.024,-0.00302125,-0.00889575,0.000412,1742093400.3801332
0.254,0.0025,-0.02675,-0.0027312501,-0.006012,0.001114,1742093400.394603
0.238,-0.00425,-0.03725,-0.0024872501,-0.0043944996,0.0018005001,1742093400.40904
0.2295,-0.002,-0.0435,-0.0009155,-0.00245675,0.0028687501,1742093400.4249542
0.214,0.001,-0.047,-0.00071725,-0.0026245,0.003418,1742093400.4381208
0.215,-0.0015,-0.04275,-0.00131225,-0.00369275,0.00399775,1742093400.452702
0.2255,-0.00225,-0.0335,-0.00177,-0.0064545004,0.0049895,1742093400.467196
0.253,0.00725,-0.007,-0.00146475,-0.0068055,0.0051269997,1742093400.481688
0.25825,0.0135,-0.00225,-0.00105275,-0.00514225,0.0035704998,1742093400.496254
0.24375,0.01575,-0.0155,-0.0013275,-0.0041504996,0.0021819999,1742093400.5106869
0.23475,0.0135,-0.0245,-0.00225825,-0.00511175,-0.0002595,1742093400.5265439
0.23375,0.006,-0.02775,-0.00276175,-0.0064850003,-0.00036625,1742093400.539787
0.23775,0.007,-0.02375,-0.0043639997,-0.0084379995,0.00198375,1742093400.554549
0.243,0.00625,-0.0155,-0.00517275,-0.008865249,0.0033875,1742093400.568825
0.25125,0.0005,-0.00875,-0.00517275,-0.00891125,0.003891,1742093400.5844228
0.26,-0.00225,-0.002,-0.0022735,-0.008361749,0.00061025,1742093400.597855
0.26625,0.00175,0.00225,-0.0012207499,-0.0077667497,-0.00105275,1742093400.612284
0.266,-0.00075,0.00175,-0.0029755002,-0.0064850003,0.00181575,1742093400.626771
0.26775,-0.00775,0.00225,-0.00416575,-0.0054780003,0.00546275,1742093400.64131
0.265,-0.0025,0.00075,-0.0031127501,-0.003662,0.00852975,1742093400.6559072
0.25725,0.01775,-0.00025,-0.00160225,-0.0038757501,0.0072480002,1742093400.670439
0.2585,0.029,0.00125,4.575e-05,-0.0058135,0.0028687501,1742093400.684727
0.26475,0.04925,0.01575,-0.0002595,-0.00621025,0.00099175,1742093400.6990762
0.26425,0.0525,0.0285,-0.0012055,-0.00590525,-0.0002135,1742093400.714612
0.266,0.04575,0.04375,-0.004303,-0.0041810004,0.000534,1742093400.7280269
0.269,0.02,0.08825,-0.0046539996,-0.0029755002,0.000946,1742093400.742424
0.26475,0.023,0.1165,-0.0010375,-0.00163275,-0.001587,1742093400.756872
0.27125,0.047,0.21275,-0.000183,-0.00276175,-0.0027465,1742093400.771399
0.30475,0.0335,0.29875,-0.00175475,-0.0053405,-0.00520325,1742093400.7859461
0.3785,-0.028,0.50525,-0.00238025,-0.002884,-0.0076599997,1742093400.800504
0.4035,-0.06375,0.6075,-0.00187675,0.0078125,-0.007904,1742093400.814934
0.40925,-0.11325,0.71675,-0.00035100002,0.0125885,-0.003952,1742093400.829389
0.37425,-0.093,0.68875,0.00105275,0.01763925,0.00112925,1742093400.844568
0.324,-0.04875,0.5985,0.00187675,0.02822875,0.0073547503,1742093400.858022
0.214,0.03525,0.3155,0.00276175,0.030853251,0.0059510004,1742093400.8723252
0.1725,0.052,0.153,0.00564575,0.02919,-0.00505075,1742093400.886614
0.165,0.04025,-0.15875,0.0026092501,0.02737425,-0.013061499,1742093400.9010181
0.1815,0.02725,-0.3255,0.0038757501,0.02607725,-0.02288825,1742093400.915461
0.16425,0.04675,-0.51225,0.0062255003,0.025879,-0.0230255,1742093400.9298282
0.151,0.09875,-0.54075,0.00466925,0.02557375,-0.021225,1742093400.944652
0.112,0.17075,-0.546,-0.00086975005,0.023819,-0.016418502,1742093400.9587672
0.0865,0.14275,-0.53225,-0.00146475,0.02162175,-0.014389,1742093400.9732668
0.06625,0.077,-0.507,-0.0020599999,0.017547501,-0.008209251,1742093400.987791
0.0295,-0.0245,-0.435,-0.00109875,0.0153502505,-0.0049285004,1742093401.0023732
0.026,-0.0305,-0.388,0.000885,0.006363,0.00065625,1742093401.016824
0.06625,-0.03375,-0.25825,0.00112925,0.00112925,0.00267025,1742093401.031189
0.10325,-0.0335,-0.19325,0.0014037499,-0.005783,0.002365,1742093401.04561
0.15475,-0.04175,-0.10975,0.00109875,-0.0065155,0.001953,1742093401.060079
0.16725,-0.052,-0.08875,0.00071725,-0.0060272496,0.0024872501,1742093401.075114
0.1975,-0.0465,-0.068,0.0012207499,-0.005783,0.0037079998,1742093401.089099
0.22125,-0.02725,-0.06025,0.0025634998,-0.00712575,0.00267025,1742093401.104537
0.2415,-0.00425,-0.0535,0.0052185003,-0.010589501,-0.0012970001,1742093401.118123
0.2645,0.01225,-0.0495,0.0050355,-0.010849,-0.0027465,1742093401.13264
0.2665,0.00375,-0.0545,0.0028535,-0.00782775,-0.00105275,1742093401.147091
0.255,-0.00325,-0.07875,0.0021057501,-0.0062407497,0.00093075,1742093401.161587
0.24975,0.0035,-0.09175,0.00204475,-0.00517275,0.00263975,1742093401.176003
0.2415,0.0215,-0.10075,0.0021057501,-0.0052795,0.0021819999,1742093401.190364
0.2435,0.02225,-0.0915,0.0019225,-0.0056609996,0.0016785001,1742093401.2047958
0.248,0.015,-0.07875,0.00119025,-0.0062407497,0.00184625,1742093401.219212
0.25025,-0.00925,-0.064,0.000763,-0.0059510004,0.0029145,1742093401.2340858
0.24475,-0.01275,-0.06475,0.00033575002,-0.0042725,0.00662225,1742093401.248068
0.22,0.008,-0.075,-0.00019825,-0.0031585,0.007843,1742093401.262573
0.20725,0.02075,-0.081,-0.00204475,-0.0024414998,0.00561525,1742093401.277046
0.20025,0.01875,-0.08175,-0.0013885,-0.0042725,0.003006,1742093401.2915552
0.2095,0.012,-0.074,0.00039675,-0.009582501,0.00013725001,1742093401.306031
0.24325,0.008,-0.029,0.00045775,-0.011031999,0.00045775,1742093401.320487
0.25875,0.0055,-0.01175,6.1000002e-05,-0.011016751,0.00083925005,1742093401.334846
0.26175,0.00725,-0.00875,-0.0013427499,-0.00640875,0.0,1742093401.349298
0.22875,0.01125,-0.042,-0.0023345,-0.003891,-0.000229,1742093401.364303
0.21375,0.00975,-0.05675,-0.0033875,-0.00334175,-0.00010675,1742093401.378502
0.21575,0.007,-0.05525,-0.0028074998,-0.0054475004,-0.00057975,1742093401.39414
0.22925,0.00375,-0.04,-0.00213625,-0.009582501,-7.625e-05,1742093401.407688
0.2625,-0.00525,-0.00525,-0.0022125002,-0.00975025,0.000946,1742093401.422179
0.269,-0.003,0.00175,-0.0025940002,-0.00631725,0.00184625,1742093401.436646
0.25575,0.00925,-0.01375,-0.00270075,-0.00444025,0.001526,1742093401.4511518
0.24625,0.01125,-0.028,-0.0027160002,-0.0035704998,0.000885,1742093401.465572
0.241,0.006,-0.0385,-0.0031127501,-0.0044707498,0.0004425,1742093401.480001
0.243,0.006,-0.03475,-0.004013,-0.0052185003,0.0021515,1742093401.494505
0.24475,0.007,-0.02725,-0.0056609996,-0.0052642496,0.007187,1742093401.5089338
0.24825,0.0025,-0.0145,-0.00505075,-0.0045625,0.00782775,1742093401.5246642
0.24725,-0.00075,-0.0155,-0.0004425,-0.00317375,0.0047150003,1742093401.537952
0.23525,0.00825,-0.01725,0.0016175,-0.00314325,0.0026092501,1742093401.552257
0.233,0.0215,-0.019,0.0002135,-0.0065155,-0.00131225,1742093401.5666811
0.24975,0.027,-0.01225,-0.00143425,-0.00883475,-0.0023039998,1742093401.58129
0.255,0.01525,-0.01025,-0.00325,-0.010253999,-0.0016175,1742093401.595907
0.25575,-0.00125,-0.00725,-0.006012,-0.009521499,0.0032195,1742093401.610461
0.26,-0.0025,-0.00275,-0.00570675,-0.008255,0.0043944996,1742093401.6252842
0.265,-0.002,0.00125,-0.0027312501,-0.005005,0.0029449998,1742093401.63948
0.25825,0.005,0.00075,-0.00131225,-0.0035095,0.00154125,1742093401.654376
0.249,0.0085,-0.003,-0.00125125,-0.002472,-4.575e-05,1742093401.6684659
0.24625,-0.00075,-0.00275,-0.00279225,-0.0024414998,0.00119025,1742093401.684541
0.25025,-0.0075,0.0005,-0.0045165,-0.0015105,0.005005,1742093401.697653
0.25025,-0.00625,0.00175,-0.0034790002,-0.000885,0.00531,1742093401.7121909
0.24875,0.00125,0.00125,0.00029,-0.00096125,0.00213625,1742093401.726451
0.251,0.01675,0.002,0.0016785001,-0.001709,-0.000122000005,1742093401.740916
0.2555,0.0175,0.005,0.0020599999,-0.0025634998,-0.0017395001,1742093401.755269
0.26125,0.0125,0.006,-0.00090025004,-0.0028074998,-6.1000002e-05,1742093401.7697642
0.266,0.0055,0.0045,-0.0029449998,-0.0016632499,0.0027160002,1742093401.784558
0.26225,0.00875,0.00275,-0.00399775,0.000763,0.0050965,1742093401.798434
0.25525,0.01575,0.01375,-0.0028687501,0.00099175,0.0035704998,1742093401.812713
0.2515,0.013,0.0195,0.000412,-7.625e-05,-0.0004425,1742093401.8271308
0.23475,0.01175,0.02175,0.0016175,-0.000763,-0.0011445,1742093401.8414369
0.22975,0.0165,0.03025,0.00177,-0.00154125,-0.00062550005,1742093401.855805
0.23425,0.02025,0.0515,-0.00074775,-0.00314325,0.0026092501,1742093401.87021
0.26,0.03425,0.131,-0.0015565,-0.0034942501,0.0028535,1742093401.884661
0.2685,0.04525,0.1915,-0.0012055,-0.0036010002,-0.00062550005,1742093401.899005
0.29125,0.0215,0.371,-0.0004425,-0.0036315,-0.0019225,1742093401.914227
0.312,-0.019,0.484,-0.00048825,0.0003205,-0.00035100002,1742093401.928118
0.3905,-0.09475,0.6835,-0.00054925,0.004593,0.00154125,1742093401.942475
0.39425,-0.093,0.71875,0.0037385002,0.016143749,0.0050202496,1742093401.956838
0.24825,-0.025,0.62425,0.0044250004,0.022583,0.00717175,1742093401.971245
0.171,0.00575,0.5235,0.0030365,0.02778625,0.00874325,1742093401.985434
0.139,0.03625,0.3895,0.00328075,0.032180753,-0.0023039998,1742093401.99968
0.15275,0.03425,-0.015,0.0043182503,0.0318755,-0.013061499,1742093402.014714
0.15225,0.017,-0.2555,-0.0044707498,0.025848499,-0.023071252,1742093402.0286121
0.13775,0.03775,-0.5545,-0.00048825,0.01940925,-0.0242005,1742093402.044568
0.14,0.05775,-0.57725,0.00416575,0.008926501,-0.03111275,1742093402.0574641
0.2095,0.08375,-0.552,0.00163275,0.0068207504,-0.033844,1742093402.071892
0.22775,0.0875,-0.55375,-0.00048825,0.0074615004,-0.031662002,1742093402.08639
0.21675,0.0725,-0.55775,-0.00184625,0.01460275,-0.013137749,1742093402.100915
0.15275,0.01375,-0.502,-0.00065625,0.01628125,-0.0051574996,1742093402.1153789
0.12775,-0.01775,-0.43325,0.00254825,0.010803251,0.0040587503,1742093402.12977
0.11625,-0.05425,-0.26625,0.0030669998,0.0055237496,0.0076599997,1742093402.144209
0.124,-0.05425,-0.19725,0.0036010002,-0.00292975,0.01098625,1742093402.158603
0.1485,-0.04675,-0.10375,0.004242,-0.0042572496,0.010238751,1742093402.173086
0.156,-0.04675,-0.0805,0.00640875,-0.005249,0.0077515002,1742093402.1875908
0.17125,-0.0405,-0.0625,0.00764475,-0.00715625,0.0059205,1742093402.2021
0.194,-0.02525,-0.054,0.008712751,-0.010086001,0.00305175,1742093402.216587
0.2175,-0.0045,-0.043,0.009734999,-0.014572251,-0.00204475,1742093402.231123
0.2475,0.0205,-0.03575,0.0085755,-0.014679,-0.00292975,1742093402.245546
0.25625,0.02775,-0.03675,0.00596625,-0.0119934995,-0.00437925,1742093402.2599978
0.27025,0.03075,-0.0425,0.0056304997,-0.010742251,-0.00517275,1742093402.275376
0.2725,0.022,-0.046,0.0046234997,-0.008590749,-0.00283825,1742093402.289011
0.269,0.001,-0.0475,0.003418,-0.0072785,0.00051875,1742093402.304513
0.26675,-0.001,-0.04725,0.0015105,-0.00494375,0.0057220003,1742093402.3179
0.257,0.008,-0.05025,0.0017242499,-0.004547,0.005844,1742093402.332298
0.2505,0.012,-0.053,0.00242625,-0.0046539996,0.00485225,1742093402.346695
0.24625,0.0135,-0.05375,0.002472,-0.00440975,0.00181575,1742093402.361112
0.253,-0.002,-0.04,0.00276175,-0.00469975,0.00061025,1742093402.375597
0.262,-0.00525,-0.03,0.0025025,-0.0045777503,0.0009155,1742093402.390162
0.26425,0.004,-0.026,0.0015105,-0.0036315,0.0021515,1742093402.404474
0.25275,0.0075,-0.03275,-0.0001525,-0.0012970001,0.00308225,1742093402.419086
0.22425,0.01275,-0.05,-0.000412,-0.00105275,0.00198375,1742093402.434002
0.219,0.009,-0.053,-0.000885,-0.0026245,0.00068675,1742093402.448017
0.22825,-0.00225,-0.03675,-0.0013885,-0.003769,0.00157175,1742093402.46259
0.24325,-0.001,-0.02025,-0.001709,-0.00488275,0.002472,1742093402.4771688
0.2595,0.00275,-0.00625,-0.001175,-0.00511175,0.00198375,1742093402.491543
0.265,0.01075,-0.00525,-0.00109875,-0.003769,0.00148,1742093402.505986
0.25075,0.0125,-0.017,-0.00216675,-0.0004425,0.00154125,1742093402.520576
0.215,0.01,-0.04575,-0.00263975,0.000183,0.00149525,1742093402.535007
0.20875,0.007,-0.05325,-0.00254825,-0.0021972498,0.00143425,1742093402.549394
0.231,0.0135,-0.0365,-0.0022735,-0.00428775,0.001892,1742093402.564335
0.25025,0.02125,-0.01975,-0.0023497501,-0.00665275,0.0015565,1742093402.5783622
0.2735,0.01975,-0.0005,-0.0028687501,-0.0062865,0.0008545,1742093402.594044
0.272,0.0105,-0.00375,-0.00343325,-0.0050812503,0.00035100002,1742093402.6073658
0.262,0.0025,-0.014,-0.0039825,-0.0021819999,0.00033575002,1742093402.6218932
0.2395,-0.0,-0.0375,-0.00355525,-0.00149525,0.00033575002,1742093402.6364748
0.23475,-0.00425,-0.03275,-0.002121,-0.00469975,-0.00010675,1742093402.651144
0.23925,-0.01825,-0.0275,-0.002655,-0.0057372497,0.000412,1742093402.665665
0.247,-0.0105,-0.02025,-0.0045165,-0.00538625,0.00354,1742093402.680193
0.261,0.0205,-0.01025,-0.0055237496,-0.0046845004,0.00466925,1742093402.694669
0.25975,0.0245,-0.0145,-0.006256,-0.0028074998,0.0023497501,1742093402.709056
0.24275,0.00925,-0.033,-0.005783,-0.0022125002,-0.00033575002,1742093402.725024
0.2375,-0.00225,-0.041,-0.0053252503,-0.0022735,-0.0022125002,1742093402.73827
0.23575,-0.009,-0.0445,-0.0046539996,-0.00198375,-0.0020295,1742093402.754418
0.23525,-0.008,-0.03625,-0.00334175,-0.00119025,-0.00090025004,1742093402.767566
0.24325,-0.007,-0.01525,-0.00364675,-0.0039825,0.0028687501,1742093402.7820811
0.26575,-0.0085,0.002,-0.0044555003,-0.0065155,0.003891,1742093402.7967691
0.269,-0.00475,-0.0005,-0.0039215,-0.003662,0.00228875,1742093402.811125
0.249,0.00675,-0.01875,-0.0037079998,-0.0010375,0.001587,1742093402.825536
0.239,0.0095,-0.028,-0.00334175,-0.0013580001,0.00137325,1742093402.8400052
0.2415,0.0035,-0.029,-0.00283825,-0.00352475,0.00109875,1742093402.8545642
0.25275,-0.004,-0.02075,-0.00204475,-0.007187,0.001709,1742093402.869167
0.277,-0.002,0.00325,-0.00169375,-0.006836,0.002533,1742093402.884522
0.28175,0.01125,0.0095,-0.0016785001,-0.0049285004,0.003128,1742093402.898001
0.27975,0.026,0.009,-0.0026092501,-0.00051875,0.0034637498,1742093402.9124322
0.2575,0.041,-0.001,-0.0033570002,0.00070200005,0.00343325,1742093402.926841
0.24575,0.0385,0.0005,-0.0044707498,0.0002595,0.00334175,1742093402.9411268
0.24725,0.0185,0.0375,-0.00428775,-0.0009765,0.003128,1742093402.95546
0.2545,0.0105,0.0635,-0.0031127501,-0.0026092501,0.000885,1742093402.969897
0.25925,0.01825,0.122,-0.00331125,-0.0025787498,-0.00033575002,1742093402.984567
0.26725,0.01975,0.16625,-0.00411975,-0.00231925,-0.00071725,1742093402.99876
0.27725,0.0175,0.2265,-0.003891,-0.00177,-0.00024425,1742093403.0141098
0.30175,0.01,0.3875,-0.00267025,-0.001831,0.00086975005,1742093403.027675
0.33625,-0.00675,0.48925,-0.00039675,-0.00030525,0.0047150003,1742093403.0421708
0.45375,-0.0425,0.71775,0.000229,0.00428775,0.0043944996,1742093403.0565188
0.461,-0.05975,0.76775,0.00494375,0.017547501,0.004776,1742093403.070803
0.302,-0.05575,0.664,0.0065917503,0.02401725,0.008606,1742093403.085091
0.22625,-0.02925,0.568,0.0101165,0.030487,0.0047607496,1742093403.0994182
0.157,0.04275,0.26475,0.0135345,0.030365,-0.00466925,1742093403.114717
0.15375,0.0675,0.0435,0.0129700005,0.02977,-0.012313751,1742093403.12799
0.1525,0.08125,-0.2055,-0.0033722501,0.027740499,-0.015289251,1742093403.1425679
0.114,0.0755,-0.56875,-0.00030525,0.02456675,-0.016296498,1742093403.1570828
0.05825,0.08825,-0.635,0.0047150003,0.01719675,-0.019927999,1742093403.171502
0.02575,0.08575,-0.66125,0.00434875,0.01245125,-0.02212525,1742093403.185926
0.05675,0.0865,-0.668,0.0012665,0.004593,-0.016388,1742093403.200278
0.11275,0.10825,-0.5875,-0.00267025,0.00364675,-0.01019275,1742093403.214908
0.1195,0.05975,-0.50825,-0.00488275,0.00369275,-0.0065917503,1742093403.229386
0.114,-0.01825,-0.42075,-0.0026092501,0.00245675,-0.00225825,1742093403.244642
0.11725,-0.1355,-0.234,-0.001648,0.0003815,0.003128,1742093403.258294
0.14075,-0.1535,-0.155,-0.000534,-0.0033264998,0.0136565,1742093403.27291
0.19525,-0.1185,-0.064,0.0022735,-0.0045777503,0.013382,1742093403.2874088
0.216,-0.08125,-0.04425,0.00924675,-0.0073242504,0.00517275,1742093403.30193
0.2435,0.01325,-0.02675,0.0111085,-0.008026,0.00112925,1742093403.316299
0.25175,0.058,-0.02925,0.009796251,-0.007187,-0.00364675,1742093403.330789
0.2525,0.07825,-0.0385,0.0077210004,-0.0062407497,-0.0022735,1742093403.3457332
0.24775,0.06575,-0.05075,0.00355525,-0.00413525,-0.0012817499,1742093403.36027
0.23225,0.026,-0.079,0.00384525,-0.0051574996,-0.0034942501,1742093403.375978
0.2295,0.00875,-0.08525,0.0055237496,-0.0072175004,-0.0060272496,1742093403.389245
0.23325,0.0035,-0.08075,0.0080567505,-0.009002751,-0.00671375,1742093403.4045281
0.2565,0.01375,-0.056,0.0069885002,-0.00830075,-0.00367725,1742093403.418248
0.261,0.015,-0.04875,0.002243,-0.00440975,0.0056,1742093403.432655
0.24575,0.0075,-0.05475,-0.000763,-0.001892,0.008788999,1742093403.447087
0.237,0.00225,-0.06125,-0.001709,-0.00071725,0.008255,1742093403.4615748
0.23075,-0.0005,-0.06775,0.00064075,-0.0022735,0.00541675,1742093403.476081
0.2335,0.00675,-0.06175,0.0040435,-0.00643925,0.000122000005,1742093403.490481
0.25725,0.017,-0.02875,0.00355525,-0.00794975,-0.00080875,1742093403.5049868
0.2695,0.00975,-0.0145,0.001892,-0.008148249,-3.0500001e-05,1742093403.519516
0.27275,0.0005,-0.0105,-0.00201425,-0.003952,0.00393675,1742093403.5348759
0.24325,0.0035,-0.03425,-0.0030669998,-0.001587,0.0056609996,1742093403.54855
0.22775,0.01575,-0.0465,-0.00308225,-0.0011445,0.006302,1742093403.564512
0.226,0.03775,-0.04525,-0.0014495,-0.00328075,0.003006,1742093403.5777678
0.2305,0.036,-0.036,0.002533,-0.008636501,-0.0079345,1742093403.592261
0.25,0.00075,-0.007,0.00317375,-0.010238751,-0.011398249,1742093403.606762
0.25875,-0.0205,0.0055,0.00035100002,-0.008926501,-0.0074920002,1742093403.621248
0.25575,-0.02825,0.00225,-0.0022277501,-0.00587475,-0.0021057501,1742093403.6358678
0.24325,-0.019,-0.01175,-0.0040587503,-0.0025787498,0.0025787498,1742093403.6503592
0.23125,-0.00725,-0.0255,-0.0037385002,-0.0007935,0.0050202496,1742093403.665001
0.22975,0.0195,-0.028,-0.0022277501,-0.00267025,0.00251775,1742093403.679554
0.24,0.02525,-0.017,-0.0003815,-0.0076905,-0.0042572496,1742093403.6946208
0.26,0.00275,0.0065,-0.001007,-0.0089569995,-0.0049742498,1742093403.708655
0.2635,-0.008,0.012,-0.0041504996,-0.00665275,0.00027475,1742093403.723031
0.25775,-0.0045,0.00075,-0.00567625,-0.003891,0.00381475,1742093403.737537
0.248,0.0005,-0.00975,-0.0050355,-0.00048825,0.0050202496,1742093403.752023
0.235,-0.00025,-0.01975,-0.0028074998,-0.0012970001,0.002533,1742093403.766676
0.23825,-0.00525,-0.0135,-0.0005645,-0.00555425,-0.00108325,1742093403.781274
0.24675,-0.00525,0.0,-0.0012970001,-0.00694275,-0.000412,1742093403.7958899
0.243,0.00225,-0.00225,-0.00238025,-0.0070495,0.001007,1742093403.810294
0.23475,0.00825,-0.00975,-0.00411975,-0.00546275,0.0039215,1742093403.825183
0.226,0.006,-0.015,-0.00378425,-0.0051574996,0.00440975,1742093403.8392918
0.23125,0.005,-0.00775,0.00048825,-0.0058135,0.000122000005,1742093403.8544152
0.246,0.02175,0.01125,0.002777,-0.00646975,-0.00416575,1742093403.8680608
0.2525,0.025,0.018,0.0017242499,-0.00737,-0.00738525,1742093403.882447
0.26175,0.00025,0.02575,-0.0014037499,-0.0060577504,-0.00384525,1742093403.896987
0.2605,-0.0105,0.02275,-0.00494375,-0.0012970001,0.0029145,1742093403.911616
0.24425,-0.01175,0.0035,-0.00437925,0.00029,0.00354,1742093403.9260318
0.23725,-0.009,-0.0025,-0.0032195,0.00077825,0.003006,1742093403.9405801
0.23425,-0.00475,-0.00175,-0.00067150005,-0.0013275,-1.5250001e-05,1742093403.955292
0.24175,0.003,0.01525,-9.15e-05,-0.0027160002,-0.00125125,1742093403.969789
0.249,0.0035,0.026,-0.00148,-0.0021819999,0.000763,1742093403.984291
0.25725,0.003,0.038,-0.0025025,-0.00070200005,0.0026245,1742093403.998532
0.25525,0.00425,0.03575,-0.00355525,0.0015565,0.0045777503,1742093404.014389
0.2415,0.0085,0.03125,-0.0028535,0.001709,0.00419625,1742093404.02707
0.23325,0.0145,0.0365,-0.0014495,0.00108325,0.0030669998,1742093404.0413709
0.24275,0.019,0.07875,-1.5250001e-05,-0.0022735,0.0012665,1742093404.055764
0.26775,0.01425,0.12125,-0.00096125,-0.00381475,0.00119025,1742093404.0701492
0.29475,0.01125,0.178,-0.0033722501,-0.00276175,0.0012055,1742093404.084626
0.33225,0.01575,0.3235,-0.0047455,-0.000763,0.001709,1742093404.0990632
0.3605,-0.007,0.41275,-0.0053709997,0.0040435,0.0052947504,1742093404.1139
0.462,-0.08925,0.615,-0.0039215,0.0076295,0.00399775,1742093404.127873
0.4855,-0.13075,0.67575,0.0034942501,0.018280001,0.000534,1742093404.14216
0.346,-0.12125,0.66875,0.00891125,0.024002,0.0004425,1742093404.1566331
0.25125,-0.08475,0.6005,0.012619001,0.027481,0.00099175,1742093404.170957
0.18325,-0.0565,0.50425,0.0142365,0.028686501,0.0020599999,1742093404.185354
0.1255,-0.0475,0.179,0.01431275,0.028854249,0.0002135,1742093404.199641
0.096,-0.025,-0.04225,0.0058899997,0.03125,-0.0018005001,1742093404.21438
0.0795,0.14125,-0.4765,0.0012665,0.029449498,-0.00314325,1742093404.228427
0.0835,0.2215,-0.603,0.00842275,0.021026501,-0.017181499,1742093404.2446358
0.0785,0.24875,-0.7035,0.0087585,0.01731875,-0.02734375,1742093404.2571468
0.09675,0.20875,-0.689,0.0072175004,0.013214,-0.03297425,1742093404.2715058
0.13175,0.168,-0.634,0.001953,0.004242,-0.025665252,1742093404.2859678
0.1835,0.08875,-0.461,-0.0013885,0.002777,-0.01655575,1742093404.300513
0.19525,0.03225,-0.37025,-0.0024872501,0.0068665,-0.0031585,1742093404.3150132
0.18575,-0.08175,-0.2325,-0.0008545,0.0093995,0.00064075,1742093404.3295481
0.17125,-0.11375,-0.17675,-7.625e-05,0.009369001,0.0103455,1742093404.344872
0.15075,-0.113,-0.10125,-4.575e-05,0.0072175004,0.01469425,1742093404.3585222
0.15225,-0.08325,-0.08075,0.00352475,0.002365,0.014007499,1742093404.373049
0.165,-0.0065,-0.06075,0.0054932497,6.1000002e-05,0.0084379995,1742093404.3874261
0.17325,0.02075,-0.05675,0.00637825,-0.0019989999,0.00308225,1742093404.401885
0.1845,0.0365,-0.058,0.00579825,-0.0052642496,-0.0020905002,1742093404.416362
0.20825,0.046,-0.07075,0.005249,-0.00665275,-0.00296025,1742093404.430835
0.21675,0.04375,-0.07825,0.003891,-0.00891125,-0.0028229998,1742093404.44525
0.23925,0.02025,-0.076,0.0029755002,-0.00982675,-0.0029145,1742093404.4597602
0.24675,0.00575,-0.07075,0.0020599999,-0.011184749,-0.0036010002,1742093404.475453
0.258,-0.015,-0.06325,0.0024872501,-0.0114744995,-0.0033875,1742093404.488878
0.265,-0.01625,-0.05825,0.00440975,-0.0097045,-0.001419,1742093404.5044422
0.2605,0.0055,-0.05575,0.00444025,-0.00764475,0.00048825,1742093404.5177758
0.25475,0.01625,-0.057,0.0031889998,-0.0057677496,0.00276175,1742093404.532168
0.252,0.0125,-0.05875,-0.0017852499,-0.0031127501,0.0062865,1742093404.546656
0.2405,-0.0095,-0.06475,-0.0029449998,-0.0026092501,0.0065765,1742093404.561155
0.23525,-0.01575,-0.06625,-0.00108325,-0.00416575,0.0054932497,1742093404.5758889
0.24725,-0.0155,-0.05375,0.00096125,-0.0053252503,0.0043335,1742093404.590355
0.255,-0.0045,-0.04625,0.00369275,-0.0052642496,0.0017852499,1742093404.604794
0.24825,0.02025,-0.0425,0.00317375,-0.0042267498,0.0017242499,1742093404.619176
0.2395,0.0245,-0.046,-0.000824,-0.0021972498,0.004013,1742093404.634668
0.22425,0.00975,-0.05525,-0.00251775,-0.0015565,0.0052185003,1742093404.648284
0.21675,0.0035,-0.0585,-0.0029145,-0.00157175,0.0056,1742093404.6627798
0.2155,0.004,-0.0555,-0.00108325,-0.00396725,0.004013,1742093404.677293
0.23625,0.013,-0.03425,0.00016775,-0.0056609996,0.0020905002,1742093404.691669
0.2485,0.01525,-0.02325,0.0010375,-0.0072175004,-0.001526,1742093404.706062
0.255,0.00725,-0.018,-0.0001525,-0.006668,-0.0010375,1742093404.720649
0.24925,-0.00125,-0.02275,-0.00364675,-0.0040587503,0.0041044997,1742093404.735146
0.237,0.00025,-0.0355,-0.00437925,-0.003006,0.006256,1742093404.749781
0.23425,0.01575,-0.03775,-0.00355525,-0.00308225,0.00555425,1742093404.764632
0.23575,0.03025,-0.03,-0.003128,-0.00416575,0.0036162501,1742093404.778795
0.239,0.0195,-0.025,-0.003418,-0.0054932497,0.0024872501,1742093404.794564
0.248,-0.00075,-0.015,-0.00440975,-0.0063477503,0.00402825,1742093404.8078568
0.24975,0.00675,-0.016,-0.0041810004,-0.00535575,0.00491325,1742093404.82227
0.24675,0.0225,-0.02175,-0.00334175,-0.00216675,0.0044555003,1742093404.836763
0.23175,0.03975,-0.037,-0.00270075,-0.001419,0.00296025,1742093404.8512409
0.2245,0.03575,-0.04025,-0.000946,-0.002884,-0.00027475,1742093404.865898
0.22725,0.01375,-0.03575,-0.00033575002,-0.0043944996,-0.00086975005,1742093404.88044
0.235,0.008,-0.032,-0.0004425,-0.0075682504,-0.00064075,1742093404.895062
0.249,0.013,-0.0285,-0.0009155,-0.008377,-9.15e-05,1742093404.909664
0.25475,0.01875,-0.0265,-0.0021057501,-0.0069274995,0.00125125,1742093404.925042
0.2545,0.0275,-0.028,-0.00267025,-0.0051574996,0.0015105,1742093404.938535
0.2475,0.0295,-0.03325,-0.003296,-0.0036162501,0.0015105,1742093404.9542
0.23875,0.028,-0.03925,-0.0038757501,-0.0028687501,0.00080875,1742093404.967551
0.2245,0.01825,-0.0445,-0.0031585,-0.003769,-0.00024425,1742093404.9821382
0.22775,0.01075,-0.03825,-0.0013275,-0.0068055,-0.001526,1742093404.996774
0.24425,0.003,-0.01275,-0.0019225,-0.0075225,0.00039675,1742093405.01121
0.24925,0.01175,-0.002,-0.004593,-0.00541675,0.0057220003,1742093405.025764
0.2455,0.0285,-0.0055,-0.0047302498,-0.00343325,0.0061035,1742093405.04026
0.22775,0.031,-0.01475,-0.0029755002,-0.001419,0.0039825,1742093405.0547452
0.20175,0.03225,-0.0055,-0.00228875,-0.00279225,0.0031585,1742093405.069282
0.20575,0.0295,0.01625,-0.00228875,-0.0052337497,0.0029907501,1742093405.0846772
0.21775,0.03325,0.04675,-0.0038757501,-0.009292499,0.003662,1742093405.097971
0.25575,0.0605,0.125,-0.00469975,-0.009933501,0.0025634998,1742093405.112483
0.2675,0.06375,0.1685,-0.0052337497,-0.00962825,-0.0032655,1742093405.126942
0.28025,0.02175,0.289,-0.0049590003,-0.009430001,-0.00517275,1742093405.1414862
0.30275,-0.02,0.3885,-0.0021972498,-0.008926501,-0.002777,1742093405.156044
0.44425,-0.09825,0.65975,-0.000412,-0.006012,-0.000946,1742093405.17065
0.515,-0.09875,0.7625,0.0035704998,0.00611875,-0.00160225,1742093405.184912
0.459,-0.034,0.7755,0.00564575,0.0151215,-0.0022735,1742093405.199426
0.35025,-0.019,0.6975,0.0068665,0.024643,-0.0027160002,1742093405.214584
0.242,-0.03925,0.586,0.0123442495,0.035293497,-0.0066985004,1742093405.228529
0.12075,-0.08775,0.27325,0.01722725,0.0342865,-0.009796251,1742093405.244029
0.118,-0.07375,0.08775,0.01098625,0.02775575,-0.00842275,1742093405.2574499
0.17125,0.07725,-0.41725,0.0042725,0.02442925,-0.008545,1742093405.271849
0.16575,0.18175,-0.6065,0.0052185003,0.02445975,-0.0178375,1742093405.286169
0.112,0.26175,-0.674,0.003418,0.0227355,-0.0222015,1742093405.30065
0.1095,0.22475,-0.64025,0.00099175,0.0119630005,-0.026657,1742093405.315079
0.121,0.0795,-0.582,-0.000183,0.00845325,-0.023101749,1742093405.3295202
0.11275,0.01775,-0.536,-0.00163275,0.00747675,-0.01567075,1742093405.344403
0.11575,-0.017,-0.4635,-9.15e-05,0.0052795,-0.0023039998,1742093405.358784
0.15975,-0.039,-0.29125,0.00160225,0.0026245,0.0001525,1742093405.3731709
0.18775,-0.06025,-0.21025,0.00325,-0.00096125,0.0037385002,1742093405.387726
0.2125,-0.091,-0.0965,0.00314325,4.575e-05,0.00688175,1742093405.402195
0.20225,-0.08475,-0.07125,0.0034790002,0.0036162501,0.011886501,1742093405.416646
0.1855,-0.05575,-0.052,0.0045777503,0.003769,0.01013175,1742093405.430946
0.18725,-0.04,-0.0475,0.0073395,1.5250001e-05,0.00216675,1742093405.4454489
0.2,0.00625,-0.046,0.00744625,-0.00204475,0.00010675,1742093405.459859
0.20225,0.035,-0.04975,0.0064239996,-0.003662,0.0005035,1742093405.47502
0.20725,0.04625,-0.05125,0.003128,-0.00570675,0.00093075,1742093405.488426
0.2155,0.0405,-0.0605,0.002533,-0.00691225,-0.00131225,1742093405.5044632
0.2185,0.03475,-0.06625,0.00157175,-0.0085755,-0.0035095,1742093405.51725
0.232,0.02675,-0.06125,0.00090025004,-0.008545,-0.002365,1742093405.531737
0.23575,0.019,-0.05875,1.5250001e-05,-0.0077972496,0.0012207499,1742093405.546161
0.24025,0.016,-0.056,-0.00024425,-0.00741575,0.00289925,1742093405.5608032
0.23875,0.0195,-0.0575,-0.0028074998,-0.00611875,0.0049590003,1742093405.576092
0.22925,0.02275,-0.05975,-0.0036315,-0.0061339997,0.0050202496,1742093405.5897028
0.22925,0.0225,-0.05375,-0.0033722501,-0.0070647504,0.0042267498,1742093405.6044421
0.2365,0.02025,-0.042,-0.00213625,-0.008727999,0.00143425,1742093405.618767
0.25825,0.009,-0.01775,-0.00184625,-0.008361749,0.000229,1742093405.6341078
0.2635,0.00225,-0.014,-0.00148,-0.0061950004,-0.001648,1742093405.647865
0.25225,-0.001,-0.0255,-0.00198375,-0.0053405,-0.0016632499,1742093405.662496
0.24525,-0.00225,-0.03275,-0.0041044997,-0.0044707498,0.0007935,1742093405.677022
0.23225,-0.00025,-0.03875,-0.0042725,-0.0046539996,0.00137325,1742093405.6916301
0.2245,0.00475,-0.04075,-0.00320425,-0.00587475,0.00010675,1742093405.7060192
0.21775,0.0055,-0.03525,-0.002472,-0.0063934997,-0.00102225,1742093405.7206678
0.227,0.0,-0.023,-0.00146475,-0.006836,-0.00245675,1742093405.73513
0.24025,-0.00575,-0.01,0.000122000005,-0.006836,-0.0045165,1742093405.7498188
0.2515,-0.00375,-0.003,-0.001068,-0.0061950004,-0.00302125,1742093405.764544
0.251,0.00025,-0.00775,-0.0056304997,-0.0039825,0.0028074998,1742093405.778858
0.24025,-0.00025,-0.02825,-0.00614925,-0.00328075,0.00340275,1742093405.7942882
0.22925,-0.00125,-0.04175,-0.00399775,-0.0041044997,0.00105275,1742093405.80782
0.22125,-0.00075,-0.0475,-0.002655,-0.00561525,7.625e-05,1742093405.822346
0.231,-0.0025,-0.036,-0.00090025004,-0.008941749,-0.00070200005,1742093405.836947
0.258,-0.012,-0.00075,-0.000824,-0.00930775,-3.0500001e-05,1742093405.851705
0.2665,-0.014,0.0085,-0.0020905002,-0.0064239996,0.003128,1742093405.866229
0.263,-0.01125,0.0,-0.0025940002,-0.00437925,0.0047302498,1742093405.880748
0.2535,-0.008,-0.0165,-0.0025787498,-0.0027465,0.0055847503,1742093405.8952901
0.246,0.0,-0.02325,-0.00093075,-0.0034484998,0.00469975,1742093405.909755
0.235,0.009,-0.025,-0.00029,-0.0068512503,0.0034942501,1742093405.924909
0.244,0.00575,-0.01325,-0.0020295,-0.008606,0.00263975,1742093405.938686
0.261,-0.00125,0.01075,-0.0027465,-0.008285499,0.00317375,1742093405.95424
0.261,0.00325,0.00675,-0.0038757501,-0.0062255003,0.0047607496,1742093405.9676402
0.24325,0.019,-0.01675,-0.0045625,-0.00419625,0.00541675,1742093405.9820318
0.23,0.01925,-0.02125,-0.00453175,-0.00090025004,0.00460825,1742093405.996543
0.22,0.00875,-0.01775,-0.00308225,-0.00093075,0.0031585,1742093406.011025
0.2275,0.0045,-0.006,-0.0012055,-0.001709,0.00193775,1742093406.025792
0.24,0.00075,0.01225,-0.001587,-0.0065307496,0.0014495,1742093406.039955
0.2655,-0.0055,0.0315,-0.00251775,-0.00842275,0.00149525,1742093406.054667
0.272,-0.00425,0.0355,-0.002884,-0.0049590003,0.001068,1742093406.068995
0.27025,0.00625,0.03975,-0.00283825,-0.0026245,0.001419,1742093406.084578
0.26475,0.013,0.03725,-0.00238025,-0.00042725,0.0023345,1742093406.0978382
0.253,0.01575,0.04825,-0.00181575,0.000122000005,0.0017242499,1742093406.1120698
0.25225,0.01425,0.0625,-0.0012665,-0.0007935,-4.575e-05,1742093406.126457
0.26175,0.012,0.095,-0.002472,-0.0015565,3.0500001e-05,1742093406.140703
0.2735,0.01225,0.13025,-0.00428775,-0.00137325,0.0007935,1742093406.155125
0.29725,0.0165,0.19375,-0.00839225,0.00254825,0.0012817499,1742093406.169425
0.388,0.057,0.38875,-0.01121525,0.00567625,-0.0002595,1742093406.18464
0.449,0.04925,0.47375,-0.017700251,0.014099,-0.00225825,1742093406.1980941
0.55675,-0.078,0.591,-0.0177765,0.020782499,-0.00102225,1742093406.212498
0.5505,-0.1225,0.61775,-0.003891,0.031311,-0.000122000005,1742093406.2271092
0.39825,-0.05475,0.5965,0.0042115003,0.036331248,-0.0033875,1742093406.2414331
0.3,-0.0325,0.52475,0.011139,0.041275002,-0.00817875,1742093406.2557938
0.2085,-0.051,0.40725,0.022521999,0.042846747,-0.011795,1742093406.2701209
0.0685,-0.06225,0.10125,0.0233155,0.039322,-0.009094249,1742093406.284878
0.02875,-0.038,-0.07325,0.00738525,0.03291325,-0.00402825,1742093406.299034
-0.02025,0.03975,-0.419,0.00485225,0.03291325,-0.004303,1742093406.3142579
-0.057,0.10825,-0.5565,0.00842275,0.0226745,-0.011886501,1742093406.328044
-0.056,0.224,-0.664,0.0065612504,0.013641249,-0.018127501,1742093406.342485
-0.01225,0.23025,-0.63125,0.0037537501,-0.0046845004,-0.02882375,1742093406.35702
0.07825,0.101,-0.52525,0.0021972498,-0.00930775,-0.02943425,1742093406.371537
0.10975,0.0185,-0.4635,0.00071725,-0.0110015,-0.025314251,1742093406.386019
0.141,-0.03225,-0.38425,0.0014037499,-0.01133725,-0.008361749,1742093406.400634
0.222,-0.04575,-0.2025,0.0027465,-0.009796251,0.00059500005,1742093406.415045
0.24175,-0.03175,-0.142,0.00314325,-0.00146475,0.012680001,1742093406.4295151
0.20975,-0.01875,-0.11575,0.0027312501,0.00204475,0.014938249,1742093406.444756
0.19775,-0.0185,-0.112,0.00331125,0.0009765,0.013137749,1742093406.4583921
0.22475,-0.01125,-0.06575,0.0043944996,-0.00267025,0.009079001,1742093406.472777
0.24625,-0.009,-0.03625,0.00567625,-0.00631725,0.004486,1742093406.48723
0.26425,-0.01175,-0.0135,0.00567625,-0.007782,0.00115975,1742093406.501784
0.26025,-0.008,-0.01375,0.0045777503,-0.00671375,0.0007935,1742093406.5161989
0.24525,0.001,-0.03125,0.0048217503,-0.0048674997,-0.00343325,1742093406.530724
0.213,0.00525,-0.07425,0.0048674997,-0.00413525,-0.0050202496,1742093406.545177
0.20625,-0.00375,-0.08675,0.00292975,-0.00570675,-0.0018005001,1742093406.5598059
0.20975,-0.009,-0.091,0.00204475,-0.0074920002,0.001526,1742093406.5757198
0.218,0.00725,-0.0795,0.0017242499,-0.009323,0.0057677496,1742093406.588653
0.24125,0.03875,-0.0545,0.0020599999,-0.0088195,0.0052947504,1742093406.6044211
0.2455,0.0445,-0.0515,0.0022277501,-0.00764475,0.0041810004,1742093406.6173801
0.2285,0.0335,-0.06875,0.00112925,-0.0051574996,0.00399775,1742093406.631706
0.218,0.02275,-0.07975,-0.00086975005,-0.00411975,0.005005,1742093406.6462002
0.216,0.0165,-0.08375,-0.0034637498,-0.0047912505,0.0052337497,1742093406.660724
0.22875,0.02125,-0.06825,-0.0027465,-0.006775,0.00396725,1742093406.675166
0.23875,0.0215,-0.053,-0.00149525,-0.009597749,0.001526,1742093406.689759
0.258,0.0095,-0.02675,-0.00175475,-0.0089569995,0.0012665,1742093406.704553
0.25725,0.00525,-0.024,-0.0032347501,-0.0050202496,0.00143425,1742093406.718719
0.23875,0.00425,-0.041,-0.0045012496,-0.00325,0.00198375,1742093406.733801
0.229,0.002,-0.0495,-0.0054015,-0.00239575,0.0026245,1742093406.7476978
0.2235,0.00225,-0.05075,-0.0042572496,-0.0047455,0.001709,1742093406.76218
0.226,0.00175,-0.04425,-0.003296,-0.006668,0.000824,1742093406.776701
0.2335,-0.00125,-0.03225,-0.0028229998,-0.008377,0.000473,1742093406.791359
0.2555,-0.00975,-0.00825,-0.0029449998,-0.0077667497,0.0007325,1742093406.805931
0.256,-0.012,-0.007,-0.0029907501,-0.0048217503,0.0020752498,1742093406.820544
0.23475,-0.003,-0.02825,-0.0030669998,-0.00367725,0.00267025,1742093406.835126
0.226,0.006,-0.03825,-0.003128,-0.00463875,0.00242625,1742093406.849715
0.2245,0.01275,-0.0385,-0.0025940002,-0.00643925,0.00105275,1742093406.864213
0.2305,0.0095,-0.031,-0.0020905002,-0.009734999,-0.00061025,1742093406.8787808
0.2575,-0.0,-0.00225,-0.0024414998,-0.0101165,0.0002135,1742093406.894408
0.27175,-0.0005,0.011,-0.00305175,-0.00941475,0.00169375,1742093406.907677
0.27775,0.00175,0.01475,-0.00355525,-0.0059815003,0.00358575,1742093406.922126
0.2585,0.01175,-0.0065,-0.00331125,-0.0045777503,0.00334175,1742093406.936724
0.24625,0.0165,-0.01975,-0.002777,-0.004303,0.0013885,1742093406.951236
0.23475,0.01725,-0.0315,-0.0024414998,-0.0049285004,0.00035100002,1742093406.965732
0.2305,0.0145,-0.025,-0.002411,-0.008788999,0.00068675,1742093406.980205
0.23475,0.00675,-0.0125,-0.00354,-0.009277251,0.0020295,1742093406.9947011
0.243,0.008,-0.003,-0.0043944996,-0.006073,0.003006,1742093407.009197
0.2375,0.0125,-0.0125,-0.00396725,-0.0049590003,0.00216675,1742093407.023749
0.23125,0.01425,-0.02275,-0.00355525,-0.0042725,0.0008545,1742093407.038239
0.2275,0.017,-0.0285,-0.00314325,-0.00399775,-0.0013885,1742093407.05458
0.233,0.0125,-0.0305,-0.00331125,-0.0041044997,-0.00083925005,1742093407.067252
0.2415,0.006,-0.0225,-0.0040435,-0.003952,0.0037385002,1742093407.081693
0.2605,0.007,-0.00075,-0.0043182503,-0.0056609996,0.00564575,1742093407.096216
0.26675,0.01475,0.0025,-0.00254825,-0.0075072497,0.0044250004,1742093407.1106281
0.26825,0.0395,0.001,-0.0020599999,-0.005844,0.00177,1742093407.1249568
0.257,0.0435,-0.0035,-0.0028535,-0.0033875,-0.00254825,1742093407.139529
0.24,0.02225,-0.001,-0.003418,-0.0038605002,-0.003128,1742093407.154367
0.242,0.0025,0.01175,-0.0041044997,-0.00488275,-0.001953,1742093407.1684768
0.248,-0.011,0.02825,-0.0046845004,-0.00561525,0.00390625,1742093407.184103
0.259,-0.0035,0.0595,-0.0031889998,-0.0047912505,0.00466925,1742093407.1975
0.2575,0.01,0.076,0.0012970001,-0.00355525,0.00027475,1742093407.211742
0.25525,0.0235,0.12375,0.001007,-0.00390625,-0.0016632499,1742093407.226058
0.2655,0.017,0.1645,-0.0061035,-0.0042267498,0.0025940002,1742093407.240392
0.29825,-0.0015,0.30025,-0.008209251,-0.00367725,0.00596625,1742093407.2551758
0.33175,-0.0125,0.4125,-0.00419625,-0.002777,0.0049285004,1742093407.269485
0.44425,-0.064,0.68575,-0.001068,-0.0008545,0.00083925005,1742093407.284651
0.50475,-0.10725,0.79875,0.001068,0.0034942501,-0.0037537501,1742093407.298368
0.51575,-0.14075,0.866,0.0070037497,0.016922,-0.00541675,1742093407.314195
0.326,-0.1005,0.795,0.0099945,0.024810748,-0.0029449998,1742093407.327092
0.208,-0.062,0.66375,0.01156625,0.036026,0.00125125,1742093407.341426
0.076,-0.0485,0.2395,0.011016751,0.036300752,0.0016175,1742093407.3557062
0.0855,-0.03525,-0.043,-0.000946,0.029663,-0.00112925,1742093407.3702998
0.09725,0.11725,-0.5365,-0.00065625,0.02943425,-0.0057525,1742093407.384771
0.08525,0.1735,-0.6465,0.00190725,0.032333247,-0.011673001,1742093407.399085
0.06175,0.22175,-0.68425,0.00546275,0.02545175,-0.02607725,1742093407.41434
0.0695,0.226,-0.666,0.00637825,0.01741025,-0.030639749,1742093407.427904
0.06825,0.201,-0.64075,0.000122000005,0.009613,-0.022461,1742093407.442366
0.05275,0.086,-0.5425,-0.00270075,0.0086975,-0.015442001,1742093407.4569159
0.0715,0.0265,-0.458,6.1000002e-05,0.0014037499,-0.00738525,1742093407.4713652
0.153,-0.05625,-0.2525,0.0023039998,-0.0030975002,-0.00485225,1742093407.486393
0.19175,-0.07375,-0.159,0.002411,-0.0057677496,0.0022125002,1742093407.500193
0.2295,-0.08825,-0.0555,0.00148,-0.0033722501,0.005844,1742093407.5147579
0.231,-0.093,-0.04,0.00175475,-0.00035100002,0.008224499,1742093407.529205
0.228,-0.088,-0.034,0.006546,0.0003815,0.004776,1742093407.5447848
0.24675,-0.03025,-0.0275,0.008484,-0.00181575,0.00131225,1742093407.5579698
0.26575,-0.004,-0.01825,0.00842275,-0.0051880004,-0.00086975005,1742093407.5725079
0.2745,0.0275,-0.02,0.00801075,-0.00543225,-0.00149525,1742093407.586942
0.2635,0.03825,-0.039,0.0068665,-0.002655,-0.0045012496,1742093407.601441
0.24725,0.035,-0.06875,0.0054780003,-0.00057975,-0.0049590003,1742093407.615894
0.24325,0.0245,-0.07,0.00328075,0.00051875,-0.0019685,1742093407.630313
0.23475,0.005,-0.05725,0.0023497501,0.0002135,0.00065625,1742093407.644618
0.2305,0.00025,-0.05375,0.00112925,3.0500001e-05,0.0031889998,1742093407.6588118
0.224,-0.001,-0.055,-0.0002595,-0.0013580001,0.00579825,1742093407.6733482
0.21825,0.004,-0.05675,7.625e-05,-0.0027160002,0.0057677496,1742093407.687606
0.2215,0.0065,-0.0545,0.00051875,-0.00453175,0.00466925,1742093407.7019432
0.23275,0.00625,-0.0485,-0.00045775,-0.00453175,0.004074,1742093407.716449
0.2385,0.003,-0.0455,-0.0015105,-0.0045165,0.0025940002,1742093407.7308931
0.2505,-0.01125,-0.03525,-0.0012055,-0.0047302498,0.00181575,1742093407.745535
0.254,-0.02075,-0.03225,-0.000763,-0.0047150003,0.0013275,1742093407.7600331
0.245,-0.0285,-0.0365,-0.00013725001,-0.00340275,0.0019989999,1742093407.775896
0.2395,-0.02475,-0.04125,7.625e-05,-0.002777,0.00242625,1742093407.78899
0.23375,-0.01525,-0.0455,0.00027475,-0.0023345,0.00177,1742093407.8044312
0.225,0.017,-0.051,-0.00036625,-0.00245675,0.0009765,1742093407.817913
0.223,0.01925,-0.05,-0.0023497501,-0.0029449998,-0.000534,1742093407.8340511
0.22025,-0.006,-0.04675,-0.0028687501,-0.0032347501,-0.0009765,1742093407.8471181
0.221,-0.01725,-0.045,-0.0024414998,-0.0041044997,-0.00030525,1742093407.861778
0.23225,-0.02,-0.038,-0.00157175,-0.004593,0.0001525,1742093407.876235
0.23925,-0.01175,-0.0345,0.0005035,-0.0047912505,-0.00057975,1742093407.890817
0.238,0.02025,-0.04,0.00057975,-0.004776,-0.00108325,1742093407.905201
0.2365,0.03,-0.04225,-0.00051875,-0.0046845004,-0.00067150005,1742093407.9197912
0.23575,0.0275,-0.04175,-0.00399775,-0.003952,0.0014495,1742093407.93423
0.229,0.0055,-0.04325,-0.0047455,-0.00369275,0.001709,1742093407.948705
0.227,-0.00275,-0.04475,-0.00381475,-0.00460825,0.0013580001,1742093407.964546
0.2405,-0.009,-0.03025,-0.0026245,-0.0054932497,0.001175,1742093407.9777899
0.2555,-0.00525,-0.018,0.00013725001,-0.00617975,-0.00096125,1742093407.992332
0.26975,0.003,-0.00425,0.000534,-0.0052947504,-0.0017242499,1742093408.006728
0.2645,0.00275,-0.00775,-0.0016175,-0.0021057501,0.0009765,1742093408.021219
0.23925,0.00175,-0.0275,-0.0031585,-0.000885,0.0032347501,1742093408.035736
0.2345,0.00125,-0.028,-0.00390625,-0.00033575002,0.0048065,1742093408.050173
0.2335,0.001,-0.02175,-0.00137325,-0.0055237496,0.00325,1742093408.064676
0.25025,0.001,-0.00825,0.0,-0.0084379995,0.0003205,1742093408.079038
0.266,0.0025,0.009,0.0013885,-0.00846875,-0.004303,1742093408.0940092
0.2775,-0.0015,0.0255,0.00108325,-0.00697325,-0.00428775,1742093408.107858
0.2705,-0.0075,0.02025,-0.0012817499,-0.0024414998,-0.00045775,1742093408.122477
0.25125,-0.01575,0.001,-0.00193775,-0.00045775,0.0016175,1742093408.13696
0.2425,-0.0145,-0.00575,-0.001236,-4.575e-05,0.00328075,1742093408.1515121
0.242,-0.0035,0.00025,-0.00061025,-0.00108325,0.00320425,1742093408.165982
0.25225,0.00625,0.009,-0.0005035,-0.00245675,0.0028229998,1742093408.180335
0.2635,0.0145,0.015,-0.0012817499,-0.00317375,0.00160225,1742093408.1945999
0.27225,0.01725,0.014,-0.0012207499,-0.001587,0.00077825,1742093408.208946
0.2685,0.01375,0.013,-0.00068675,0.00154125,-0.00042725,1742093408.225164
0.254,0.00275,0.00625,-0.00125125,0.001007,-0.00048825,1742093408.237744
0.2495,-0.002,0.00125,-0.0014495,-0.0010375,-0.00074775,1742093408.252291
0.25075,0.0,-0.003,-0.0010375,-0.0013885,-0.001175,1742093408.266784
0.254,0.003,-0.001,-0.00068675,-0.00143425,-0.00148,1742093408.281302
0.26,0.00325,0.0075,-0.0005645,-0.00105275,-0.0014037499,1742093408.2957199
0.26275,0.00225,0.011,-0.00077825,-0.00064075,-0.001175,1742093408.3101718
0.26275,-0.0,0.0105,-0.00051875,0.00105275,-0.0013427499,1742093408.324922
0.25225,-0.00425,0.00175,-0.00010675,0.0017852499,-0.00146475,1742093408.339107
0.2475,-0.00625,-0.00075,0.000122000005,0.0015105,-0.00051875,1742093408.354368
0.24675,-0.00875,0.0045,0.00027475,0.00061025,-1.5250001e-05,1742093408.3678248
0.24725,-0.01075,0.00825,0.00112925,-0.00027475,-0.00036625,1742093408.382375
0.25,-0.01,0.01175,0.0012970001,1.5250001e-05,-0.0005035,1742093408.3967721
0.25175,-0.0055,0.01325,0.0011445,0.00030525,-0.0005035,1742093408.4111328
0.25,-0.00425,0.014,0.001236,0.00086975005,-0.00077825,1742093408.4255319
