acc_x,acc_y,acc_z,gyro_x,gyro_y,gyro_z,timestamp
0.01075,0.2435,0.0025,0.000412,0.000229,-0.00077825,1742093358.4949582
0.01025,0.242,0.00175,0.00039675,0.00027475,-0.00067150005,1742093358.50938
0.01125,0.24775,0.00225,0.0004425,0.00029,-0.00070200005,1742093358.524283
0.01075,0.24825,0.002,0.00036625,0.0002595,-0.00083925005,1742093358.537842
0.01325,0.2385,0.00025,0.00024425,0.00013725001,-0.00054925,1742093358.552267
0.01325,0.239,0.0005,0.00062550005,0.00016775,-0.00039675,1742093358.567136
0.00975,0.249,0.0035,0.00077825,0.00016775,-0.00057975,1742093358.580983
0.01,0.248,0.00425,0.00065625,0.00010675,-0.00068675,1742093358.595268
0.01125,0.24375,0.00375,0.00013725001,-1.5250001e-05,-0.0004425,1742093358.609785
0.01175,0.24325,0.00325,7.625e-05,1.5250001e-05,-0.00039675,1742093358.6249769
0.01125,0.246,0.0035,6.1000002e-05,3.0500001e-05,-0.00064075,1742093358.638378
0.0135,0.244,0.00275,-7.625e-05,-4.575e-05,-0.00062550005,1742093358.654138
0.01475,0.24175,0.0025,-0.000183,4.575e-05,-0.00048825,1742093358.667169
0.01325,0.24425,0.00225,-0.00010675,0.00019825,-0.000534,1742093358.681648
0.0125,0.24625,0.00175,-6.1000002e-05,0.00029,-0.00062550005,1742093358.69594
0.01225,0.24575,0.00125,-7.625e-05,0.000229,-0.00057975,1742093358.710371
0.01325,0.24225,0.00075,-4.575e-05,0.0002135,-0.000534,1742093358.725078
0.013,0.24275,0.00075,0.00024425,0.000229,-0.00057975,1742093358.738973
0.0125,0.245,0.00225,0.00035100002,0.0002135,-0.00061025,1742093358.754208
0.013,0.24425,0.003,0.00035100002,0.0002135,-0.00051875,1742093358.767811
0.01375,0.244,0.00375,0.00029,0.00024425,-0.00045775,1742093358.782079
0.0135,0.2445,0.00375,0.000229,0.0002595,-0.00042725,1742093358.796373
0.0135,0.2445,0.003,0.00013725001,0.0003205,-0.00039675,1742093358.8106859
0.0135,0.243,0.00175,0.00016775,0.0003205,-0.00036625,1742093358.8249412
0.01325,0.24375,0.0025,0.00033575002,0.00029,-0.00036625,1742093358.839277
0.01375,0.24475,0.0035,0.00029,0.00029,-0.0003815,1742093358.854201
0.0145,0.24375,0.003,3.0500001e-05,0.00024425,-0.0002595,1742093358.867852
0.0145,0.24325,0.00225,0.0,0.0002135,-0.00024425,1742093358.882159
0.01375,0.24425,0.00225,3.0500001e-05,0.0002135,-0.00030525,1742093358.8964648
0.0135,0.2445,0.002,0.00010675,0.00016775,-0.00042725,1742093358.910757
0.014,0.243,0.00175,0.00016775,9.15e-05,-0.0003815,1742093358.925199
0.01425,0.24325,0.0025,0.00030525,1.5250001e-05,-0.00027475,1742093358.939341
0.01425,0.24525,0.004,0.00024425,4.575e-05,-0.00029,1742093358.9540339
0.0145,0.245,0.004,-7.625e-05,0.000183,-0.00027475,1742093358.968019
0.01475,0.243,0.00275,-0.000183,0.000183,-0.00029,1742093358.9823492
0.0145,0.24325,0.0025,-0.00016775,0.0001525,-0.0003205,1742093358.996741
0.01425,0.244,0.00225,-3.0500001e-05,0.0001525,-0.00033575002,1742093359.0112598
0.01475,0.244,0.00275,0.0,0.0001525,-0.00030525,1742093359.025537
0.01525,0.2435,0.00275,-1.5250001e-05,0.000183,-0.0002135,1742093359.0398421
0.015,0.24325,0.0025,-1.5250001e-05,0.00019825,-0.000183,1742093359.054239
0.0145,0.2435,0.00225,4.575e-05,0.00016775,-0.000229,1742093359.0685499
0.01475,0.24375,0.00225,9.15e-05,0.0001525,-0.0002595,1742093359.082819
0.015,0.244,0.00225,0.00016775,0.00013725001,-0.00024425,1742093359.0972438
0.01525,0.244,0.0025,0.00027475,0.000122000005,-0.00013725001,1742093359.111563
0.015,0.2445,0.00375,0.0002595,0.00013725001,-0.00010675,1742093359.125844
0.01475,0.2445,0.00425,4.575e-05,0.00019825,-7.625e-05,1742093359.140189
0.01475,0.2445,0.00375,-9.15e-05,0.00024425,-6.1000002e-05,1742093359.1545348
0.0145,0.24425,0.00275,-0.0002135,0.00029,-0.00019825,1742093359.168951
0.01475,0.24375,0.00225,-0.0002135,0.0002595,-0.00027475,1742093359.18375
0.015,0.24375,0.00225,-0.00016775,0.0002135,-0.0003205,1742093359.1977012
0.016,0.244,0.00275,-1.5250001e-05,0.000183,-0.00033575002,1742093359.2120728
0.01625,0.24425,0.00325,1.5250001e-05,0.0002135,-0.00029,1742093359.22635
0.016,0.2445,0.00375,-0.00013725001,0.00024425,-0.000183,1742093359.2407281
0.0155,0.244,0.00325,-0.000229,0.00024425,-0.000122000005,1742093359.255063
0.015,0.24375,0.00275,-0.00029,0.0002135,-9.15e-05,1742093359.2694368
0.01425,0.244,0.00225,-0.00029,0.000183,-0.000122000005,1742093359.284221
0.0145,0.2445,0.0025,-0.0002595,0.0001525,-0.000122000005,1742093359.298235
0.0145,0.2455,0.003,-0.0003205,0.00013725001,-0.00010675,1742093359.31371
0.014,0.246,0.00375,-0.00045775,0.00010675,-0.00016775,1742093359.326947
0.0145,0.24575,0.0045,-0.000885,0.00010675,-0.0003205,1742093359.341385
0.01625,0.24425,0.00375,-0.0011445,0.00013725001,-0.00035100002,1742093359.3557398
0.0165,0.2435,0.0025,-0.00143425,0.00027475,-0.00024425,1742093359.370152
0.0165,0.24175,-0.0,-0.001419,0.00035100002,-0.00016775,1742093359.384566
0.01575,0.242,-0.001,-0.00109875,0.00042725,-7.625e-05,1742093359.399051
0.01425,0.2435,-0.0015,-0.00093075,0.00045775,-7.625e-05,1742093359.4139771
0.01475,0.24275,-0.00175,-0.00074775,0.000412,-6.1000002e-05,1742093359.428065
0.01575,0.242,-0.00125,-0.00035100002,0.0002135,-9.15e-05,1742093359.443729
0.018,0.244,0.00125,-0.00019825,0.0002135,-0.00010675,1742093359.457076
0.01825,0.24575,0.00275,-0.00030525,0.0003205,6.1000002e-05,1742093359.4713678
0.015,0.243,0.00075,-0.0005035,0.00033575002,0.000229,1742093359.485656
0.01525,0.24075,-0.00125,-0.000412,0.000412,0.00036625,1742093359.4999301
0.01375,0.2445,-0.0015,-0.000122000005,0.00039675,0.00035100002,1742093359.514355
0.0135,0.24625,-0.0005,3.0500001e-05,0.0002595,0.00030525,1742093359.528687
0.0155,0.24375,-0.00175,3.0500001e-05,0.0002135,0.000412,1742093359.543895
0.015,0.243,-0.00225,0.00016775,0.00016775,0.00059500005,1742093359.557269
0.01425,0.2425,-0.0015,0.00064075,-9.15e-05,0.0009155,1742093359.571668
0.0145,0.24325,0.00025,0.000763,-0.00013725001,0.00093075,1742093359.585962
0.01475,0.24425,0.00075,0.00071725,-7.625e-05,0.00099175,1742093359.60022
0.0155,0.2445,0.00025,0.00062550005,-0.000122000005,0.0011445,1742093359.614547
0.01625,0.2445,0.001,0.00048825,-0.00024425,0.00163275,1742093359.628769
0.014,0.24425,0.00075,0.000412,-0.00027475,0.001892,1742093359.64391
0.01125,0.24375,-0.00025,0.0003205,-0.00035100002,0.0021515,1742093359.6574662
0.008,0.24475,-0.001,0.00019825,-0.00080875,0.002411,1742093359.671832
0.00475,0.24875,0.001,4.575e-05,-0.001175,0.00238025,1742093359.686257
0.0065,0.24725,0.002,-0.00048825,-0.0017852499,0.002243,1742093359.700761
0.01175,0.24025,0.00075,-0.00070200005,-0.0019225,0.00228875,1742093359.715227
0.01325,0.24,0.0005,-0.00067150005,-0.00177,0.0024414998,1742093359.7295911
0.01175,0.2475,0.00375,-0.00059500005,-0.00148,0.00231925,1742093359.744027
0.01,0.249,0.004,-0.00062550005,-0.00109875,0.00201425,1742093359.758337
0.00825,0.24775,0.00225,-0.00083925005,-0.00054925,0.00154125,1742093359.7727659
0.007,0.24725,0.00075,-0.000885,-0.000473,0.001419,1742093359.787167
0.00625,0.2475,0.00025,-0.0007935,-0.00033575002,0.00083925005,1742093359.8016498
0.007,0.24525,-0.001,-0.00071725,-0.00030525,0.00054925,1742093359.816261
0.0075,0.245,-0.00125,-0.00036625,-0.00033575002,0.00027475,1742093359.830728
0.0075,0.2465,-0.00025,-0.00019825,-0.00035100002,0.000183,1742093359.845222
0.0075,0.24725,0.00075,-0.00016775,-0.0002595,-0.00010675,1742093359.8598778
0.00775,0.24775,0.001,-0.00024425,-0.00013725001,-0.00036625,1742093359.87495
0.0075,0.24575,0.0,-0.00033575002,-3.0500001e-05,-0.00059500005,1742093359.88875
0.0075,0.24325,-0.001,-0.00039675,4.575e-05,-0.0007325,1742093359.903892
0.0075,0.23925,-0.003,-0.00027475,3.0500001e-05,-0.00070200005,1742093359.9178371
0.007,0.23925,-0.0025,-6.1000002e-05,-1.5250001e-05,-0.000473,1742093359.93227
0.0075,0.242,-0.0005,-0.00010675,-1.5250001e-05,-0.0003205,1742093359.94693
0.0075,0.242,-0.00075,-0.0003205,6.1000002e-05,-0.0003205,1742093359.96158
0.007,0.24,-0.0025,-0.00035100002,4.575e-05,-0.00033575002,1742093359.976083
0.0075,0.23975,-0.00225,-0.00042725,0.0,-0.00019825,1742093359.990531
0.008,0.24,-0.00175,-0.0005035,4.575e-05,-9.15e-05,1742093360.004958
0.0085,0.23925,-0.0025,-0.0005645,9.15e-05,6.1000002e-05,1742093360.019382
0.00875,0.239,-0.0035,-0.0005035,7.625e-05,0.0004425,1742093360.033771
0.00875,0.241,-0.004,-0.0004425,6.1000002e-05,0.00061025,1742093360.0480351
0.00925,0.242,-0.0035,-0.00057975,4.575e-05,0.000946,1742093360.06254
0.00875,0.24125,-0.0045,-0.00074775,0.00010675,0.001114,1742093360.076967
0.00825,0.2405,-0.0065,-0.00068675,0.0002595,0.0012055,1742093360.091373
0.0055,0.2425,-0.007,-0.000473,0.00024425,0.00119025,1742093360.105719
0.00475,0.2455,-0.00475,-0.00036625,0.00010675,0.00109875,1742093360.1201348
0.00525,0.249,-0.00225,-0.00059500005,7.625e-05,0.000946,1742093360.134541
0.006,0.249,-0.00225,-0.00086975005,0.00010675,0.000763,1742093360.148884
0.007,0.24825,-0.002,-0.001175,0.00016775,0.000412,1742093360.164128
0.0075,0.2465,-0.002,-0.00115975,0.000229,0.00024425,1742093360.177631
0.00725,0.24575,-0.00175,-0.001114,0.0003815,-6.1000002e-05,1742093360.192257
0.00675,0.2445,-0.002,-0.001114,0.000473,-0.00013725001,1742093360.2067149
0.006,0.2445,-0.00275,-0.00109875,0.00057975,-0.000183,1742093360.2212238
0.003,0.2455,-0.003,-0.00109875,0.00057975,-0.00019825,1742093360.235724
0.00325,0.2465,-0.0025,-0.00108325,0.00057975,-0.00024425,1742093360.250209
0.00525,0.24525,-0.004,-0.001068,0.0007935,-0.0005645,1742093360.264819
0.00575,0.243,-0.00575,-0.0010375,0.00090025004,-0.00059500005,1742093360.279319
0.006,0.242,-0.00675,-0.00074775,0.0008545,-0.000412,1742093360.2941399
0.00775,0.24675,-0.00325,-0.00064075,0.00086975005,-0.00042725,1742093360.308337
0.00775,0.24875,-0.00125,-0.00109875,0.001236,-0.00086975005,1742093360.32283
0.00725,0.24225,-0.007,-0.0013885,0.00143425,-0.00099175,1742093360.33723
0.007,0.23925,-0.0105,-0.0012207499,0.0013275,-0.000534,1742093360.351976
0.00575,0.2415,-0.0115,-0.00083925005,0.00115975,-0.00027475,1742093360.366424
0.00475,0.24425,-0.01075,-0.00019825,0.00070200005,-0.000183,1742093360.380901
0.005,0.246,-0.01,1.5250001e-05,0.00036625,-0.0002595,1742093360.395325
0.006,0.24625,-0.008,0.0001525,0.000122000005,-0.00036625,1742093360.409747
0.00725,0.2465,-0.006,4.575e-05,-4.575e-05,-0.0005645,1742093360.4253728
0.009,0.2435,-0.006,-0.000122000005,-6.1000002e-05,-0.00051875,1742093360.4388192
0.0095,0.242,-0.00725,-0.00010675,-0.00019825,-0.00016775,1742093360.454369
0.00775,0.2435,-0.00875,3.0500001e-05,-0.00027475,-1.5250001e-05,1742093360.467825
0.0065,0.24425,-0.00875,0.0001525,-0.00027475,-7.625e-05,1742093360.482202
0.00575,0.243,-0.0095,0.0002135,-0.0002595,-0.00013725001,1742093360.4967139
0.006,0.2435,-0.00875,0.00045775,-0.0003205,-0.0002135,1742093360.5112262
0.00625,0.247,-0.00475,0.00039675,-0.00030525,-0.0003205,1742093360.525729
0.007,0.24525,-0.00525,0.00019825,-0.00027475,-0.00039675,1742093360.540307
0.008,0.243,-0.00625,-3.0500001e-05,-0.00019825,-0.0003205,1742093360.5547898
0.008,0.24325,-0.007,-3.0500001e-05,-0.000122000005,-0.00027475,1742093360.569349
0.00775,0.244,-0.00725,-3.0500001e-05,-9.15e-05,-0.00024425,1742093360.584147
0.00775,0.24525,-0.0065,-6.1000002e-05,-0.00013725001,-0.00024425,1742093360.598517
0.008,0.245,-0.0065,-0.00024425,-0.0001525,-0.00036625,1742093360.6138859
0.00775,0.2435,-0.0075,-0.00027475,-0.0001525,-0.00036625,1742093360.62764
0.0075,0.2435,-0.00775,-0.00019825,-0.0001525,-0.00033575002,1742093360.6421518
0.00675,0.244,-0.00775,-0.00013725001,-0.00013725001,-0.00033575002,1742093360.656608
0.00725,0.24475,-0.00725,-0.000122000005,-0.000122000005,-0.00035100002,1742093360.671157
0.00875,0.24375,-0.00725,-0.000229,-0.00013725001,-0.0003205,1742093360.685642
0.00975,0.24275,-0.0075,-0.00029,-0.00013725001,-0.00024425,1742093360.700143
0.0095,0.24325,-0.0075,-0.0003205,-3.0500001e-05,-0.0002135,1742093360.714614
0.008,0.24525,-0.00725,-0.00035100002,4.575e-05,-0.00019825,1742093360.728986
0.008,0.24475,-0.0075,-0.0004425,9.15e-05,-0.00019825,1742093360.744102
0.008,0.24325,-0.009,-0.00039675,0.00010675,-0.00019825,1742093360.7580469
0.00775,0.24375,-0.009,-0.00019825,7.625e-05,-0.00013725001,1742093360.772508
0.008,0.24425,-0.0085,-0.000122000005,4.575e-05,-0.000122000005,1742093360.787033
0.00875,0.244,-0.00825,-7.625e-05,0.0,-0.000122000005,1742093360.801574
0.00875,0.243,-0.00875,-1.5250001e-05,1.5250001e-05,-7.625e-05,1742093360.815962
0.00825,0.2435,-0.009,4.575e-05,1.5250001e-05,-6.1000002e-05,1742093360.8303611
0.008,0.24475,-0.0085,7.625e-05,-9.15e-05,-0.00010675,1742093360.844876
0.00825,0.24575,-0.00675,-3.0500001e-05,-0.00010675,-0.00019825,1742093360.8594172
0.0085,0.24425,-0.00775,-0.00030525,-9.15e-05,-0.00024425,1742093360.874015
0.008,0.2415,-0.01025,-0.0002595,-0.00013725001,-0.00016775,1742093360.888617
0.00775,0.24175,-0.01075,0.00016775,-0.00027475,-1.5250001e-05,1742093360.903991
0.0075,0.2435,-0.01,0.00039675,-0.00035100002,0.0,1742093360.917391
0.00775,0.24475,-0.00875,0.00062550005,-0.00048825,-9.15e-05,1742093360.931875
0.00875,0.245,-0.00675,0.00059500005,-0.000473,-0.0001525,1742093360.946403
0.009,0.245,-0.0065,0.00048825,-0.00042725,-0.00016775,1742093360.9608839
0.00925,0.24425,-0.00675,0.0002595,-0.0003815,-0.000122000005,1742093360.9756658
0.009,0.2435,-0.00775,0.000229,-0.0003815,-7.625e-05,1742093360.989899
0.009,0.24375,-0.00775,0.00024425,-0.00036625,-3.0500001e-05,1742093361.004426
0.0085,0.24375,-0.008,0.00024425,-0.00035100002,-4.575e-05,1742093361.018924
0.00875,0.244,-0.00775,0.0002135,-0.00036625,-9.15e-05,1742093361.034271
0.00825,0.2445,-0.007,0.000183,-0.00039675,-0.00010675,1742093361.047924
0.0085,0.24525,-0.00625,0.000122000005,-0.00036625,-6.1000002e-05,1742093361.0624151
0.009,0.24475,-0.00625,3.0500001e-05,-0.00029,-7.625e-05,1742093361.076917
0.009,0.24375,-0.00725,-6.1000002e-05,-0.0002135,-6.1000002e-05,1742093361.0914931
0.00875,0.244,-0.00775,-3.0500001e-05,-0.0002135,-4.575e-05,1742093361.10604
0.0085,0.2435,-0.00825,3.0500001e-05,-0.00019825,-9.15e-05,1742093361.1205142
0.0085,0.243,-0.00825,0.00024425,-0.000183,-9.15e-05,1742093361.134984
0.0085,0.244,-0.0075,0.0003205,-0.00016775,-0.00010675,1742093361.149481
0.009,0.24425,-0.007,0.00030525,-0.00016775,-0.00010675,1742093361.164029
0.00975,0.24525,-0.0055,0.00019825,-0.00013725001,-0.000122000005,1742093361.1784902
0.0095,0.24425,-0.006,-7.625e-05,-6.1000002e-05,-7.625e-05,1742093361.193661
0.0085,0.2435,-0.008,-9.15e-05,-3.0500001e-05,0.0,1742093361.207432
0.0075,0.2445,-0.00775,-4.575e-05,1.5250001e-05,3.0500001e-05,1742093361.221827
0.007,0.24475,-0.008,7.625e-05,0.0,-3.0500001e-05,1742093361.2362099
0.0085,0.24375,-0.0075,0.00013725001,-3.0500001e-05,-0.00010675,1742093361.25102
0.009,0.24375,-0.007,0.00016775,-1.5250001e-05,-0.00010675,1742093361.265488
0.0095,0.2445,-0.006,0.000122000005,0.0,-6.1000002e-05,1742093361.279876
0.00925,0.24475,-0.006,-9.15e-05,-1.5250001e-05,4.575e-05,1742093361.2943869
0.00925,0.24375,-0.007,-0.000183,3.0500001e-05,6.1000002e-05,1742093361.308779
0.00875,0.2435,-0.00775,-0.00016775,7.625e-05,7.625e-05,1742093361.323114
0.00775,0.244,-0.00825,-6.1000002e-05,7.625e-05,1.5250001e-05,1742093361.3376052
0.00775,0.24375,-0.0085,3.0500001e-05,4.575e-05,-0.00010675,1742093361.3519318
0.00825,0.24375,-0.008,0.000122000005,-1.5250001e-05,-0.00019825,1742093361.3664231
0.009,0.24475,-0.00625,0.000122000005,-1.5250001e-05,-0.000183,1742093361.3808918
0.00875,0.24525,-0.005,-1.5250001e-05,-3.0500001e-05,-0.00013725001,1742093361.395499
0.00825,0.24625,-0.00425,-0.00013725001,0.0,-0.000183,1742093361.410035
0.008,0.2455,-0.005,-0.00042725,0.00016775,-0.00033575002,1742093361.425288
0.0075,0.245,-0.0055,-0.00048825,0.00033575002,-0.00039675,1742093361.439008
0.00725,0.24625,-0.00475,-0.00068675,0.00059500005,-0.0005035,1742093361.454127
0.00875,0.244,-0.007,-0.00090025004,0.00074775,-0.00061025,1742093361.468006
0.01,0.2415,-0.00925,-0.00105275,0.00083925005,-0.00067150005,1742093361.482496
0.01075,0.24175,-0.0095,-0.00115975,0.00090025004,-0.00065625,1742093361.496903
0.0105,0.246,-0.00775,-0.0012207499,0.0010375,-0.00074775,1742093361.511436
0.0105,0.2455,-0.00825,-0.00154125,0.001175,-0.00074775,1742093361.525892
0.01175,0.2425,-0.01,-0.0015565,0.001236,-0.00074775,1742093361.540468
0.011,0.24175,-0.01175,-0.00131225,0.00109875,-0.00061025,1742093361.554956
0.00925,0.24225,-0.01275,-0.00109875,0.00086975005,-0.0004425,1742093361.569441
0.00875,0.24275,-0.0125,-0.0004425,0.00059500005,-0.0004425,1742093361.583864
0.0095,0.24375,-0.0115,-7.625e-05,0.00048825,-0.0004425,1742093361.598578
0.01,0.24475,-0.01025,0.00016775,0.00039675,-0.000412,1742093361.6134982
0.01,0.245,-0.00975,6.1000002e-05,0.00036625,-0.00035100002,1742093361.627508
0.011,0.241,-0.0125,-4.575e-05,0.0003205,-0.0002595,1742093361.6420429
0.01125,0.2395,-0.01425,0.0002595,9.15e-05,3.0500001e-05,1742093361.65647
0.01125,0.242,-0.01275,0.00054925,-3.0500001e-05,0.0001525,1742093361.670836
0.0115,0.2445,-0.0105,0.000885,-4.575e-05,0.0002595,1742093361.685208
0.011,0.24525,-0.0085,0.000885,4.575e-05,0.0002135,1742093361.699508
0.011,0.2435,-0.00925,0.0007935,0.000229,0.00010675,1742093361.71385
0.00975,0.2425,-0.01025,0.0007935,0.00027475,9.15e-05,1742093361.728266
0.009,0.2435,-0.01,0.00077825,0.000229,0.00010675,1742093361.742562
0.0085,0.24425,-0.00975,0.00077825,3.0500001e-05,0.0002135,1742093361.756825
0.00925,0.24475,-0.00925,0.000763,-3.0500001e-05,0.00019825,1742093361.7712388
0.00975,0.2445,-0.009,0.000534,-0.00010675,0.00013725001,1742093361.785632
0.0105,0.244,-0.009,0.00039675,-0.0001525,0.000122000005,1742093361.799938
0.0105,0.244,-0.009,0.00016775,-0.00024425,6.1000002e-05,1742093361.814343
0.01,0.2435,-0.00925,0.00013725001,-0.00029,4.575e-05,1742093361.828713
0.01,0.24325,-0.00925,0.000183,-0.00030525,7.625e-05,1742093361.84393
0.01,0.24325,-0.00925,0.00036625,-0.00030525,0.0001525,1742093361.8575501
0.00975,0.24525,-0.00775,0.0003815,-0.00024425,0.00010675,1742093361.871901
0.00925,0.24575,-0.00725,0.000122000005,-0.00016775,-7.625e-05,1742093361.886333
0.00975,0.24275,-0.0085,-1.5250001e-05,-0.000183,-0.00010675,1742093361.900811
0.01025,0.24175,-0.009,-4.575e-05,-0.00016775,-6.1000002e-05,1742093361.915338
0.00975,0.24325,-0.00875,1.5250001e-05,-0.00013725001,0.0,1742093361.929739
0.0095,0.2445,-0.0085,0.00010675,-0.000122000005,6.1000002e-05,1742093361.944106
0.0095,0.24425,-0.0085,0.00029,-0.000122000005,9.15e-05,1742093361.958385
0.00925,0.244,-0.0085,0.00033575002,-0.00010675,9.15e-05,1742093361.972804
0.00925,0.2445,-0.00825,0.00029,-9.15e-05,1.5250001e-05,1742093361.987238
0.009,0.245,-0.00775,0.00019825,-7.625e-05,-4.575e-05,1742093362.001699
0.0095,0.24425,-0.00775,1.5250001e-05,-4.575e-05,-0.00010675,1742093362.016135
0.01,0.2435,-0.008,0.0,-1.5250001e-05,-0.000122000005,1742093362.030516
0.0095,0.2435,-0.0085,9.15e-05,-1.5250001e-05,-0.00010675,1742093362.045053
0.00875,0.24425,-0.008,0.00010675,-3.0500001e-05,-0.00010675,1742093362.0594292
0.0085,0.2445,-0.008,7.625e-05,-3.0500001e-05,-0.00016775,1742093362.0749178
0.00875,0.2445,-0.00825,0.0,-7.625e-05,-0.00029,1742093362.0883992
0.00975,0.244,-0.008,-1.5250001e-05,-0.00010675,-0.00029,1742093362.1039412
0.01025,0.2435,-0.0085,3.0500001e-05,-0.0001525,-0.00016775,1742093362.117583
0.0105,0.24325,-0.009,9.15e-05,-0.0001525,-0.00013725001,1742093362.1320121
0.01,0.24325,-0.009,0.000183,-0.000122000005,-0.000122000005,1742093362.146658
0.009,0.244,-0.00875,0.0002135,-0.00010675,-0.00013725001,1742093362.161025
0.009,0.2445,-0.00825,0.0002595,-9.15e-05,-0.00019825,1742093362.175654
0.00975,0.24475,-0.00725,0.0002595,-9.15e-05,-0.00024425,1742093362.190059
0.0105,0.2445,-0.00675,0.00019825,-9.15e-05,-0.00024425,1742093362.204461
0.01125,0.244,-0.007,4.575e-05,-6.1000002e-05,-0.00019825,1742093362.218938
0.01075,0.24375,-0.00775,1.5250001e-05,-6.1000002e-05,-0.000183,1742093362.234169
0.01025,0.24375,-0.008,1.5250001e-05,-6.1000002e-05,-0.00016775,1742093362.2478771
0.01,0.2435,-0.009,3.0500001e-05,-9.15e-05,-0.0001525,1742093362.262399
0.01025,0.24425,-0.0085,0.00010675,-0.000122000005,-0.0001525,1742093362.277046
0.01025,0.2445,-0.00725,9.15e-05,-0.00010675,-0.00013725001,1742093362.2917252
0.01025,0.2435,-0.0075,0.0,-0.00010675,-0.00010675,1742093362.306166
0.01,0.2425,-0.00875,0.0,-0.00010675,-7.625e-05,1742093362.320485
0.01,0.2435,-0.0085,7.625e-05,-0.000122000005,-4.575e-05,1742093362.334986
0.01025,0.24475,-0.00725,0.00013725001,-7.625e-05,-6.1000002e-05,1742093362.3494122
0.0105,0.2445,-0.0075,9.15e-05,-1.5250001e-05,-7.625e-05,1742093362.363961
0.01075,0.244,-0.0075,-1.5250001e-05,7.625e-05,-9.15e-05,1742093362.378433
0.01,0.2435,-0.008,-1.5250001e-05,0.000122000005,-7.625e-05,1742093362.393795
0.01,0.24325,-0.0085,7.625e-05,9.15e-05,-4.575e-05,1742093362.40749
0.01,0.244,-0.00825,0.000122000005,6.1000002e-05,-7.625e-05,1742093362.421865
0.01025,0.2445,-0.0075,0.00010675,3.0500001e-05,-9.15e-05,1742093362.436327
0.011,0.244,-0.007,0.0,4.575e-05,-0.00010675,1742093362.450714
0.0105,0.2435,-0.00775,-9.15e-05,9.15e-05,-9.15e-05,1742093362.465132
0.01025,0.24325,-0.0085,-4.575e-05,0.000122000005,-4.575e-05,1742093362.4797351
0.01,0.244,-0.0085,4.575e-05,0.00013725001,-4.575e-05,1742093362.494147
0.00975,0.244,-0.00825,0.0001525,9.15e-05,-9.15e-05,1742093362.5086238
0.0105,0.24425,-0.0075,0.000122000005,7.625e-05,-0.000122000005,1742093362.5228748
0.01075,0.244,-0.00775,1.5250001e-05,0.00010675,-0.000122000005,1742093362.537299
0.0105,0.24425,-0.008,-3.0500001e-05,0.00013725001,-0.00010675,1742093362.55174
0.01025,0.24375,-0.0085,-4.575e-05,9.15e-05,-9.15e-05,1742093362.5663328
0.0105,0.2435,-0.00875,0.0,4.575e-05,-7.625e-05,1742093362.580697
0.0105,0.24375,-0.00875,6.1000002e-05,1.5250001e-05,-6.1000002e-05,1742093362.595021
0.01025,0.24375,-0.0085,0.000122000005,0.0,-4.575e-05,1742093362.609494
0.01025,0.24375,-0.008,0.00013725001,0.0,-6.1000002e-05,1742093362.625265
0.01,0.24375,-0.00775,0.00010675,-4.575e-05,-6.1000002e-05,1742093362.638405
0.01025,0.24425,-0.0075,7.625e-05,-3.0500001e-05,-7.625e-05,1742093362.653903
0.0105,0.24375,-0.00775,3.0500001e-05,0.0,-4.575e-05,1742093362.667401
0.00975,0.244,-0.0085,4.575e-05,1.5250001e-05,-3.0500001e-05,1742093362.681872
0.00975,0.244,-0.00825,7.625e-05,0.0,-4.575e-05,1742093362.6963022
0.0105,0.24375,-0.00825,0.00010675,-3.0500001e-05,-3.0500001e-05,1742093362.710732
0.0105,0.24375,-0.008,0.00016775,-4.575e-05,0.0,1742093362.7254632
0.0105,0.244,-0.00775,0.000229,-1.5250001e-05,6.1000002e-05,1742093362.739601
0.01075,0.244,-0.0075,0.00019825,0.0,4.575e-05,1742093362.753922
0.0105,0.24425,-0.00725,7.625e-05,9.15e-05,-7.625e-05,1742093362.7682061
0.01,0.244,-0.00775,1.5250001e-05,0.000122000005,-0.00010675,1742093362.78258
0.01,0.24375,-0.00825,4.575e-05,7.625e-05,-6.1000002e-05,1742093362.796932
0.01,0.24375,-0.009,0.000122000005,6.1000002e-05,-7.625e-05,1742093362.811306
0.01025,0.244,-0.00825,0.00019825,4.575e-05,-9.15e-05,1742093362.825595
0.01025,0.244,-0.00775,0.000229,6.1000002e-05,-0.00010675,1742093362.839919
0.01025,0.24325,-0.00775,0.0002135,6.1000002e-05,-0.00010675,1742093362.854272
0.01025,0.24325,-0.008,0.00024425,1.5250001e-05,-9.15e-05,1742093362.868607
0.0105,0.244,-0.00725,0.00029,-1.5250001e-05,-7.625e-05,1742093362.883539
0.0105,0.2445,-0.00675,0.0002595,-3.0500001e-05,-4.575e-05,1742093362.8976169
0.01,0.24525,-0.00675,0.000183,-3.0500001e-05,-6.1000002e-05,1742093362.9119911
0.00975,0.24475,-0.007,9.15e-05,-3.0500001e-05,-0.00010675,1742093362.926408
0.0105,0.243,-0.00825,4.575e-05,-3.0500001e-05,-0.00013725001,1742093362.9408882
0.01075,0.24325,-0.00825,0.00013725001,-6.1000002e-05,-0.00010675,1742093362.955392
0.0105,0.24375,-0.008,0.00024425,-6.1000002e-05,-0.00010675,1742093362.969873
0.01025,0.24425,-0.007,0.00024425,-0.00010675,-9.15e-05,1742093362.984344
0.01025,0.2445,-0.00625,0.0002135,-0.00016775,-7.625e-05,1742093362.998806
0.01025,0.2445,-0.00625,0.000183,-0.00013725001,-6.1000002e-05,1742093363.014207
0.01025,0.244,-0.00725,0.00013725001,-9.15e-05,-4.575e-05,1742093363.027793
0.01,0.244,-0.00725,0.0001525,-0.000122000005,-4.575e-05,1742093363.0423622
0.01,0.24425,-0.00675,0.00013725001,-0.000229,-0.000122000005,1742093363.056818
0.01075,0.24375,-0.00675,0.000122000005,-0.00024425,-0.00013725001,1742093363.071317
0.01075,0.244,-0.0065,0.00010675,-0.00024425,-0.00013725001,1742093363.085811
0.0105,0.244,-0.0065,7.625e-05,-0.000229,-9.15e-05,1742093363.1003141
0.01025,0.24375,-0.0075,9.15e-05,-0.000229,-7.625e-05,1742093363.114678
0.01,0.244,-0.00725,0.00019825,-0.00024425,-0.00010675,1742093363.129117
0.00975,0.245,-0.006,0.0002135,-0.00024425,-0.0001525,1742093363.143918
0.01025,0.24475,-0.00575,6.1000002e-05,-0.00030525,-0.00019825,1742093363.1581051
0.01075,0.244,-0.00575,-1.5250001e-05,-0.0003205,-0.000183,1742093363.172802
0.01075,0.24425,-0.00575,-0.000122000005,-0.00029,-0.000183,1742093363.187368
0.01075,0.2445,-0.0065,-0.0002135,-0.0002595,-0.000229,1742093363.202042
0.01125,0.24375,-0.00725,-0.00029,-0.0002595,-0.0002595,1742093363.2164428
0.01175,0.243,-0.00725,-0.00029,-0.000229,-0.0002135,1742093363.231144
0.01125,0.244,-0.00725,-0.000229,-0.000183,-0.00019825,1742093363.2457988
0.0115,0.24425,-0.007,-0.0001525,-7.625e-05,-0.00016775,1742093363.260389
0.01125,0.24425,-0.0075,-0.00013725001,-3.0500001e-05,-0.00016775,1742093363.275073
0.01125,0.244,-0.0075,-7.625e-05,-1.5250001e-05,-0.000122000005,1742093363.2894561
0.01125,0.243,-0.0075,-1.5250001e-05,-3.0500001e-05,-7.625e-05,1742093363.304113
0.01125,0.24325,-0.00725,9.15e-05,-1.5250001e-05,-4.575e-05,1742093363.3186939
0.01125,0.244,-0.0065,0.00010675,0.0,-6.1000002e-05,1742093363.333774
0.0105,0.2445,-0.0065,0.00010675,1.5250001e-05,-6.1000002e-05,1742093363.347296
0.01025,0.2445,-0.007,7.625e-05,3.0500001e-05,-4.575e-05,1742093363.3616261
0.01025,0.24425,-0.007,4.575e-05,3.0500001e-05,-7.625e-05,1742093363.376009
0.01075,0.244,-0.00725,-6.1000002e-05,-3.0500001e-05,-0.00013725001,1742093363.3906739
0.01175,0.2435,-0.00775,-7.625e-05,-7.625e-05,-0.0001525,1742093363.405174
0.01175,0.244,-0.0075,-4.575e-05,-9.15e-05,-0.0002135,1742093363.4198232
0.01075,0.24425,-0.0075,-4.575e-05,-0.000122000005,-0.00019825,1742093363.434442
0.011,0.244,-0.00725,-6.1000002e-05,-0.000183,-0.0001525,1742093363.4489868
0.011,0.24425,-0.007,-4.575e-05,-0.000183,-0.000183,1742093363.464028
0.01075,0.24425,-0.007,-6.1000002e-05,-0.000183,-0.00024425,1742093363.478156
0.01125,0.2435,-0.00725,-6.1000002e-05,-0.000183,-0.0002595,1742093363.493978
0.0115,0.2435,-0.007,-6.1000002e-05,-0.000183,-0.000229,1742093363.5072901
0.0115,0.24375,-0.0065,-6.1000002e-05,-0.00016775,-0.0001525,1742093363.521756
0.0115,0.244,-0.00725,-9.15e-05,-0.000122000005,-0.00010675,1742093363.536273
0.0115,0.2435,-0.00825,-9.15e-05,-6.1000002e-05,-1.5250001e-05,1742093363.550744
0.01125,0.24375,-0.0085,0.0,-4.575e-05,-1.5250001e-05,1742093363.565185
0.011,0.244,-0.008,0.00010675,-3.0500001e-05,-6.1000002e-05,1742093363.579681
0.011,0.244,-0.007,0.00010675,-4.575e-05,-0.000122000005,1742093363.5942101
0.01125,0.24425,-0.00675,7.625e-05,-6.1000002e-05,-0.00019825,1742093363.6087198
0.01175,0.244,-0.00675,3.0500001e-05,-6.1000002e-05,-0.0001525,1742093363.624213
0.01175,0.24325,-0.00725,0.0,-4.575e-05,-7.625e-05,1742093363.6376908
0.01125,0.24325,-0.0075,4.575e-05,-1.5250001e-05,-1.5250001e-05,1742093363.652201
0.01075,0.2445,-0.007,6.1000002e-05,0.0,-4.575e-05,1742093363.6665852
0.01075,0.24425,-0.00725,0.0,1.5250001e-05,-0.00010675,1742093363.680922
0.0115,0.2435,-0.00775,0.0,-1.5250001e-05,-0.000122000005,1742093363.69539
0.0115,0.24375,-0.0075,7.625e-05,-3.0500001e-05,-0.00013725001,1742093363.7099159
0.0115,0.24425,-0.00725,0.00010675,-3.0500001e-05,-0.00016775,1742093363.725375
0.01175,0.244,-0.00725,0.000122000005,-1.5250001e-05,-0.00016775,1742093363.738998
0.012,0.244,-0.00725,0.000122000005,0.0,-0.00013725001,1742093363.753877
0.01175,0.2445,-0.007,0.00010675,1.5250001e-05,-9.15e-05,1742093363.767616
0.0115,0.2445,-0.00675,-4.575e-05,1.5250001e-05,-7.625e-05,1742093363.782027
0.0115,0.243,-0.00775,-0.00010675,0.0,-7.625e-05,1742093363.7965791
0.01175,0.2425,-0.008,0.0,-3.0500001e-05,-6.1000002e-05,1742093363.810994
0.01125,0.24375,-0.007,0.000122000005,-1.5250001e-05,-7.625e-05,1742093363.82539
0.01075,0.244,-0.00725,0.0002595,-1.5250001e-05,-9.15e-05,1742093363.839902
0.01075,0.244,-0.0075,0.00029,-3.0500001e-05,-9.15e-05,1742093363.854402
0.01125,0.24475,-0.0065,0.00024425,-4.575e-05,-0.00016775,1742093363.868899
0.0125,0.244,-0.006,0.000122000005,-4.575e-05,-0.00016775,1742093363.883992
0.01325,0.24275,-0.00675,1.5250001e-05,-4.575e-05,-0.00010675,1742093363.897899
0.01325,0.2425,-0.00725,6.1000002e-05,4.575e-05,3.0500001e-05,1742093363.912216
0.01125,0.24425,-0.0075,0.0001525,7.625e-05,6.1000002e-05,1742093363.926494
0.011,0.2445,-0.0075,0.0002135,1.5250001e-05,4.575e-05,1742093363.940786
0.0115,0.24425,-0.006,0.000183,1.5250001e-05,1.5250001e-05,1742093363.955145
0.0115,0.2445,-0.0055,3.0500001e-05,0.000122000005,-1.5250001e-05,1742093363.9696388
0.0115,0.24325,-0.007,-4.575e-05,0.0001525,-1.5250001e-05,1742093363.984112
0.01125,0.24275,-0.00775,-4.575e-05,0.00013725001,0.0,1742093363.998506
0.01075,0.24325,-0.008,0.00013725001,6.1000002e-05,1.5250001e-05,1742093364.0139399
0.01075,0.244,-0.0075,0.000229,1.5250001e-05,-1.5250001e-05,1742093364.0271811
0.01125,0.244,-0.007,0.00030525,1.5250001e-05,-3.0500001e-05,1742093364.0415812
0.012,0.24325,-0.0065,0.0003205,3.0500001e-05,-3.0500001e-05,1742093364.055881
0.012,0.2435,-0.0065,0.000412,6.1000002e-05,3.0500001e-05,1742093364.070229
0.01075,0.24425,-0.00675,0.00042725,4.575e-05,6.1000002e-05,1742093364.084539
0.01075,0.24425,-0.00625,0.000412,3.0500001e-05,9.15e-05,1742093364.098839
0.011,0.244,-0.00575,0.00035100002,1.5250001e-05,0.00010675,1742093364.113605
0.01175,0.244,-0.00625,0.00029,4.575e-05,0.00010675,1742093364.12751
0.01225,0.24375,-0.00675,0.00019825,0.00010675,0.00013725001,1742093364.1418
0.0115,0.245,-0.00525,0.00016775,0.00010675,0.000122000005,1742093364.156201
0.01125,0.24575,-0.0045,-3.0500001e-05,0.000122000005,4.575e-05,1742093364.170582
0.0125,0.24375,-0.00525,-0.00019825,0.00013725001,6.1000002e-05,1742093364.184942
0.0125,0.24275,-0.00625,-0.00030525,0.0001525,0.00010675,1742093364.199317
0.0105,0.2435,-0.0075,-0.000229,0.00016775,0.0002135,1742093364.21398
0.00975,0.2445,-0.00775,-0.000183,0.00013725001,0.000183,1742093364.2281759
0.01,0.24475,-0.0075,-0.00019825,6.1000002e-05,1.5250001e-05,1742093364.2437701
0.0115,0.24425,-0.00625,-0.000229,7.625e-05,-1.5250001e-05,1742093364.2570088
0.01175,0.24375,-0.006,-0.00030525,0.0001525,6.1000002e-05,1742093364.271405
0.01125,0.2435,-0.0065,-0.00030525,0.000183,0.00013725001,1742093364.285793
0.01025,0.244,-0.007,-0.0003205,0.0001525,0.00016775,1742093364.30018
0.00975,0.2445,-0.00725,-0.00033575002,0.000122000005,0.00010675,1742093364.3145652
0.01,0.24425,-0.007,-0.00035100002,9.15e-05,4.575e-05,1742093364.3288379
0.01,0.24375,-0.00725,-0.00033575002,9.15e-05,1.5250001e-05,1742093364.343908
0.00975,0.24425,-0.00725,-0.00030525,9.15e-05,3.0500001e-05,1742093364.357635
0.00925,0.24475,-0.007,-0.0002595,4.575e-05,1.5250001e-05,1742093364.372007
0.01025,0.244,-0.0065,-0.00029,-1.5250001e-05,0.0,1742093364.3865001
0.011,0.2435,-0.0065,-0.00033575002,-3.0500001e-05,1.5250001e-05,1742093364.400882
0.011,0.244,-0.00675,-0.00039675,0.0,4.575e-05,1742093364.415286
0.01025,0.24425,-0.0075,-0.000473,3.0500001e-05,4.575e-05,1742093364.429556
0.00975,0.244,-0.0085,-0.00054925,4.575e-05,0.0,1742093364.443893
0.0105,0.24375,-0.00925,-0.0005035,3.0500001e-05,-4.575e-05,1742093364.4583821
0.01125,0.24375,-0.00875,-0.00033575002,6.1000002e-05,-7.625e-05,1742093364.472991
0.0115,0.2445,-0.00725,-0.0003205,0.000122000005,-6.1000002e-05,1742093364.487403
0.0115,0.245,-0.00675,-0.00062550005,0.00030525,0.0,1742093364.501751
0.01075,0.2445,-0.00825,-0.000763,0.00039675,-4.575e-05,1742093364.516166
0.01,0.24325,-0.0095,-0.000763,0.00036625,-7.625e-05,1742093364.530655
0.01025,0.243,-0.01025,-0.00064075,0.00035100002,-7.625e-05,1742093364.545234
0.01075,0.24375,-0.00975,-0.000473,0.00036625,-6.1000002e-05,1742093364.559674
0.011,0.24375,-0.00925,-0.0003205,0.000473,3.0500001e-05,1742093364.574754
0.01075,0.24275,-0.00975,-0.0003205,0.0005035,4.575e-05,1742093364.588795
0.01075,0.24325,-0.01025,-0.0002135,0.00057975,0.0,1742093364.6040251
0.0105,0.2445,-0.00925,-0.00013725001,0.00059500005,0.0,1742093364.617561
0.01,0.24475,-0.00875,-0.000122000005,0.00064075,6.1000002e-05,1742093364.63199
0.01,0.2435,-0.00925,-0.0001525,0.00065625,7.625e-05,1742093364.646295
0.01025,0.2435,-0.01,-0.0001525,0.00064075,3.0500001e-05,1742093364.660686
0.01,0.2435,-0.01125,-9.15e-05,0.00057975,1.5250001e-05,1742093364.675819
0.01,0.2435,-0.01125,-3.0500001e-05,0.00048825,0.0,1742093364.689645
0.0105,0.2435,-0.01075,7.625e-05,0.00033575002,-7.625e-05,1742093364.7042408
0.01075,0.24425,-0.00975,9.15e-05,0.00029,-0.00010675,1742093364.718513
0.011,0.244,-0.00975,3.0500001e-05,0.0002595,-9.15e-05,1742093364.73407
0.01075,0.244,-0.00925,0.0,0.0002595,-9.15e-05,1742093364.7472599
0.01025,0.24425,-0.009,-6.1000002e-05,0.00024425,-0.00010675,1742093364.761678
0.01,0.24325,-0.00975,-6.1000002e-05,0.00019825,-7.625e-05,1742093364.7762098
0.01025,0.24275,-0.01,-1.5250001e-05,0.00016775,-7.625e-05,1742093364.790694
0.01,0.24425,-0.00925,9.15e-05,0.000183,-7.625e-05,1742093364.80579
0.00975,0.2445,-0.009,0.00010675,0.00019825,-3.0500001e-05,1742093364.819583
0.00975,0.2435,-0.0095,7.625e-05,0.0001525,0.0,1742093364.833815
0.01025,0.24275,-0.0105,0.0001525,0.000122000005,1.5250001e-05,1742093364.8481011
0.01,0.244,-0.0105,0.00035100002,3.0500001e-05,6.1000002e-05,1742093364.862368
0.01025,0.2445,-0.00925,0.00035100002,-3.0500001e-05,7.625e-05,1742093364.876673
0.01075,0.244,-0.00875,0.00019825,-4.575e-05,4.575e-05,1742093364.891084
0.0105,0.24425,-0.00875,0.00010675,-6.1000002e-05,3.0500001e-05,1742093364.905466
0.01025,0.2445,-0.009,3.0500001e-05,-4.575e-05,3.0500001e-05,1742093364.919924
0.01,0.24425,-0.009,-9.15e-05,-3.0500001e-05,4.575e-05,1742093364.93438
0.00925,0.2435,-0.00975,-0.000122000005,-3.0500001e-05,6.1000002e-05,1742093364.948858
0.0095,0.243,-0.01025,-1.5250001e-05,-0.00010675,7.625e-05,1742093364.964164
0.01,0.24375,-0.0105,0.00010675,-0.00013725001,6.1000002e-05,1742093364.977806
0.01,0.244,-0.01,0.0002135,-0.00019825,4.575e-05,1742093364.992104
0.0105,0.244,-0.009,0.000183,-0.00019825,3.0500001e-05,1742093365.0063941
0.01075,0.24375,-0.009,0.00013725001,-0.000183,0.0,1742093365.020737
0.01075,0.2435,-0.00925,0.00013725001,-0.000122000005,-1.5250001e-05,1742093365.0351958
0.0095,0.244,-0.0095,0.000183,-0.000122000005,0.0,1742093365.0495749
0.0095,0.244,-0.00925,0.0002595,-0.0001525,0.0,1742093365.064111
0.01025,0.2435,-0.00925,0.0002595,-0.00016775,1.5250001e-05,1742093365.0781891
0.0105,0.24325,-0.009,0.00029,-9.15e-05,4.575e-05,1742093365.092601
0.01,0.24425,-0.00875,0.00029,-3.0500001e-05,3.0500001e-05,1742093365.1070158
0.01025,0.2445,-0.00875,0.00024425,0.0,1.5250001e-05,1742093365.121292
0.01075,0.244,-0.00925,0.00019825,7.625e-05,4.575e-05,1742093365.135573
0.0105,0.2435,-0.00925,0.0002595,0.00013725001,6.1000002e-05,1742093365.149906
0.01,0.24375,-0.009,0.00033575002,0.00019825,6.1000002e-05,1742093365.1643531
0.00975,0.24425,-0.0085,0.00033575002,0.000183,7.625e-05,1742093365.178467
0.01,0.244,-0.00825,0.00027475,0.0002135,0.000122000005,1742093365.193845
0.00925,0.244,-0.00875,0.0002595,0.0002135,0.000122000005,1742093365.206965
0.00925,0.24425,-0.0085,0.0002595,0.000183,9.15e-05,1742093365.221193
0.00925,0.2445,-0.0085,0.0002135,0.00016775,7.625e-05,1742093365.23549
0.00925,0.244,-0.0085,0.00016775,0.00016775,7.625e-05,1742093365.249676
0.0095,0.2435,-0.00875,0.00016775,7.625e-05,9.15e-05,1742093365.263993
0.0095,0.24425,-0.00875,0.0002135,3.0500001e-05,9.15e-05,1742093365.278243
0.00925,0.2445,-0.0085,0.0002135,1.5250001e-05,9.15e-05,1742093365.2937
0.009,0.24425,-0.00825,0.00016775,-3.0500001e-05,0.00010675,1742093365.306897
0.009,0.2445,-0.008,0.000122000005,-0.00010675,0.00010675,1742093365.321314
0.00875,0.24475,-0.0075,-7.625e-05,-0.000229,0.00010675,1742093365.335844
0.0095,0.24375,-0.008,-0.000183,-0.00024425,0.00013725001,1742093365.350295
0.01,0.2435,-0.00875,-0.000229,-0.0001525,0.00013725001,1742093365.364753
0.00925,0.24375,-0.00925,-0.00016775,-4.575e-05,9.15e-05,1742093365.3792791
0.00875,0.24425,-0.009,-4.575e-05,6.1000002e-05,4.575e-05,1742093365.3937778
0.009,0.24325,-0.0095,-1.5250001e-05,4.575e-05,3.0500001e-05,1742093365.408083
0.0095,0.243,-0.00925,0.00010675,1.5250001e-05,1.5250001e-05,1742093365.422355
0.0095,0.24475,-0.00775,0.0001525,4.575e-05,0.0,1742093365.436652
0.0095,0.2445,-0.0075,0.00010675,7.625e-05,0.0,1742093365.450999
0.0095,0.2435,-0.00825,1.5250001e-05,0.00016775,3.0500001e-05,1742093365.465186
0.00875,0.24375,-0.0095,7.625e-05,0.000183,3.0500001e-05,1742093365.479428
0.0085,0.2445,-0.009,0.000229,0.00013725001,0.0,1742093365.493917
0.00925,0.244,-0.008,0.0002135,0.00010675,0.0,1742093365.508074
0.00975,0.24375,-0.008,0.00016775,9.15e-05,0.0,1742093365.5222862
0.00975,0.24375,-0.008,6.1000002e-05,0.00013725001,-6.1000002e-05,1742093365.536675
0.009,0.24375,-0.0085,6.1000002e-05,0.0001525,-4.575e-05,1742093365.5510888
0.0085,0.24425,-0.009,0.000122000005,9.15e-05,-1.5250001e-05,1742093365.565548
0.00825,0.24475,-0.0085,0.0001525,4.575e-05,-3.0500001e-05,1742093365.579983
0.0085,0.24425,-0.00825,0.00013725001,-3.0500001e-05,-4.575e-05,1742093365.594364
0.009,0.24375,-0.00775,0.000122000005,-3.0500001e-05,-4.575e-05,1742093365.6088698
0.00925,0.24375,-0.008,0.000122000005,1.5250001e-05,-4.575e-05,1742093365.624908
0.009,0.244,-0.00825,0.00010675,3.0500001e-05,-6.1000002e-05,1742093365.637664
0.00875,0.244,-0.0085,9.15e-05,1.5250001e-05,-7.625e-05,1742093365.652085
0.009,0.244,-0.00875,4.575e-05,-4.575e-05,-9.15e-05,1742093365.666566
0.009,0.2445,-0.00825,4.575e-05,-4.575e-05,-9.15e-05,1742093365.681086
0.009,0.2445,-0.008,4.575e-05,-4.575e-05,-9.15e-05,1742093365.6955688
0.009,0.24375,-0.00825,3.0500001e-05,-6.1000002e-05,-9.15e-05,1742093365.710089
0.00875,0.24425,-0.008,-1.5250001e-05,-0.00010675,-0.000122000005,1742093365.724998
0.00925,0.24475,-0.00725,-7.625e-05,-0.000122000005,-0.0001525,1742093365.739249
0.0095,0.24425,-0.0075,-0.0002135,-0.00010675,-0.00013725001,1742093365.7543302
0.00875,0.2445,-0.00875,-0.000229,-6.1000002e-05,-0.00010675,1742093365.768374
0.008,0.24425,-0.009,-0.000183,-3.0500001e-05,-0.00010675,1742093365.783864
0.0085,0.24325,-0.00925,1.5250001e-05,-9.15e-05,-0.00013725001,1742093365.797327
0.009,0.24325,-0.00875,0.0001525,-0.00010675,-0.00016775,1742093365.8118742
0.00925,0.244,-0.008,0.000229,-9.15e-05,-0.0002135,1742093365.826358
0.0105,0.244,-0.00775,0.00013725001,-7.625e-05,-0.000229,1742093365.8408508
0.011,0.2435,-0.008,-1.5250001e-05,1.5250001e-05,-0.00019825,1742093365.8553898
0.01,0.244,-0.00825,-4.575e-05,6.1000002e-05,-0.000122000005,1742093365.86991
0.009,0.2445,-0.0085,-0.000122000005,4.575e-05,-7.625e-05,1742093365.8843598
0.0085,0.24425,-0.009,-0.000122000005,1.5250001e-05,-0.000122000005,1742093365.8988318
0.009,0.24375,-0.00875,-0.00010675,-1.5250001e-05,-0.00016775,1742093365.914096
0.01025,0.24325,-0.008,-7.625e-05,0.0,-0.00019825,1742093365.927861
0.00975,0.24325,-0.0085,-4.575e-05,3.0500001e-05,-0.000183,1742093365.942271
0.00925,0.2435,-0.009,6.1000002e-05,1.5250001e-05,-9.15e-05,1742093365.956532
0.0085,0.244,-0.0095,0.00013725001,-3.0500001e-05,-7.625e-05,1742093365.9710898
0.0085,0.24425,-0.009,0.000229,-0.00010675,-0.000122000005,1742093365.985675
0.00925,0.2445,-0.007,0.0002135,-0.000122000005,-0.000122000005,1742093366.00014
0.01,0.24475,-0.006,0.0,-0.00010675,-0.000122000005,1742093366.0146382
0.0105,0.244,-0.00725,-0.0001525,-6.1000002e-05,-9.15e-05,1742093366.02932
0.00975,0.2435,-0.00875,-0.00027475,0.0,-1.5250001e-05,1742093366.044429
0.0085,0.24375,-0.01025,-0.00019825,-4.575e-05,-3.0500001e-05,1742093366.058358
0.0085,0.2445,-0.01,-9.15e-05,-0.000122000005,-9.15e-05,1742093366.072955
0.009,0.24475,-0.00925,6.1000002e-05,-0.00024425,-0.0001525,1742093366.0873458
0.00975,0.24425,-0.00775,4.575e-05,-0.0002595,-0.0001525,1742093366.1019242
0.01,0.244,-0.0075,-0.00010675,-0.000183,-0.000122000005,1742093366.116446
0.00975,0.24425,-0.00825,-0.00019825,-0.00013725001,-0.0001525,1742093366.13096
0.00975,0.244,-0.009,-0.000229,-0.00010675,-0.0001525,1742093366.145677
0.00975,0.24325,-0.00975,-0.000183,-0.00010675,-0.0001525,1742093366.160351
0.00975,0.24325,-0.00975,-3.0500001e-05,-7.625e-05,-0.000183,1742093366.175554
0.01,0.24425,-0.0085,0.0,-4.575e-05,-0.000183,1742093366.189333
0.01,0.24425,-0.00825,-1.5250001e-05,-1.5250001e-05,-0.00016775,1742093366.204344
0.0095,0.244,-0.009,-9.15e-05,3.0500001e-05,-0.00010675,1742093366.218386
0.00925,0.24425,-0.00925,-0.00010675,1.5250001e-05,-9.15e-05,1742093366.232817
0.0095,0.244,-0.00925,-9.15e-05,-3.0500001e-05,-0.00010675,1742093366.247461
0.01025,0.24375,-0.009,-6.1000002e-05,-1.5250001e-05,-0.00010675,1742093366.2621188
0.01,0.244,-0.00925,0.0,-1.5250001e-05,-0.000122000005,1742093366.2765188
0.00975,0.24375,-0.009,1.5250001e-05,-4.575e-05,-0.00010675,1742093366.290943
0.01,0.2435,-0.00875,3.0500001e-05,-4.575e-05,-9.15e-05,1742093366.305368
0.01025,0.24425,-0.00825,3.0500001e-05,0.0,-0.000122000005,1742093366.319757
0.01,0.24425,-0.00825,-1.5250001e-05,3.0500001e-05,-0.000122000005,1742093366.334174
0.01,0.244,-0.0085,-0.00010675,1.5250001e-05,-6.1000002e-05,1742093366.3486369
0.01,0.2435,-0.00925,-9.15e-05,3.0500001e-05,-4.575e-05,1742093366.363775
0.01,0.2435,-0.0095,4.575e-05,6.1000002e-05,-4.575e-05,1742093366.377567
0.00975,0.244,-0.0095,0.00010675,4.575e-05,-4.575e-05,1742093366.39198
0.00975,0.244,-0.00925,0.000122000005,1.5250001e-05,-0.00010675,1742093366.406244
0.01,0.244,-0.0085,7.625e-05,1.5250001e-05,-0.000122000005,1742093366.4205198
0.01025,0.2445,-0.008,-1.5250001e-05,0.0,-7.625e-05,1742093366.434886
0.01075,0.244,-0.008,-0.00010675,4.575e-05,-4.575e-05,1742093366.449354
0.0105,0.2435,-0.00875,-0.00016775,7.625e-05,0.0,1742093366.464135
0.00975,0.2435,-0.00975,-0.00010675,9.15e-05,0.0,1742093366.478095
0.009,0.24375,-0.01,-3.0500001e-05,6.1000002e-05,-3.0500001e-05,1742093366.492558
0.00925,0.244,-0.00975,0.00010675,0.0,-0.00010675,1742093366.506977
0.01,0.244,-0.00875,0.00010675,-1.5250001e-05,-0.00013725001,1742093366.521517
0.0105,0.24375,-0.0085,3.0500001e-05,-3.0500001e-05,-0.00013725001,1742093366.536109
0.011,0.244,-0.00875,-1.5250001e-05,-1.5250001e-05,-0.00010675,1742093366.5506501
0.0105,0.244,-0.00875,-7.625e-05,3.0500001e-05,-4.575e-05,1742093366.56516
0.0095,0.244,-0.0095,-9.15e-05,6.1000002e-05,-4.575e-05,1742093366.579612
0.009,0.2445,-0.0095,-7.625e-05,6.1000002e-05,-4.575e-05,1742093366.594076
0.00925,0.24425,-0.00925,-4.575e-05,-1.5250001e-05,-6.1000002e-05,1742093366.608581
0.01025,0.243,-0.00975,-1.5250001e-05,-4.575e-05,-7.625e-05,1742093366.62314
0.0105,0.2435,-0.0095,7.625e-05,-4.575e-05,-0.00010675,1742093366.637572
0.0105,0.24425,-0.009,6.1000002e-05,-3.0500001e-05,-0.00010675,1742093366.6520908
0.0105,0.24375,-0.009,6.1000002e-05,3.0500001e-05,-9.15e-05,1742093366.666441
0.01,0.24375,-0.009,6.1000002e-05,4.575e-05,-4.575e-05,1742093366.680777
0.0095,0.2445,-0.00925,6.1000002e-05,3.0500001e-05,0.0,1742093366.695104
0.01,0.24425,-0.009,3.0500001e-05,-1.5250001e-05,-3.0500001e-05,1742093366.709549
0.0105,0.24325,-0.009,3.0500001e-05,-3.0500001e-05,-4.575e-05,1742093366.725007
0.0105,0.2435,-0.00925,9.15e-05,1.5250001e-05,-4.575e-05,1742093366.738441
0.0095,0.2445,-0.009,9.15e-05,1.5250001e-05,-6.1000002e-05,1742093366.753877
0.01,0.244,-0.00925,4.575e-05,0.0,-3.0500001e-05,1742093366.767136
0.01,0.24325,-0.00975,7.625e-05,0.0,-1.5250001e-05,1742093366.781539
0.0095,0.24375,-0.0095,0.00019825,-4.575e-05,-3.0500001e-05,1742093366.7960792
0.01,0.2445,-0.0085,0.0002135,-7.625e-05,-6.1000002e-05,1742093366.810473
0.01025,0.24425,-0.008,0.00019825,-7.625e-05,-6.1000002e-05,1742093366.824972
0.0105,0.244,-0.00775,4.575e-05,-3.0500001e-05,-4.575e-05,1742093366.839482
0.01025,0.2435,-0.00875,-3.0500001e-05,1.5250001e-05,-1.5250001e-05,1742093366.854101
0.01025,0.2435,-0.00925,-3.0500001e-05,4.575e-05,-4.575e-05,1742093366.868364
0.0095,0.244,-0.00975,4.575e-05,3.0500001e-05,-7.625e-05,1742093366.882748
0.01,0.24375,-0.00975,0.00016775,-1.5250001e-05,-9.15e-05,1742093366.8972402
0.01075,0.244,-0.00875,0.000183,-3.0500001e-05,-7.625e-05,1742093366.911755
0.0105,0.2445,-0.0085,0.0001525,-4.575e-05,-4.575e-05,1742093366.9261801
0.01,0.24375,-0.00825,9.15e-05,-3.0500001e-05,-1.5250001e-05,1742093366.940715
0.01,0.24375,-0.00825,4.575e-05,-1.5250001e-05,-1.5250001e-05,1742093366.9551518
0.01,0.24375,-0.00875,1.5250001e-05,4.575e-05,0.0,1742093366.969482
0.009,0.2445,-0.0095,3.0500001e-05,3.0500001e-05,0.0,1742093366.984118
0.009,0.244,-0.0095,7.625e-05,-7.625e-05,-4.575e-05,1742093366.998066
0.0105,0.24325,-0.009,0.000122000005,-0.000122000005,-7.625e-05,1742093367.012532
0.01075,0.24375,-0.0085,0.00010675,-0.00010675,-0.00010675,1742093367.027097
0.0105,0.24425,-0.0085,3.0500001e-05,-9.15e-05,-7.625e-05,1742093367.041596
0.0105,0.24375,-0.00925,-1.5250001e-05,-7.625e-05,-3.0500001e-05,1742093367.056164
0.0095,0.24375,-0.00925,9.15e-05,-6.1000002e-05,-6.1000002e-05,1742093367.0706182
0.0095,0.24375,-0.0085,0.000122000005,-7.625e-05,-0.00010675,1742093367.085302
0.01,0.24375,-0.00825,0.00010675,-9.15e-05,-6.1000002e-05,1742093367.09978
0.01,0.24425,-0.0085,6.1000002e-05,-4.575e-05,-4.575e-05,1742093367.1142662
0.01,0.244,-0.00875,-4.575e-05,-1.5250001e-05,-6.1000002e-05,1742093367.128895
0.01025,0.24375,-0.00875,-1.5250001e-05,-3.0500001e-05,-9.15e-05,1742093367.1440141
0.01,0.24425,-0.00875,1.5250001e-05,0.0,-0.000122000005,1742093367.157739
0.01025,0.24375,-0.009,-1.5250001e-05,0.0,-0.00010675,1742093367.172131
0.01025,0.2435,-0.00925,-1.5250001e-05,-1.5250001e-05,-0.00010675,1742093367.186644
0.01,0.244,-0.00875,-3.0500001e-05,-3.0500001e-05,-0.000122000005,1742093367.201151
0.0105,0.24375,-0.00875,-6.1000002e-05,-4.575e-05,-0.000122000005,1742093367.2157881
0.011,0.24375,-0.0085,-6.1000002e-05,-1.5250001e-05,-9.15e-05,1742093367.230371
0.0105,0.244,-0.00825,-7.625e-05,1.5250001e-05,-9.15e-05,1742093367.244909
0.01025,0.244,-0.00875,-0.000122000005,6.1000002e-05,-7.625e-05,1742093367.259298
0.0095,0.2435,-0.0095,-7.625e-05,6.1000002e-05,-3.0500001e-05,1742093367.27553
0.0095,0.24325,-0.00975,3.0500001e-05,4.575e-05,-3.0500001e-05,1742093367.2882612
0.0105,0.24375,-0.009,9.15e-05,6.1000002e-05,-4.575e-05,1742093367.302664
0.01075,0.244,-0.00875,0.0001525,0.00013725001,0.0,1742093367.316874
