acc_x,acc_y,acc_z,gyro_x,gyro_y,gyro_z,timestamp
0.01075,0.009,0.257,0.004303,0.0061339997,-0.00027475,1742093309.696577
0.015,0.0075,0.24775,0.0044250004,0.0058899997,0.0,1742093309.7099352
0.01575,0.008,0.2525,0.0047150003,0.0041044997,-7.625e-05,1742093309.724967
0.017,0.006,0.25625,0.0059510004,0.0041504996,-0.00051875,1742093309.738267
0.01725,0.0025,0.253,0.00717175,0.00453175,-0.000946,1742093309.752492
0.019,-0.0005,0.249,0.007599,0.0046845004,-0.00105275,1742093309.768127
0.02275,-0.00075,0.24925,0.0070647504,0.0042725,-0.000946,1742093309.781461
0.02375,-0.00075,0.251,0.006607,0.00340275,-0.0010375,1742093309.795923
0.024,-0.0075,0.24775,0.0065002497,0.002884,-0.001007,1742093309.810255
0.02375,-0.01025,0.2455,0.0049895,0.001709,-0.0005035,1742093309.8252869
0.02475,-0.01225,0.24425,0.004074,0.0009765,-0.00016775,1742093309.838917
0.025,-0.0125,0.24425,0.0031585,0.0002135,0.000122000005,1742093309.85406
0.02525,-0.0115,0.2455,0.0013427499,-0.00064075,0.00016775,1742093309.8674078
0.02475,-0.00825,0.2485,0.00077825,-0.00068675,-6.1000002e-05,1742093309.881813
0.0245,-0.008,0.24875,0.000122000005,-0.000824,-0.00051875,1742093309.89618
0.02225,-0.0095,0.2475,-0.00036625,-0.00108325,-0.000534,1742093309.910774
0.02125,-0.0105,0.247,-0.0016632499,-0.00143425,-0.0002595,1742093309.925316
0.02,-0.01,0.24875,-0.0021515,-0.00143425,-0.000122000005,1742093309.9398248
0.02025,-0.009,0.25025,-0.00242625,-0.0012665,-7.625e-05,1742093309.9543839
0.02075,-0.00725,0.25225,-0.0022125002,-0.00112925,-0.0001525,1742093309.968896
0.0205,-0.00725,0.251,-0.0019225,-0.0009765,-0.000183,1742093309.9836748
0.0205,-0.00675,0.2495,-0.00190725,-0.000885,-4.575e-05,1742093309.998067
0.02,-0.006,0.25,-0.0021515,-0.001007,6.1000002e-05,1742093310.012479
0.02,-0.0055,0.25125,-0.00238025,-0.00105275,0.00016775,1742093310.026953
0.02025,-0.00425,0.251,-0.0023345,-0.0008545,0.0001525,1742093310.041578
0.021,-0.00375,0.25075,-0.00242625,-0.00054925,3.0500001e-05,1742093310.056231
0.021,-0.00425,0.25,-0.002365,-0.00070200005,-1.5250001e-05,1742093310.07071
0.02,-0.0045,0.24975,-0.00245675,-0.00099175,-4.575e-05,1742093310.085223
0.019,-0.00275,0.252,-0.00254825,-0.00083925005,-0.00010675,1742093310.0997992
0.01875,-0.00175,0.253,-0.0024414998,-0.000534,-0.00019825,1742093310.114281
0.0195,-0.00025,0.253,-0.001709,-0.000183,-0.00039675,1742093310.1288278
0.0195,0.00075,0.253,-0.0012970001,-0.00016775,-0.00048825,1742093310.143718
0.01975,0.001,0.253,-0.00057975,-7.625e-05,-0.0007325,1742093310.1575701
0.0195,0.00125,0.2525,-0.00029,0.0,-0.00080875,1742093310.1718552
0.02025,0.00125,0.2525,0.000229,0.00024425,-0.000763,1742093310.1862972
0.02075,0.00175,0.2515,0.00054925,0.000412,-0.00067150005,1742093310.200618
0.01775,0.0005,0.2505,0.00051875,0.00010675,-0.00071725,1742093310.214871
0.017,-0.003,0.253,0.0003205,-0.000122000005,-0.00074775,1742093310.229446
0.0175,-0.00325,0.25325,0.00054925,-4.575e-05,-0.00068675,1742093310.243946
0.018,-0.003,0.25125,0.0014495,0.000412,-0.000534,1742093310.258216
0.01875,-0.003,0.24875,0.001419,0.0004425,-0.0003815,1742093310.272622
0.0195,-0.00275,0.2495,0.000885,0.0,-6.1000002e-05,1742093310.287068
0.0195,-0.00275,0.25125,0.0007935,-0.0001525,1.5250001e-05,1742093310.3014069
0.01925,-0.00275,0.2525,0.00112925,0.000183,-0.000122000005,1742093310.315706
0.01975,-0.00225,0.25575,0.00175475,0.00065625,-0.0003205,1742093310.330102
0.01975,-0.003,0.2545,0.0025940002,0.00119025,-0.0005645,1742093310.344455
0.01975,-0.00425,0.25125,0.00343325,0.00181575,-0.000824,1742093310.358817
0.02075,-0.00725,0.2445,0.0029907501,0.001709,-0.00068675,1742093310.373163
0.021,-0.008,0.24475,0.00086975005,0.000824,-0.00013725001,1742093310.387517
0.02025,-0.007,0.25225,9.15e-05,0.00045775,0.00013725001,1742093310.401906
0.02,-0.00575,0.25425,0.00064075,0.0003815,0.0003815,1742093310.416072
0.02125,-0.00475,0.253,0.0013885,0.00051875,0.00036625,1742093310.4303591
0.022,-0.005,0.2515,0.00193775,0.00062550005,0.0003205,1742093310.444601
0.022,-0.0055,0.251,0.0021057501,0.00064075,0.0002135,1742093310.458974
0.02225,-0.007,0.251,0.00216675,0.00064075,0.0001525,1742093310.4732008
0.0225,-0.008,0.24975,0.0022277501,0.00033575002,0.00010675,1742093310.4873972
0.02225,-0.00925,0.24775,0.00187675,9.15e-05,0.0001525,1742093310.5016901
0.022,-0.00925,0.248,0.00067150005,-0.00013725001,0.00027475,1742093310.515986
0.02275,-0.00875,0.24975,0.00016775,-0.00013725001,0.00029,1742093310.530462
0.0225,-0.00925,0.2495,-0.0001525,-0.00016775,0.00027475,1742093310.544802
0.02225,-0.0095,0.2495,-0.00070200005,-0.0003205,0.0002595,1742093310.559435
0.02175,-0.009,0.25125,-0.00083925005,-0.00029,0.00019825,1742093310.575006
0.02175,-0.009,0.25175,-0.000473,-7.625e-05,-1.5250001e-05,1742093310.5884218
0.022,-0.00775,0.25175,-0.000229,4.575e-05,-0.00013725001,1742093310.6041348
0.022,-0.007,0.252,0.0002595,0.000122000005,-0.0003205,1742093310.6174452
0.02175,-0.00725,0.25125,0.00051875,0.00013725001,-0.0003815,1742093310.631735
0.0215,-0.00775,0.25075,0.00054925,0.000183,-0.0003815,1742093310.646112
0.021,-0.00875,0.25025,0.00035100002,0.00016775,-0.0003205,1742093310.660439
0.02075,-0.009,0.2505,0.0001525,0.00016775,-0.00024425,1742093310.675276
0.021,-0.0085,0.25075,0.0,0.00033575002,-6.1000002e-05,1742093310.6891038
0.0225,-0.008,0.25025,-9.15e-05,0.00051875,-3.0500001e-05,1742093310.7041368
0.02225,-0.00875,0.2495,-0.00062550005,0.00083925005,-4.575e-05,1742093310.7179232
0.02175,-0.01025,0.2465,-0.001175,0.00090025004,1.5250001e-05,1742093310.7323232
0.02175,-0.0095,0.2485,-0.0020599999,0.00042725,0.00035100002,1742093310.74673
0.022,-0.0065,0.25375,-0.00190725,0.00029,0.00051875,1742093310.761204
0.02275,-0.005,0.25325,-0.00146475,0.0003205,0.0005645,1742093310.7756329
0.0245,-0.00375,0.2535,-0.00048825,0.000473,0.00051875,1742093310.79005
0.02475,-0.00375,0.2535,0.0,0.00057975,0.0003815,1742093310.804273
0.02425,-0.005,0.25175,0.00062550005,0.00083925005,-6.1000002e-05,1742093310.818614
0.023,-0.00875,0.24775,0.00048825,0.000763,-0.00016775,1742093310.83356
0.0235,-0.00975,0.24775,-0.0004425,0.00045775,-3.0500001e-05,1742093310.847595
0.02475,-0.00875,0.2495,-0.000824,0.00030525,3.0500001e-05,1742093310.862036
0.025,-0.008,0.24975,-0.00119025,-0.000122000005,4.575e-05,1742093310.876446
0.0235,-0.00675,0.24975,-0.00125125,-0.0004425,6.1000002e-05,1742093310.890902
0.0225,-0.0065,0.25075,-0.001236,-0.0007325,0.00013725001,1742093310.9054148
0.022,-0.006,0.2525,-0.00077825,-0.000763,0.00029,1742093310.919829
0.022,-0.00425,0.25375,-0.00019825,-0.00057975,0.00030525,1742093310.93415
0.02225,-0.004,0.25325,0.00102225,-0.000183,0.0002595,1742093310.948492
0.02275,-0.0045,0.251,0.00131225,-0.00010675,0.0002135,1742093310.9639628
0.0225,-0.0055,0.25025,0.00105275,0.00013725001,0.0002135,1742093310.977149
0.023,-0.00775,0.24775,0.00067150005,0.0003205,0.000229,1742093310.991435
0.02325,-0.0085,0.24775,0.000183,0.00029,0.0002595,1742093311.005822
0.02275,-0.0085,0.24925,-0.00051875,-0.00019825,0.00048825,1742093311.0202959
0.023,-0.006,0.25075,-0.00054925,-0.00027475,0.00057975,1742093311.0348318
0.02375,-0.0045,0.25075,-0.0004425,-0.000122000005,0.00051875,1742093311.049275
0.024,-0.00325,0.252,-0.00042725,-7.625e-05,0.00039675,1742093311.063918
0.0235,-0.004,0.252,-0.00035100002,3.0500001e-05,7.625e-05,1742093311.0781262
0.022,-0.00675,0.25025,-0.00030525,0.00013725001,0.0,1742093311.092373
0.02225,-0.00725,0.24975,-0.00042725,0.0002135,4.575e-05,1742093311.106718
0.0235,-0.0065,0.2505,-0.000534,0.00010675,7.625e-05,1742093311.121193
0.02375,-0.006,0.2505,-0.0005645,1.5250001e-05,6.1000002e-05,1742093311.135516
0.024,-0.0055,0.25025,-0.00059500005,-7.625e-05,-9.15e-05,1742093311.1499772
0.02375,-0.0045,0.2515,-0.00071725,-0.00013725001,-0.00013725001,1742093311.164481
0.0235,-0.00425,0.2525,-0.00054925,-7.625e-05,-0.00036625,1742093311.179096
0.02275,-0.004,0.252,-0.0002595,6.1000002e-05,-0.00051875,1742093311.193876
0.02275,-0.004,0.25175,0.00029,0.00036625,-0.00068675,1742093311.207927
0.02275,-0.00425,0.252,0.0005035,0.00042725,-0.0007325,1742093311.222291
0.02275,-0.005,0.2515,0.00074775,0.00042725,-0.000763,1742093311.236783
0.02275,-0.00575,0.24925,0.001068,0.00035100002,-0.00065625,1742093311.2510972
0.02325,-0.00525,0.2505,0.00096125,0.00036625,-0.0005645,1742093311.2653959
0.02375,-0.005,0.25225,0.0011445,0.00054925,-0.00062550005,1742093311.279688
0.02325,-0.00675,0.251,0.0013885,0.00067150005,-0.00068675,1742093311.294173
0.023,-0.00775,0.2495,0.0013427499,0.0007325,-0.00057975,1742093311.308464
0.0235,-0.0085,0.24875,0.001068,0.00070200005,-0.00048825,1742093311.322884
0.024,-0.0085,0.2485,0.0003815,0.00064075,-0.00024425,1742093311.337172
0.0245,-0.0075,0.2485,-6.1000002e-05,0.00051875,-0.00013725001,1742093311.351543
0.02475,-0.00675,0.25025,-0.00054925,0.0003815,-6.1000002e-05,1742093311.3659241
0.02475,-0.0065,0.2515,-0.00074775,0.00029,-0.0001525,1742093311.38038
0.0245,-0.00725,0.25025,-0.00068675,0.000229,-0.00019825,1742093311.394759
0.02425,-0.00725,0.2505,-0.00068675,0.00010675,-0.00016775,1742093311.409143
0.02475,-0.006,0.2515,-0.00054925,7.625e-05,-0.00019825,1742093311.4235861
0.02475,-0.0065,0.25125,-0.00019825,0.0,-0.000229,1742093311.4381492
0.024,-0.006,0.25025,-0.00019825,-3.0500001e-05,-0.0001525,1742093311.452706
0.02375,-0.006,0.25025,-0.00027475,4.575e-05,-9.15e-05,1742093311.467062
0.02375,-0.0065,0.25,-0.00054925,0.00036625,0.0,1742093311.481395
0.024,-0.00625,0.2495,-0.000763,0.000473,0.00010675,1742093311.4957938
0.0245,-0.00575,0.25,-0.00096125,0.00062550005,0.000229,1742093311.510059
0.02475,-0.006,0.24925,-0.000946,0.00070200005,0.00019825,1742093311.525852
0.0245,-0.0065,0.24825,-0.0013580001,0.00067150005,0.0003205,1742093311.5387928
0.0245,-0.00625,0.24925,-0.0016175,0.00057975,0.000473,1742093311.5539682
0.025,-0.00575,0.2505,-0.0016785001,0.00051875,0.00061025,1742093311.567436
0.026,-0.0035,0.25075,-0.0012970001,0.0003815,0.00077825,1742093311.581824
0.02625,-0.00225,0.251,-0.00119025,0.00035100002,0.0007935,1742093311.596117
0.0265,-0.0015,0.25175,-0.0010375,0.00045775,0.00068675,1742093311.610423
0.02625,-0.00175,0.251,-0.00096125,0.00048825,0.00062550005,1742093311.624771
0.02625,-0.00125,0.25075,-0.000885,0.0003815,0.00059500005,1742093311.639046
0.0265,-0.00075,0.25175,-0.00077825,0.00035100002,0.00057975,1742093311.6539059
0.027,-0.0005,0.25275,-0.00027475,0.00054925,0.00042725,1742093311.667754
0.02725,-0.00025,0.2535,0.0002135,0.00077825,0.00024425,1742093311.681958
0.027,-0.00125,0.25125,0.00074775,0.0009155,6.1000002e-05,1742093311.696176
0.027,-0.0025,0.24925,0.00102225,0.0005645,6.1000002e-05,1742093311.7105012
0.02675,-0.00375,0.248,0.00068675,0.0002135,0.00019825,1742093311.7248251
0.02725,-0.0035,0.2495,-1.5250001e-05,-0.0001525,0.00036625,1742093311.739261
0.028,-0.0025,0.25225,0.0,-0.000122000005,0.0002595,1742093311.753851
0.028,-0.00275,0.25125,0.00054925,1.5250001e-05,-0.000122000005,1742093311.768064
0.02725,-0.0045,0.2465,0.00045775,-7.625e-05,-0.00019825,1742093311.7824798
0.027,-0.00475,0.246,-9.15e-05,-0.00030525,-0.000183,1742093311.7969768
0.0265,-0.00425,0.24825,-0.00131225,-0.0007935,1.5250001e-05,1742093311.811382
0.02575,-0.0025,0.25225,-0.0013427499,-0.000763,3.0500001e-05,1742093311.825757
0.026,-0.002,0.25125,-0.00093075,-0.00051875,-0.00010675,1742093311.840278
0.02625,-0.00125,0.25075,-0.00068675,-0.000412,-0.00019825,1742093311.8548899
0.02625,-0.0015,0.24925,-0.00074775,-0.00051875,-0.0002595,1742093311.8694358
0.02625,-0.0005,0.2515,-0.0009155,-0.00068675,-0.00029,1742093311.883965
0.026,-0.00075,0.2525,-0.0004425,-0.00051875,-0.00059500005,1742093311.898495
0.02575,-0.0015,0.2515,-9.15e-05,-0.00035100002,-0.000763,1742093311.9138072
0.02575,-0.002,0.251,0.000122000005,-0.00029,-0.000885,1742093311.927568
0.02575,-0.00225,0.2505,0.00029,-0.0003815,-0.000885,1742093311.941995
0.02575,-0.002,0.25,0.00029,-0.0003815,-0.000885,1742093311.956409
0.0255,-0.0015,0.24925,4.575e-05,-0.00039675,-0.00096125,1742093311.970849
0.02525,-0.001,0.251,-0.0001525,-0.00042725,-0.0009765,1742093311.9855008
0.02525,0.0,0.252,4.575e-05,-6.1000002e-05,-0.00115975,1742093311.999871
0.02475,-0.00075,0.25325,0.00039675,0.00029,-0.0014495,1742093312.014417
0.024,-0.00175,0.25225,0.00080875,0.00059500005,-0.0016632499,1742093312.028487
0.02425,-0.0035,0.249,0.00105275,0.00065625,-0.0012207499,1742093312.0433102
0.02475,-0.003,0.249,0.00086975005,0.000473,-0.00093075,1742093312.057395
0.02525,-0.0025,0.25025,0.00054925,0.00030525,-0.00067150005,1742093312.071743
0.02575,-0.00275,0.2515,0.00065625,0.0003815,-0.00064075,1742093312.086114
0.02575,-0.00325,0.25025,0.00083925005,0.000412,-0.00057975,1742093312.10059
0.0255,-0.00375,0.249,0.00061025,0.0003205,-0.00051875,1742093312.114862
0.0255,-0.0035,0.25025,0.000183,0.00029,-0.0004425,1742093312.129152
0.026,-0.00375,0.2515,0.0003205,0.0003205,-0.00042725,1742093312.143716
0.026,-0.004,0.25075,0.00057975,0.00029,-0.000412,1742093312.157849
0.026,-0.00425,0.24975,0.00071725,1.5250001e-05,-0.0002595,1742093312.17238
0.026,-0.00375,0.25075,0.00064075,-4.575e-05,-0.000183,1742093312.186832
0.02625,-0.00375,0.25075,0.00059500005,3.0500001e-05,-0.0001525,1742093312.201232
0.0265,-0.004,0.25025,0.00057975,3.0500001e-05,-0.00019825,1742093312.215561
0.02625,-0.0045,0.24975,0.000473,-4.575e-05,-0.00024425,1742093312.230062
0.026,-0.0055,0.249,0.0003205,-0.00010675,-0.0002135,1742093312.244583
0.02625,-0.0055,0.24875,9.15e-05,-0.000229,-0.00016775,1742093312.259136
0.02575,-0.0055,0.251,-0.0002135,-0.000534,-0.000122000005,1742093312.2745368
0.025,-0.00525,0.25225,-0.00010675,-0.0005645,-9.15e-05,1742093312.288245
0.02475,-0.00475,0.25225,0.00062550005,-0.00030525,-9.15e-05,1742093312.30268
0.02525,-0.00375,0.2515,0.00093075,-0.00019825,-9.15e-05,1742093312.3171751
0.0255,-0.0035,0.25125,0.00119025,-7.625e-05,-0.00010675,1742093312.331669
0.02525,-0.0045,0.251,0.00125125,-3.0500001e-05,-0.0001525,1742093312.346153
0.02525,-0.00575,0.2505,0.00131225,3.0500001e-05,-0.00016775,1742093312.36055
0.02475,-0.00775,0.249,0.00115975,3.0500001e-05,-0.000122000005,1742093312.375177
0.02525,-0.00775,0.249,0.0005645,9.15e-05,1.5250001e-05,1742093312.3894699
0.02575,-0.00725,0.24975,0.00035100002,0.00013725001,0.0,1742093312.404086
0.02575,-0.007,0.25025,0.0002595,0.000183,-3.0500001e-05,1742093312.418141
0.026,-0.00675,0.24975,3.0500001e-05,0.00016775,-9.15e-05,1742093312.433494
0.02625,-0.0065,0.2495,-0.000229,0.00010675,-6.1000002e-05,1742093312.4468942
0.02575,-0.00625,0.25075,-0.00042725,1.5250001e-05,-3.0500001e-05,1742093312.461419
0.02525,-0.00575,0.25225,-0.00027475,7.625e-05,-6.1000002e-05,1742093312.475898
0.02525,-0.006,0.2515,0.000122000005,0.00029,-0.00010675,1742093312.490277
0.0255,-0.006,0.2495,6.1000002e-05,0.0003205,-0.000122000005,1742093312.504674
0.026,-0.00575,0.25025,-0.000122000005,0.00030525,-0.00010675,1742093312.519216
0.0265,-0.00575,0.25125,-9.15e-05,0.00030525,-0.0001525,1742093312.533856
0.02625,-0.00625,0.25,9.15e-05,0.00029,-0.0002135,1742093312.547997
0.026,-0.0065,0.249,-1.5250001e-05,0.0002135,-0.0002135,1742093312.5624828
0.026,-0.007,0.24975,-0.0002135,0.0002135,-0.000183,1742093312.576906
0.02575,-0.007,0.25,-0.000473,0.000183,-9.15e-05,1742093312.5914938
0.026,-0.0065,0.24975,-0.000534,0.00010675,-7.625e-05,1742093312.606006
0.0265,-0.0055,0.25025,-0.0005645,6.1000002e-05,-0.00010675,1742093312.6203752
0.0265,-0.00425,0.2515,-0.00048825,0.000122000005,-0.0001525,1742093312.634911
0.02625,-0.0045,0.25125,-0.00036625,0.00019825,-0.00019825,1742093312.649399
0.026,-0.00475,0.251,-7.625e-05,0.0002595,-0.00024425,1742093312.664109
0.02625,-0.00575,0.2505,6.1000002e-05,0.00024425,-0.00024425,1742093312.678159
0.02625,-0.00625,0.25025,0.0001525,0.000229,-0.0001525,1742093312.6924758
0.02625,-0.00625,0.24975,0.00010675,0.00019825,-9.15e-05,1742093312.706741
0.0265,-0.006,0.24975,-6.1000002e-05,0.00013725001,-1.5250001e-05,1742093312.7211342
0.02675,-0.0055,0.2505,-0.0001525,0.00010675,3.0500001e-05,1742093312.735451
0.027,-0.005,0.25125,-0.000183,7.625e-05,4.575e-05,1742093312.749761
0.027,-0.005,0.25125,6.1000002e-05,9.15e-05,-4.575e-05,1742093312.764197
0.02675,-0.0055,0.24975,0.00013725001,6.1000002e-05,-9.15e-05,1742093312.7785869
0.0265,-0.00575,0.2495,-9.15e-05,-6.1000002e-05,-6.1000002e-05,1742093312.793877
0.02625,-0.00625,0.2495,-0.00030525,-0.00010675,-3.0500001e-05,1742093312.807633
0.0265,-0.00575,0.24925,-0.00065625,-0.00016775,0.0,1742093312.82196
0.027,-0.00475,0.25,-0.00080875,-0.000229,0.0,1742093312.8363688
0.027,-0.004,0.2515,-0.00062550005,-0.00027475,-9.15e-05,1742093312.8508742
0.02725,-0.00325,0.25425,-7.625e-05,-0.00019825,-0.000229,1742093312.865433
0.02675,-0.00425,0.2535,0.00077825,-7.625e-05,-0.00042725,1742093312.879922
0.02575,-0.00575,0.2515,0.00201425,0.00019825,-0.00070200005,1742093312.8942878
0.0255,-0.00675,0.24875,0.0019989999,0.0003205,-0.00065625,1742093312.908725
0.02625,-0.00625,0.24875,0.0012665,0.000412,-0.00048825,1742093312.92305
0.0265,-0.00625,0.2505,0.001007,0.000473,-0.00054925,1742093312.937367
0.0265,-0.00675,0.25025,0.000763,0.00061025,-0.0005035,1742093312.951853
0.02675,-0.00775,0.24875,0.00054925,0.00059500005,-0.00035100002,1742093312.966135
0.027,-0.00775,0.249,0.00030525,0.00051875,-0.00024425,1742093312.980481
0.027,-0.008,0.2495,9.15e-05,0.00039675,-0.00016775,1742093312.994982
0.02725,-0.0075,0.24975,3.0500001e-05,0.00039675,-0.00013725001,1742093313.009275
0.02725,-0.0075,0.2495,-0.000229,0.00035100002,-7.625e-05,1742093313.0237188
0.02725,-0.007,0.25,-0.00039675,0.00027475,0.0,1742093313.0381582
0.0275,-0.0065,0.2515,-0.00030525,0.0003205,4.575e-05,1742093313.052597
0.028,-0.006,0.25175,-1.5250001e-05,0.000412,0.0,1742093313.0669792
0.02775,-0.00625,0.25075,0.0002595,0.0003815,-4.575e-05,1742093313.081289
0.02775,-0.00675,0.25,0.00016775,0.00029,-3.0500001e-05,1742093313.0957282
0.02775,-0.0065,0.2505,7.625e-05,0.0002595,-3.0500001e-05,1742093313.109961
0.02775,-0.007,0.251,0.0002135,0.00033575002,-3.0500001e-05,1742093313.125142
0.0275,-0.00775,0.24975,0.00029,0.0003815,0.0,1742093313.1387
0.02775,-0.00775,0.2485,0.0,0.00035100002,0.00013725001,1742093313.15398
0.02825,-0.0075,0.24925,-0.00030525,0.00029,0.00019825,1742093313.167379
0.02825,-0.00725,0.24975,-0.00068675,0.0002135,0.0002595,1742093313.181741
0.028,-0.0075,0.24825,-0.00077825,0.000183,0.0002595,1742093313.1961348
0.02775,-0.00775,0.247,-0.00102225,0.0001525,0.00029,1742093313.210509
0.02775,-0.00775,0.247,-0.0020905002,-3.0500001e-05,0.00054925,1742093313.2249799
0.02925,-0.0045,0.25325,-0.00228875,-0.00016775,0.00064075,1742093313.239454
0.0295,-0.00275,0.2545,-0.00102225,-0.0002595,0.00033575002,1742093313.254049
0.02875,-0.003,0.25075,-0.0004425,-0.000229,0.000122000005,1742093313.268455
0.02875,-0.00325,0.25,-0.00035100002,-0.00027475,-7.625e-05,1742093313.283797
0.028,-0.00475,0.251,-0.00033575002,-0.00027475,-0.000122000005,1742093313.2974231
0.02775,-0.00525,0.25075,-4.575e-05,-0.000229,-0.00019825,1742093313.311983
0.0275,-0.005,0.25025,3.0500001e-05,-0.00019825,-0.0002135,1742093313.326447
0.0275,-0.00475,0.25,6.1000002e-05,-0.00013725001,-0.000229,1742093313.340897
0.0275,-0.00475,0.24975,-1.5250001e-05,-0.00010675,-0.0002135,1742093313.355444
0.0275,-0.005,0.24975,-0.00013725001,-0.0001525,-0.000183,1742093313.369931
0.0275,-0.00475,0.24975,-0.00035100002,-0.00010675,-0.00010675,1742093313.384491
0.027,-0.0045,0.24925,-0.0005035,-6.1000002e-05,-9.15e-05,1742093313.399047
0.02725,-0.00425,0.24975,-0.000763,-3.0500001e-05,-7.625e-05,1742093313.413888
0.0275,-0.00375,0.25075,-0.00077825,0.0,-9.15e-05,1742093313.428019
0.0275,-0.0035,0.25075,-0.0005645,0.000122000005,-0.00010675,1742093313.442451
0.02775,-0.0035,0.24975,-0.000473,0.00016775,-9.15e-05,1742093313.456838
0.02775,-0.0035,0.24925,-0.00051875,0.00016775,-7.625e-05,1742093313.471255
0.02775,-0.0035,0.2495,-0.0007935,0.00013725001,-3.0500001e-05,1742093313.48577
0.02775,-0.00275,0.25025,-0.0009155,0.00016775,-1.5250001e-05,1742093313.5001369
0.02775,-0.00275,0.25025,-0.0009155,0.000183,-3.0500001e-05,1742093313.514585
0.0275,-0.00325,0.24975,-0.000885,0.0001525,-3.0500001e-05,1742093313.528995
0.02725,-0.00325,0.2495,-0.0009765,7.625e-05,6.1000002e-05,1742093313.543833
0.028,-0.00175,0.25075,-0.00099175,4.575e-05,0.000122000005,1742093313.55776
0.02825,-0.00075,0.2515,-0.00064075,6.1000002e-05,6.1000002e-05,1742093313.572104
0.0285,-0.0005,0.252,-0.00029,0.000122000005,-4.575e-05,1742093313.586602
0.02825,-0.001,0.2515,6.1000002e-05,0.00019825,-0.0001525,1742093313.600965
0.02775,-0.0015,0.25,0.00027475,0.0003205,-0.0002135,1742093313.615278
0.0275,-0.00225,0.248,4.575e-05,0.00027475,-0.000122000005,1742093313.629684
0.028,-0.002,0.249,-0.00051875,0.00013725001,0.0,1742093313.6440692
0.02825,-0.00175,0.25,-0.00054925,0.0001525,-1.5250001e-05,1742093313.6584792
0.028,-0.00175,0.24925,-0.00062550005,0.0001525,-1.5250001e-05,1742093313.672926
0.028,-0.00125,0.2495,-0.00077825,6.1000002e-05,6.1000002e-05,1742093313.687264
0.02825,-0.001,0.25075,-0.000885,-3.0500001e-05,0.00010675,1742093313.701747
0.02825,-0.0005,0.2515,-0.00067150005,-3.0500001e-05,3.0500001e-05,1742093313.7162519
0.02825,0.0,0.25075,-0.00048825,0.0,-1.5250001e-05,1742093313.7306821
0.02825,0.0,0.25,-0.00027475,3.0500001e-05,-3.0500001e-05,1742093313.744968
0.02825,-0.0005,0.2505,-0.00024425,3.0500001e-05,-3.0500001e-05,1742093313.759439
0.02825,-0.0005,0.25075,-7.625e-05,9.15e-05,-6.1000002e-05,1742093313.775382
0.0285,-0.00025,0.25,3.0500001e-05,0.000122000005,-9.15e-05,1742093313.7883909
0.0285,-0.0005,0.25,1.5250001e-05,0.00013725001,-0.0001525,1742093313.803896
0.0285,-0.00075,0.2505,1.5250001e-05,0.00024425,-0.00019825,1742093313.8171678
0.0285,-0.00075,0.25,4.575e-05,0.00033575002,-0.0002135,1742093313.8314428
0.02875,-0.0005,0.2505,3.0500001e-05,0.00036625,-0.0002135,1742093313.845846
0.029,0.0005,0.253,0.000229,0.00048825,-0.00030525,1742093313.86019
0.029,0.0,0.25175,0.000946,0.0008545,-0.00054925,1742093313.874336
0.02825,-0.00175,0.24725,0.00102225,0.0008545,-0.0005645,1742093313.88873
0.028,-0.00275,0.24375,0.0003815,0.00065625,-0.00036625,1742093313.903865
0.029,-0.00075,0.24975,-0.0002135,0.000473,-0.00019825,1742093313.917546
0.02975,-0.0,0.2525,-0.000534,0.00039675,-0.00016775,1742093313.931972
0.03025,0.00025,0.25325,0.00013725001,0.00054925,-0.00042725,1742093313.94625
0.03,-0.00125,0.2495,0.0005035,0.0005035,-0.0004425,1742093313.960664
0.02975,-0.0015,0.24875,0.000473,0.00013725001,-0.00033575002,1742093313.975106
0.0295,-0.0015,0.249,0.00029,0.00010675,-0.00029,1742093313.989353
0.0295,-0.002,0.24925,-1.5250001e-05,0.00010675,-0.000183,1742093314.003917
0.0295,-0.0025,0.2485,-0.00013725001,4.575e-05,-0.00010675,1742093314.018247
0.0295,-0.00225,0.2485,-0.00030525,-4.575e-05,-3.0500001e-05,1742093314.033846
0.0295,-0.00175,0.24875,-0.000824,-9.15e-05,9.15e-05,1742093314.0473971
0.02975,-0.00075,0.25025,-0.0010375,-0.00010675,0.00013725001,1742093314.0618439
0.02975,-0.00025,0.25175,-0.00068675,-0.00013725001,7.625e-05,1742093314.076355
0.03,-0.00025,0.2505,-0.0003815,-0.00013725001,1.5250001e-05,1742093314.09075
0.02975,-0.00025,0.25025,-0.000183,-0.00013725001,0.0,1742093314.105231
0.0295,-0.00025,0.25,-0.00016775,-0.00013725001,0.0,1742093314.119692
0.02925,-0.0005,0.25,-0.0001525,-0.0001525,-1.5250001e-05,1742093314.13412
0.02925,-0.0005,0.25025,-0.000122000005,-0.000122000005,-4.575e-05,1742093314.1485739
0.0295,-0.0005,0.24975,-7.625e-05,-7.625e-05,-6.1000002e-05,1742093314.163478
0.02925,-0.00025,0.2495,-1.5250001e-05,-9.15e-05,-1.5250001e-05,1742093314.17767
0.02925,0.00025,0.25,-6.1000002e-05,-0.00016775,-1.5250001e-05,1742093314.1920462
0.02925,0.00025,0.25025,-0.00013725001,-0.00016775,-1.5250001e-05,1742093314.206534
0.0295,-0.00025,0.25025,-0.000122000005,-0.00010675,-1.5250001e-05,1742093314.221204
0.0295,-0.0005,0.25,-0.00010675,-1.5250001e-05,-3.0500001e-05,1742093314.235698
0.02925,-0.0005,0.24975,-0.000122000005,-1.5250001e-05,-1.5250001e-05,1742093314.250098
0.02925,-0.0005,0.24975,-0.00013725001,0.0,3.0500001e-05,1742093314.266081
0.02925,-0.0005,0.24975,-0.000122000005,-4.575e-05,4.575e-05,1742093314.278835
0.02925,0.0,0.25,-0.00010675,-0.00010675,6.1000002e-05,1742093314.293919
0.02925,0.0005,0.25025,-3.0500001e-05,-0.0001525,1.5250001e-05,1742093314.307486
0.029,0.00025,0.24975,-3.0500001e-05,-0.00010675,-3.0500001e-05,1742093314.321959
0.029,-0.0,0.24975,-6.1000002e-05,-7.625e-05,-6.1000002e-05,1742093314.336431
0.02925,0.0,0.25025,-6.1000002e-05,-9.15e-05,-7.625e-05,1742093314.350848
0.02925,0.00025,0.25,-6.1000002e-05,-0.00010675,-9.15e-05,1742093314.3653681
0.02925,0.0,0.2495,-9.15e-05,-0.00010675,-9.15e-05,1742093314.3798459
0.02925,-0.0,0.24975,-0.00010675,-0.00016775,-7.625e-05,1742093314.394536
0.029,0.00025,0.25,-0.00010675,-0.00016775,-6.1000002e-05,1742093314.409039
0.02875,0.00025,0.24975,-0.00010675,-0.000122000005,-6.1000002e-05,1742093314.425241
0.02875,0.00025,0.24975,-0.000122000005,0.0,-0.00010675,1742093314.4378471
0.02875,0.00025,0.25025,-9.15e-05,6.1000002e-05,-0.000122000005,1742093314.4523032
0.02875,0.00025,0.25,-1.5250001e-05,7.625e-05,-6.1000002e-05,1742093314.466681
0.029,0.00025,0.24975,-4.575e-05,3.0500001e-05,-4.575e-05,1742093314.480955
0.029,0.00025,0.24975,-0.000122000005,-4.575e-05,-4.575e-05,1742093314.495352
0.02925,0.00025,0.25,-0.00013725001,-6.1000002e-05,-4.575e-05,1742093314.5097332
0.02925,0.00025,0.25,-0.000122000005,-7.625e-05,-3.0500001e-05,1742093314.525821
0.029,0.0005,0.24975,-0.0001525,-0.0001525,-3.0500001e-05,1742093314.53866
0.02875,0.0005,0.25,-0.000183,-0.00016775,-4.575e-05,1742093314.554237
0.02875,0.00075,0.25025,-0.0002135,-0.000122000005,-7.625e-05,1742093314.567551
0.0285,0.0005,0.2505,-0.00019825,-7.625e-05,-7.625e-05,1742093314.5820348
0.02825,0.0005,0.25025,-0.0001525,-3.0500001e-05,-0.00010675,1742093314.596437
0.02875,0.0005,0.25025,-0.000122000005,-4.575e-05,-0.000122000005,1742093314.61095
0.02875,0.00025,0.25025,-6.1000002e-05,-4.575e-05,-0.00010675,1742093314.625372
0.02875,0.00075,0.25,-3.0500001e-05,-3.0500001e-05,-0.00010675,1742093314.639839
0.02875,0.00075,0.24975,-1.5250001e-05,0.0,-0.000122000005,1742093314.654197
0.02875,0.0005,0.24975,-4.575e-05,4.575e-05,-0.00013725001,1742093314.668513
0.02875,0.00025,0.25,-4.575e-05,9.15e-05,-0.00013725001,1742093314.684149
0.02875,0.0005,0.25025,-6.1000002e-05,0.0001525,-0.00013725001,1742093314.697258
0.029,0.00075,0.25,-6.1000002e-05,0.00013725001,-0.00013725001,1742093314.711545
0.029,0.00075,0.25,-9.15e-05,4.575e-05,-0.000122000005,1742093314.7259579
0.02875,0.001,0.25025,-7.625e-05,1.5250001e-05,-0.00010675,1742093314.740213
0.02875,0.00125,0.25025,-6.1000002e-05,0.0,-0.00010675,1742093314.754696
0.02875,0.00125,0.25,-4.575e-05,6.1000002e-05,-9.15e-05,1742093314.768845
0.02875,0.00075,0.25,-4.575e-05,7.625e-05,-0.00010675,1742093314.783392
0.02875,0.00075,0.25025,-3.0500001e-05,7.625e-05,-0.00010675,1742093314.797695
0.0285,0.00075,0.25025,-3.0500001e-05,0.00010675,-9.15e-05,1742093314.81192
0.0285,0.001,0.25,-1.5250001e-05,0.00013725001,-7.625e-05,1742093314.8263
0.02875,0.001,0.25,1.5250001e-05,0.00013725001,-7.625e-05,1742093314.8404968
0.02875,0.001,0.25025,4.575e-05,0.00013725001,-7.625e-05,1742093314.8548338
0.029,0.001,0.25,3.0500001e-05,0.00010675,-6.1000002e-05,1742093314.869171
0.029,0.00075,0.25025,1.5250001e-05,0.00010675,-4.575e-05,1742093314.884232
0.029,0.001,0.25025,-3.0500001e-05,0.0001525,-6.1000002e-05,1742093314.897911
0.029,0.0005,0.25,-3.0500001e-05,0.0001525,-6.1000002e-05,1742093314.913585
0.029,0.00025,0.25,0.0,0.00013725001,0.0,1742093314.926445
0.029,0.00075,0.25,4.575e-05,0.0001525,1.5250001e-05,1742093314.940785
0.02925,0.001,0.25025,7.625e-05,0.000183,1.5250001e-05,1742093314.955071
0.02925,0.001,0.25025,0.00010675,0.0002135,1.5250001e-05,1742093314.969205
0.0295,0.0005,0.24975,0.00010675,0.00019825,1.5250001e-05,1742093314.9840739
0.02975,0.00075,0.25,6.1000002e-05,0.00013725001,-3.0500001e-05,1742093314.997762
0.0295,0.00075,0.25,1.5250001e-05,0.000122000005,-6.1000002e-05,1742093315.012054
0.02925,0.001,0.25,-3.0500001e-05,4.575e-05,-9.15e-05,1742093315.026342
0.0295,0.00075,0.25025,-3.0500001e-05,0.0,-9.15e-05,1742093315.040763
0.0295,0.00075,0.25025,-3.0500001e-05,-3.0500001e-05,-9.15e-05,1742093315.0552802
0.0295,0.001,0.25,-3.0500001e-05,-3.0500001e-05,-0.00010675,1742093315.0697181
0.02925,0.00075,0.24975,-1.5250001e-05,-3.0500001e-05,-0.00010675,1742093315.0843709
0.02925,0.00075,0.25,1.5250001e-05,-1.5250001e-05,-0.000122000005,1742093315.098746
0.029,0.00075,0.25,3.0500001e-05,1.5250001e-05,-0.000122000005,1742093315.11391
0.02925,0.001,0.25,3.0500001e-05,0.00010675,-0.00013725001,1742093315.127462
0.0295,0.001,0.2495,1.5250001e-05,0.000122000005,-0.00013725001,1742093315.141848
0.0295,0.00075,0.24975,-6.1000002e-05,7.625e-05,-0.0001525,1742093315.156254
0.0295,0.00025,0.25025,-6.1000002e-05,9.15e-05,-0.0001525,1742093315.170797
0.0295,0.00025,0.25025,-1.5250001e-05,0.00013725001,-0.0001525,1742093315.1849558
0.0295,0.001,0.25,3.0500001e-05,0.00013725001,-0.000122000005,1742093315.199358
0.0295,0.0015,0.25,1.5250001e-05,9.15e-05,-0.00010675,1742093315.214237
0.0295,0.0015,0.25025,-3.0500001e-05,6.1000002e-05,-0.00010675,1742093315.227712
0.02925,0.00075,0.24975,-3.0500001e-05,0.00010675,-0.00010675,1742093315.2421162
0.02925,0.00075,0.24925,1.5250001e-05,0.00016775,-0.00010675,1742093315.256383
0.0295,0.0005,0.25,4.575e-05,0.0001525,-9.15e-05,1742093315.270765
0.02975,0.00075,0.25,6.1000002e-05,9.15e-05,-7.625e-05,1742093315.2850418
0.02975,0.00125,0.24975,3.0500001e-05,0.0,-4.575e-05,1742093315.2993312
0.03,0.001,0.24925,-4.575e-05,-4.575e-05,-3.0500001e-05,1742093315.313874
0.03,0.00025,0.25,-0.0001525,-6.1000002e-05,0.0,1742093315.328193
0.02975,0.00025,0.25,-0.0001525,-3.0500001e-05,1.5250001e-05,1742093315.343723
0.0295,0.001,0.25,-9.15e-05,9.15e-05,-1.5250001e-05,1742093315.356964
0.02975,0.00125,0.25025,-4.575e-05,0.00019825,-4.575e-05,1742093315.371273
0.02975,0.00125,0.25,-3.0500001e-05,0.00024425,-6.1000002e-05,1742093315.385681
0.0295,0.00125,0.24975,-4.575e-05,9.15e-05,-6.1000002e-05,1742093315.400057
0.0295,0.00075,0.2495,-4.575e-05,-1.5250001e-05,-4.575e-05,1742093315.414525
0.02975,0.00075,0.24975,-3.0500001e-05,-0.00016775,-3.0500001e-05,1742093315.429161
0.0295,0.00125,0.25,-3.0500001e-05,-0.0002135,-4.575e-05,1742093315.443676
0.02925,0.0015,0.25,0.0,-0.0002595,-4.575e-05,1742093315.4579258
0.02925,0.00125,0.25025,3.0500001e-05,-0.00024425,-3.0500001e-05,1742093315.472265
0.02925,0.001,0.2505,6.1000002e-05,-0.0001525,-3.0500001e-05,1742093315.486651
0.02925,0.001,0.2495,7.625e-05,-9.15e-05,-3.0500001e-05,1742093315.5009449
0.029,0.001,0.24925,9.15e-05,-1.5250001e-05,-4.575e-05,1742093315.5152571
0.029,0.001,0.2495,6.1000002e-05,9.15e-05,-9.15e-05,1742093315.529547
0.0295,0.0005,0.24975,3.0500001e-05,0.0001525,-0.000122000005,1742093315.544236
0.0295,0.00075,0.2495,0.0,0.0002135,-0.000122000005,1742093315.558178
0.0295,0.00075,0.25,0.0,0.00019825,-0.00013725001,1742093315.572321
0.02975,0.0005,0.25025,0.0,0.0001525,-0.0001525,1742093315.586653
0.03,0.0005,0.25025,-1.5250001e-05,4.575e-05,-0.00010675,1742093315.600925
0.03,0.0015,0.25,-3.0500001e-05,-1.5250001e-05,-7.625e-05,1742093315.615339
0.03,0.002,0.25025,-7.625e-05,-0.00013725001,-7.625e-05,1742093315.6298392
0.02925,0.0015,0.2505,-9.15e-05,-0.0001525,-7.625e-05,1742093315.644289
0.029,0.001,0.25025,-7.625e-05,-4.575e-05,-6.1000002e-05,1742093315.658713
0.02925,0.001,0.25,-3.0500001e-05,3.0500001e-05,-7.625e-05,1742093315.673185
0.0295,0.001,0.2505,3.0500001e-05,0.00016775,-7.625e-05,1742093315.687445
0.03,0.00125,0.25,6.1000002e-05,0.00019825,-7.625e-05,1742093315.701725
0.03,0.00125,0.24975,9.15e-05,0.000183,-7.625e-05,1742093315.716059
0.03,0.001,0.25,6.1000002e-05,0.00010675,-7.625e-05,1742093315.7302458
0.0295,0.001,0.25025,3.0500001e-05,0.000122000005,-9.15e-05,1742093315.744558
0.0295,0.001,0.24975,1.5250001e-05,0.00019825,-0.00010675,1742093315.758844
0.02975,0.001,0.24925,0.0,0.00016775,-0.00010675,1742093315.7729971
0.0295,0.001,0.24975,-4.575e-05,3.0500001e-05,-9.15e-05,1742093315.7875478
0.02975,0.00125,0.2505,-3.0500001e-05,4.575e-05,-7.625e-05,1742093315.8019042
0.02975,0.00125,0.25025,0.0,7.625e-05,-7.625e-05,1742093315.8161201
0.02975,0.001,0.25,0.0,0.00010675,-6.1000002e-05,1742093315.8303611
0.02975,0.00075,0.24975,-1.5250001e-05,7.625e-05,-4.575e-05,1742093315.844668
0.02975,0.001,0.25,-1.5250001e-05,6.1000002e-05,-1.5250001e-05,1742093315.858975
0.02975,0.00125,0.2495,0.0,6.1000002e-05,-1.5250001e-05,1742093315.8731341
0.02975,0.00125,0.2495,-3.0500001e-05,3.0500001e-05,0.0,1742093315.887316
0.02975,0.00125,0.24975,-0.000122000005,-7.625e-05,-1.5250001e-05,1742093315.9018261
0.0295,0.00125,0.24975,-0.00013725001,-0.00013725001,0.0,1742093315.916308
0.02975,0.00125,0.25,-0.00010675,-0.00013725001,-1.5250001e-05,1742093315.9307232
0.02975,0.001,0.25025,-7.625e-05,-0.00010675,-1.5250001e-05,1742093315.9453719
0.02975,0.001,0.25025,0.0,-4.575e-05,-1.5250001e-05,1742093315.959709
0.02975,0.0015,0.25,4.575e-05,-1.5250001e-05,-3.0500001e-05,1742093315.9755242
0.0295,0.00175,0.24975,7.625e-05,-3.0500001e-05,-6.1000002e-05,1742093315.988638
0.02975,0.0015,0.2495,4.575e-05,-4.575e-05,-7.625e-05,1742093316.004854
0.02975,0.0015,0.24975,0.0,-3.0500001e-05,-7.625e-05,1742093316.0172591
0.02975,0.00125,0.2495,-6.1000002e-05,1.5250001e-05,-9.15e-05,1742093316.0316658
0.02975,0.001,0.2505,-6.1000002e-05,3.0500001e-05,-0.000122000005,1742093316.0459142
0.02975,0.00125,0.2505,3.0500001e-05,0.000122000005,-0.000122000005,1742093316.0600908
0.03,0.0015,0.24975,4.575e-05,0.0001525,-0.000122000005,1742093316.074933
0.03025,0.00125,0.25,0.0,0.000122000005,-0.000122000005,1742093316.0887702
0.03,0.00125,0.25025,1.5250001e-05,9.15e-05,-9.15e-05,1742093316.1040099
0.02975,0.00125,0.25,1.5250001e-05,9.15e-05,-7.625e-05,1742093316.117253
0.02975,0.00125,0.25,4.575e-05,0.00013725001,-9.15e-05,1742093316.131551
0.03,0.00125,0.25,6.1000002e-05,0.0001525,-9.15e-05,1742093316.145782
0.03,0.00125,0.25,3.0500001e-05,0.00013725001,-9.15e-05,1742093316.160085
0.03025,0.00125,0.24975,1.5250001e-05,0.00010675,-7.625e-05,1742093316.174793
0.03,0.001,0.24975,1.5250001e-05,6.1000002e-05,-6.1000002e-05,1742093316.188529
0.02975,0.001,0.24975,0.0,4.575e-05,-6.1000002e-05,1742093316.20397
0.02975,0.00125,0.24975,-1.5250001e-05,4.575e-05,-4.575e-05,1742093316.2171252
0.02975,0.00125,0.24975,-1.5250001e-05,3.0500001e-05,-3.0500001e-05,1742093316.231542
0.03,0.00125,0.2505,-1.5250001e-05,-1.5250001e-05,-1.5250001e-05,1742093316.246003
0.03,0.00125,0.2505,-3.0500001e-05,-6.1000002e-05,-1.5250001e-05,1742093316.260437
0.02975,0.00125,0.24975,-1.5250001e-05,-6.1000002e-05,-1.5250001e-05,1742093316.27531
0.02975,0.0015,0.24975,3.0500001e-05,-6.1000002e-05,-3.0500001e-05,1742093316.2892349
0.03,0.00125,0.25,3.0500001e-05,-4.575e-05,-3.0500001e-05,1742093316.303925
0.03,0.001,0.25,3.0500001e-05,-3.0500001e-05,-3.0500001e-05,1742093316.318167
0.02975,0.001,0.24975,6.1000002e-05,3.0500001e-05,-1.5250001e-05,1742093316.33242
0.02975,0.001,0.24975,4.575e-05,6.1000002e-05,-3.0500001e-05,1742093316.346794
0.03,0.00125,0.25,1.5250001e-05,0.00010675,-9.15e-05,1742093316.361192
0.03,0.001,0.24975,1.5250001e-05,9.15e-05,-0.00010675,1742093316.3753972
0.03,0.00125,0.24975,3.0500001e-05,7.625e-05,-9.15e-05,1742093316.389759
0.03,0.0015,0.24975,4.575e-05,9.15e-05,-9.15e-05,1742093316.40401
0.03,0.00125,0.24975,4.575e-05,9.15e-05,-9.15e-05,1742093316.418269
0.03,0.00125,0.24975,3.0500001e-05,9.15e-05,-0.00010675,1742093316.433344
0.02975,0.001,0.24975,1.5250001e-05,9.15e-05,-0.000122000005,1742093316.446806
0.0295,0.00125,0.25,1.5250001e-05,4.575e-05,-0.00013725001,1742093316.461047
0.03,0.0015,0.2495,3.0500001e-05,4.575e-05,-0.000122000005,1742093316.475979
0.03025,0.00125,0.24975,6.1000002e-05,1.5250001e-05,-9.15e-05,1742093316.489525
0.02975,0.0015,0.25025,9.15e-05,1.5250001e-05,-9.15e-05,1742093316.504032
0.02975,0.0015,0.25025,0.00010675,4.575e-05,-9.15e-05,1742093316.518025
0.03,0.0015,0.24975,4.575e-05,3.0500001e-05,-9.15e-05,1742093316.532285
0.03,0.001,0.25,1.5250001e-05,3.0500001e-05,-9.15e-05,1742093316.546539
0.03,0.00075,0.25,-1.5250001e-05,6.1000002e-05,-9.15e-05,1742093316.5609732
0.03,0.001,0.25,-1.5250001e-05,6.1000002e-05,-7.625e-05,1742093316.5756018
0.03025,0.00125,0.24975,-1.5250001e-05,7.625e-05,-7.625e-05,1742093316.589646
0.03025,0.00125,0.24975,-1.5250001e-05,6.1000002e-05,-6.1000002e-05,1742093316.6039429
0.03025,0.00125,0.24975,0.0,0.0,-4.575e-05,1742093316.618103
0.0305,0.0015,0.25,1.5250001e-05,-1.5250001e-05,-6.1000002e-05,1742093316.632406
0.02975,0.00175,0.25,1.5250001e-05,4.575e-05,-6.1000002e-05,1742093316.646541
0.02975,0.0015,0.25,4.575e-05,6.1000002e-05,-3.0500001e-05,1742093316.660817
0.02975,0.00125,0.25025,6.1000002e-05,6.1000002e-05,-1.5250001e-05,1742093316.675781
0.03,0.00125,0.25,9.15e-05,7.625e-05,-3.0500001e-05,1742093316.6892312
0.03025,0.00125,0.24975,7.625e-05,7.625e-05,-4.575e-05,1742093316.7038238
0.03025,0.00125,0.2495,4.575e-05,6.1000002e-05,-6.1000002e-05,1742093316.7178361
0.03,0.001,0.24975,6.1000002e-05,3.0500001e-05,-3.0500001e-05,1742093316.7322612
0.03,0.001,0.25,4.575e-05,6.1000002e-05,-3.0500001e-05,1742093316.746521
0.03025,0.001,0.24975,1.5250001e-05,0.0001525,-4.575e-05,1742093316.7608309
0.03,0.001,0.25,1.5250001e-05,0.00016775,-6.1000002e-05,1742093316.776175
0.03,0.001,0.25,4.575e-05,0.000183,-6.1000002e-05,1742093316.789249
0.03025,0.001,0.25,9.15e-05,0.000183,-4.575e-05,1742093316.804112
0.0305,0.0015,0.25,9.15e-05,0.000122000005,-3.0500001e-05,1742093316.817848
0.0305,0.00125,0.24975,6.1000002e-05,0.0,0.0,1742093316.831914
0.0305,0.001,0.25,6.1000002e-05,-3.0500001e-05,0.0,1742093316.846126
0.03025,0.001,0.25,4.575e-05,-1.5250001e-05,-1.5250001e-05,1742093316.860489
0.03,0.001,0.25,1.5250001e-05,3.0500001e-05,-1.5250001e-05,1742093316.8758788
0.03,0.00075,0.25,1.5250001e-05,7.625e-05,-3.0500001e-05,1742093316.888962
0.03,0.0005,0.25,4.575e-05,0.00013725001,-3.0500001e-05,1742093316.904321
0.03075,0.00125,0.24975,4.575e-05,0.00010675,-3.0500001e-05,1742093316.917425
0.03075,0.00125,0.2495,1.5250001e-05,0.0,-4.575e-05,1742093316.9317188
0.0305,0.00125,0.25,-1.5250001e-05,-6.1000002e-05,-4.575e-05,1742093316.9462101
0.0305,0.001,0.25,-3.0500001e-05,-6.1000002e-05,-7.625e-05,1742093316.9607701
0.03025,0.001,0.25,-1.5250001e-05,-4.575e-05,-7.625e-05,1742093316.975146
0.03025,0.001,0.25,0.0,-3.0500001e-05,-6.1000002e-05,1742093316.989527
0.03025,0.00125,0.25,1.5250001e-05,4.575e-05,-7.625e-05,1742093317.0038762
0.03025,0.001,0.24975,1.5250001e-05,9.15e-05,-7.625e-05,1742093317.01812
0.0305,0.001,0.24975,3.0500001e-05,0.00010675,-7.625e-05,1742093317.033681
0.031,0.00075,0.24975,3.0500001e-05,7.625e-05,-6.1000002e-05,1742093317.0466912
0.03075,0.00075,0.24975,3.0500001e-05,-3.0500001e-05,-4.575e-05,1742093317.0610921
0.03025,0.001,0.24975,3.0500001e-05,-6.1000002e-05,-4.575e-05,1742093317.0763462
0.03025,0.00125,0.25,1.5250001e-05,-7.625e-05,-4.575e-05,1742093317.089825
0.0305,0.00125,0.25,-1.5250001e-05,-0.00010675,-1.5250001e-05,1742093317.104259
0.03025,0.00125,0.25,-1.5250001e-05,-0.00010675,0.0,1742093317.1186671
0.03025,0.00125,0.24975,-3.0500001e-05,-9.15e-05,3.0500001e-05,1742093317.13409
0.03025,0.001,0.25,-3.0500001e-05,-7.625e-05,3.0500001e-05,1742093317.147302
0.03,0.001,0.24975,-1.5250001e-05,-6.1000002e-05,1.5250001e-05,1742093317.161622
0.03025,0.00125,0.24975,-3.0500001e-05,-7.625e-05,1.5250001e-05,1742093317.176478
0.03025,0.00125,0.25,-6.1000002e-05,-6.1000002e-05,0.0,1742093317.190567
0.03025,0.00125,0.25,-6.1000002e-05,-1.5250001e-05,-6.1000002e-05,1742093317.2046988
0.03025,0.00125,0.24975,-6.1000002e-05,-3.0500001e-05,-4.575e-05,1742093317.2191591
0.03025,0.001,0.24975,-3.0500001e-05,-4.575e-05,-3.0500001e-05,1742093317.233631
0.03,0.0015,0.24975,-1.5250001e-05,-4.575e-05,-4.575e-05,1742093317.24801
0.03,0.0015,0.25,0.0,-7.625e-05,-3.0500001e-05,1742093317.2623181
0.02975,0.0015,0.25,3.0500001e-05,-4.575e-05,-3.0500001e-05,1742093317.27664
0.02975,0.0015,0.24975,7.625e-05,6.1000002e-05,-4.575e-05,1742093317.290902
0.03,0.00125,0.25,6.1000002e-05,0.00010675,-4.575e-05,1742093317.305234
0.03,0.001,0.25,4.575e-05,0.00013725001,-4.575e-05,1742093317.319529
0.0305,0.001,0.24975,4.575e-05,0.00013725001,-7.625e-05,1742093317.3339899
0.03075,0.001,0.24975,1.5250001e-05,6.1000002e-05,-7.625e-05,1742093317.348035
0.03075,0.001,0.25,-3.0500001e-05,-6.1000002e-05,-6.1000002e-05,1742093317.3624918
0.03025,0.00125,0.25025,-4.575e-05,-0.00010675,-4.575e-05,1742093317.376987
0.03,0.00125,0.25,-6.1000002e-05,-0.00013725001,-3.0500001e-05,1742093317.3914309
0.03,0.00125,0.24975,-4.575e-05,-9.15e-05,-4.575e-05,1742093317.405897
0.03,0.00125,0.25,-4.575e-05,-6.1000002e-05,-4.575e-05,1742093317.420413
0.03,0.00125,0.25025,0.0,4.575e-05,-4.575e-05,1742093317.434845
0.03,0.00125,0.25,4.575e-05,0.00010675,-4.575e-05,1742093317.4490418
0.03025,0.00125,0.2495,6.1000002e-05,0.00010675,-6.1000002e-05,1742093317.463868
0.0305,0.00125,0.24975,3.0500001e-05,7.625e-05,-6.1000002e-05,1742093317.477579
0.0305,0.00125,0.25025,0.0,6.1000002e-05,-9.15e-05,1742093317.49179
0.0305,0.00075,0.24975,1.5250001e-05,7.625e-05,-9.15e-05,1742093317.506005
0.0305,0.001,0.2495,3.0500001e-05,7.625e-05,-9.15e-05,1742093317.5202382
0.0305,0.001,0.24975,-1.5250001e-05,0.00010675,-0.000122000005,1742093317.534644
0.02975,0.00125,0.25,0.0,0.00013725001,-0.000122000005,1742093317.548845
0.03,0.00125,0.24975,6.1000002e-05,0.00019825,-0.00010675,1742093317.5638552
0.03025,0.0015,0.2495,6.1000002e-05,0.00019825,-9.15e-05,1742093317.577474
0.0305,0.00175,0.25,4.575e-05,0.0002135,-0.00010675,1742093317.591706
0.0305,0.0015,0.2495,3.0500001e-05,0.0002135,-0.000122000005,1742093317.6059892
0.03075,0.00125,0.24925,3.0500001e-05,0.0002135,-0.00013725001,1742093317.62024
0.03075,0.001,0.2495,4.575e-05,0.000183,-0.00013725001,1742093317.634521
0.03075,0.00125,0.25,6.1000002e-05,0.000183,-0.0001525,1742093317.648833
0.03075,0.00125,0.24975,7.625e-05,0.0001525,-0.0001525,1742093317.6638489
0.0305,0.0015,0.25,6.1000002e-05,0.00010675,-0.00010675,1742093317.6773329
0.0305,0.00125,0.25025,4.575e-05,7.625e-05,-7.625e-05,1742093317.691505
0.03075,0.00125,0.25,1.5250001e-05,7.625e-05,-9.15e-05,1742093317.7058089
0.03075,0.00125,0.2495,0.0,0.00010675,-0.00010675,1742093317.719998
0.03075,0.00125,0.24925,-3.0500001e-05,0.00013725001,-0.000122000005,1742093317.7343428
0.0305,0.001,0.25025,-3.0500001e-05,0.0001525,-0.00010675,1742093317.748616
0.0305,0.001,0.24975,3.0500001e-05,0.000229,-0.000122000005,1742093317.763895
0.03125,0.00125,0.24975,3.0500001e-05,0.000229,-0.00013725001,1742093317.776994
0.03125,0.00125,0.25,3.0500001e-05,0.00019825,-0.000122000005,1742093317.7912571
0.031,0.00125,0.25,3.0500001e-05,0.000122000005,-0.00010675,1742093317.805517
0.031,0.00125,0.24975,3.0500001e-05,0.00010675,-0.000122000005,1742093317.819836
0.031,0.00125,0.24975,3.0500001e-05,6.1000002e-05,-0.000122000005,1742093317.834025
0.031,0.001,0.24975,3.0500001e-05,3.0500001e-05,-0.00010675,1742093317.848257
0.03075,0.001,0.2495,3.0500001e-05,4.575e-05,-0.00010675,1742093317.86256
0.031,0.00125,0.24975,1.5250001e-05,6.1000002e-05,-9.15e-05,1742093317.876794
0.031,0.00125,0.25,0.0,9.15e-05,-7.625e-05,1742093317.89109
0.031,0.00125,0.24975,3.0500001e-05,7.625e-05,-9.15e-05,1742093317.905333
0.031,0.00075,0.24975,1.5250001e-05,4.575e-05,-7.625e-05,1742093317.919541
0.031,0.001,0.25,0.000122000005,0.00010675,-9.15e-05,1742093317.933988
0.031,0.0015,0.24975,0.0001525,0.00013725001,-0.000122000005,1742093317.948002
0.031,0.00125,0.25,7.625e-05,0.000122000005,-0.00010675,1742093317.962243
0.03125,0.001,0.2495,4.575e-05,0.0001525,-0.000122000005,1742093317.9765172
0.031,0.001,0.2495,1.5250001e-05,0.000183,-0.00013725001,1742093317.9908109
0.03125,0.00075,0.25,1.5250001e-05,0.0002135,-0.00013725001,1742093318.005007
0.0315,0.00075,0.24975,4.575e-05,0.0002135,-0.000122000005,1742093318.0192451
0.03175,0.001,0.2495,1.5250001e-05,0.0001525,-0.00010675,1742093318.0338829
0.03175,0.0015,0.24975,-4.575e-05,9.15e-05,-0.000122000005,1742093318.047934
0.03175,0.00125,0.25,-9.15e-05,4.575e-05,-0.00013725001,1742093318.062311
0.0315,0.001,0.25,-0.00010675,3.0500001e-05,-0.00013725001,1742093318.076664
0.03125,0.00075,0.2495,-7.625e-05,1.5250001e-05,-0.000122000005,1742093318.0908759
0.03125,0.001,0.24975,-3.0500001e-05,0.0,-9.15e-05,1742093318.105088
0.0315,0.00125,0.25025,-1.5250001e-05,1.5250001e-05,-9.15e-05,1742093318.119431
0.0315,0.00125,0.25,1.5250001e-05,0.0,-9.15e-05,1742093318.13395
0.0315,0.00125,0.24975,0.0,0.0,-9.15e-05,1742093318.147972
0.03125,0.001,0.25,-1.5250001e-05,3.0500001e-05,-9.15e-05,1742093318.1636422
0.03125,0.00075,0.24975,3.0500001e-05,0.000122000005,-7.625e-05,1742093318.176505
0.0315,0.001,0.24925,3.0500001e-05,0.00013725001,-7.625e-05,1742093318.1908321
0.0315,0.001,0.2495,0.0,0.00013725001,-0.00010675,1742093318.2049742
0.0315,0.00075,0.24975,0.0,0.00013725001,-0.000122000005,1742093318.219247
0.0315,0.001,0.24975,3.0500001e-05,0.00010675,-0.000122000005,1742093318.233811
0.0315,0.00125,0.24975,4.575e-05,7.625e-05,-9.15e-05,1742093318.24778
0.0315,0.0015,0.24975,4.575e-05,6.1000002e-05,-7.625e-05,1742093318.2619898
0.0315,0.00125,0.24975,6.1000002e-05,4.575e-05,-7.625e-05,1742093318.276223
0.0315,0.001,0.24975,4.575e-05,6.1000002e-05,-9.15e-05,1742093318.290508
0.0315,0.001,0.25,4.575e-05,0.000122000005,-4.575e-05,1742093318.30482
0.0315,0.001,0.2495,6.1000002e-05,0.0001525,-1.5250001e-05,1742093318.319036
0.0315,0.001,0.24925,4.575e-05,0.00010675,0.0,1742093318.333277
0.03175,0.0015,0.2495,3.0500001e-05,9.15e-05,0.0,1742093318.347409
0.03175,0.0015,0.2495,3.0500001e-05,0.00010675,0.0,1742093318.361721
0.03175,0.00125,0.24925,1.5250001e-05,0.000122000005,-3.0500001e-05,1742093318.3760269
0.0315,0.001,0.2495,1.5250001e-05,7.625e-05,-3.0500001e-05,1742093318.390455
0.03175,0.00075,0.24975,3.0500001e-05,9.15e-05,-1.5250001e-05,1742093318.404842
0.032,0.001,0.24925,1.5250001e-05,0.00010675,-1.5250001e-05,1742093318.419138
0.032,0.00125,0.24975,-4.575e-05,6.1000002e-05,-4.575e-05,1742093318.4336178
0.032,0.001,0.24975,-6.1000002e-05,3.0500001e-05,-4.575e-05,1742093318.4478889
0.0315,0.00075,0.2495,-4.575e-05,0.0,-3.0500001e-05,1742093318.46234
0.0315,0.00075,0.2495,0.0,-1.5250001e-05,-1.5250001e-05,1742093318.4767349
0.032,0.001,0.24925,1.5250001e-05,-3.0500001e-05,-1.5250001e-05,1742093318.491063
0.03175,0.00125,0.2495,-1.5250001e-05,-0.00010675,-4.575e-05,1742093318.505499
0.0315,0.00125,0.25,-3.0500001e-05,-0.000122000005,-4.575e-05,1742093318.52
0.03175,0.0015,0.25,-1.5250001e-05,-7.625e-05,-1.5250001e-05,1742093318.534493
0.03175,0.00125,0.24925,-4.575e-05,-7.625e-05,-3.0500001e-05,1742093318.548994
0.03175,0.00125,0.24925,-7.625e-05,-0.00010675,-4.575e-05,1742093318.564054
0.03175,0.001,0.24925,-0.00013725001,-0.00019825,-7.625e-05,1742093318.577991
0.032,0.00075,0.2495,-0.0001525,-0.00027475,-9.15e-05,1742093318.593894
0.032,0.001,0.24975,-0.00016775,-0.00035100002,-0.0001525,1742093318.6071181
0.0315,0.0015,0.24975,-0.0001525,-0.0003815,-0.00016775,1742093318.6216261
0.03125,0.002,0.24975,-0.0001525,-0.0003815,-0.0001525,1742093318.6360698
0.03075,0.002,0.24975,-0.0002135,-0.00029,-0.00016775,1742093318.6505
0.03075,0.00175,0.25,-0.00029,-1.5250001e-05,-0.000229,1742093318.6649868
0.0305,0.001,0.2495,-0.00029,6.1000002e-05,-0.000229,1742093318.679391
0.0305,0.00075,0.24975,-0.00024425,0.00010675,-0.00024425,1742093318.693984
0.03125,0.00175,0.25,-6.1000002e-05,0.000122000005,-0.000229,1742093318.7083678
0.03175,0.00225,0.24975,0.0,6.1000002e-05,-0.0002135,1742093318.722795
0.032,0.00225,0.24925,-3.0500001e-05,-0.00019825,-0.00016775,1742093318.737203
0.03125,0.00225,0.25025,-6.1000002e-05,-0.0003205,-0.0001525,1742093318.7517
0.031,0.00225,0.25025,-7.625e-05,-0.00029,-0.000183,1742093318.766221
0.03125,0.00175,0.24975,-9.15e-05,-0.00024425,-0.000229,1742093318.780709
0.031,0.0015,0.24925,-0.000122000005,-0.00024425,-0.00029,1742093318.795179
0.03075,0.001,0.25,-0.00010675,-0.0002595,-0.00029,1742093318.809667
0.031,0.00125,0.25,-6.1000002e-05,-0.00024425,-0.00029,1742093318.825273
0.03125,0.002,0.24975,-3.0500001e-05,-0.00029,-0.00030525,1742093318.838466
0.031,0.00225,0.24975,-7.625e-05,-0.0003815,-0.00027475,1742093318.854222
0.03075,0.00225,0.25,-0.00013725001,-0.000473,-0.0002595,1742093318.8674219
0.03,0.002,0.25025,-0.0001525,-0.00042725,-0.0002595,1742093318.881988
0.02975,0.00175,0.24975,-0.00016775,-0.0004425,-0.00019825,1742093318.8964531
0.02975,0.002,0.2495,-0.00016775,-0.00048825,-0.00013725001,1742093318.9110122
0.02975,0.00175,0.24975,-0.00016775,-0.00048825,-0.00010675,1742093318.925537
0.02925,0.00175,0.25,-0.00013725001,-0.000473,-0.00010675,1742093318.940098
0.029,0.002,0.25,-0.00010675,-0.0004425,-7.625e-05,1742093318.954619
0.029,0.00225,0.25,-1.5250001e-05,-0.0003205,-4.575e-05,1742093318.9691079
0.029,0.00225,0.25,0.0,-0.0002595,-4.575e-05,1742093318.9839869
0.02925,0.00225,0.25,3.0500001e-05,-0.00019825,-6.1000002e-05,1742093318.9977689
0.02975,0.002,0.25,4.575e-05,-0.000183,-7.625e-05,1742093319.012079
0.02975,0.002,0.25,7.625e-05,-0.000122000005,-9.15e-05,1742093319.026412
0.0295,0.00175,0.24975,6.1000002e-05,-0.00013725001,-0.00010675,1742093319.040801
0.02975,0.002,0.25,0.00010675,-0.000122000005,-7.625e-05,1742093319.055212
0.03,0.0025,0.25,0.000122000005,-0.000122000005,-6.1000002e-05,1742093319.069636
0.03,0.00225,0.2495,9.15e-05,-0.00013725001,-6.1000002e-05,1742093319.084171
0.0295,0.002,0.24975,1.5250001e-05,-0.00016775,-6.1000002e-05,1742093319.098593
0.02875,0.002,0.25,1.5250001e-05,-0.00010675,-9.15e-05,1742093319.113491
0.029,0.002,0.25025,3.0500001e-05,0.0,-0.00010675,1742093319.12731
0.02925,0.002,0.25,4.575e-05,3.0500001e-05,-7.625e-05,1742093319.141484
0.02925,0.002,0.24975,6.1000002e-05,0.0,-3.0500001e-05,1742093319.1557791
0.0295,0.00175,0.25,9.15e-05,-4.575e-05,1.5250001e-05,1742093319.169991
0.0295,0.00175,0.25025,0.00010675,-7.625e-05,4.575e-05,1742093319.1844852
0.0295,0.00175,0.25025,0.0001525,-7.625e-05,7.625e-05,1742093319.198802
0.02975,0.00175,0.24975,0.0001525,-7.625e-05,4.575e-05,1742093319.213703
0.02975,0.00175,0.24975,0.00016775,-0.000122000005,-4.575e-05,1742093319.227485
0.0285,0.0015,0.2505,0.00016775,-9.15e-05,-4.575e-05,1742093319.241914
0.0285,0.00175,0.25,0.0002135,0.0,6.1000002e-05,1742093319.256233
0.0285,0.00225,0.25,0.00019825,-1.5250001e-05,7.625e-05,1742093319.270535
0.0285,0.002,0.2505,0.0001525,-4.575e-05,7.625e-05,1742093319.284805
0.02875,0.00175,0.2505,0.00019825,3.0500001e-05,6.1000002e-05,1742093319.298889
0.02875,0.0015,0.25,0.00024425,7.625e-05,6.1000002e-05,1742093319.3138702
0.02875,0.0015,0.24975,0.0002595,0.00010675,3.0500001e-05,1742093319.3277209
0.02925,0.0015,0.25,0.0002595,0.00010675,0.0,1742093319.3419058
0.02925,0.00125,0.25,0.000229,0.000122000005,-1.5250001e-05,1742093319.3563929
0.02925,0.001,0.25,0.0002135,0.0001525,-3.0500001e-05,1742093319.37084
0.0295,0.001,0.24975,0.0002135,0.000183,-3.0500001e-05,1742093319.3849769
0.0295,0.00125,0.24975,0.00019825,0.0002595,-0.00010675,1742093319.399432
0.02925,0.001,0.25025,0.0001525,0.00024425,-0.000122000005,1742093319.414075
0.0295,0.00075,0.2505,0.00016775,0.000229,-9.15e-05,1742093319.427995
0.03,0.00075,0.2495,0.000183,0.0002135,-0.00010675,1742093319.442368
0.03,0.00075,0.24925,0.000122000005,7.625e-05,-9.15e-05,1742093319.456817
0.02975,0.001,0.25,4.575e-05,0.0,-7.625e-05,1742093319.471104
0.02975,0.001,0.25,1.5250001e-05,-6.1000002e-05,-3.0500001e-05,1742093319.485549
0.0295,0.001,0.248,0.0001525,-4.575e-05,0.0,1742093319.4997811
