acc_x,acc_y,acc_z,gyro_x,gyro_y,gyro_z,timestamp
0.24675,0.001,0.00475,0.00016775,-0.00016775,-0.00146475,1742091316.830246
0.2465,0.00025,0.00425,-9.15e-05,-0.0002595,-0.0015565,1742091316.8447108
0.246,-0.00175,0.00225,-0.00019825,-0.00036625,-0.001587,1742091316.859593
0.2465,-0.0035,0.00175,-0.0002595,-0.0004425,-0.001587,1742091316.8745081
0.2485,-0.00725,0.00275,7.625e-05,-0.000534,-0.00148,1742091316.888334
0.249,-0.0075,0.0035,0.00048825,-0.0004425,-0.001419,1742091316.902793
0.249,-0.0065,0.0045,0.0010375,-0.0005645,-0.0012207499,1742091316.917226
0.249,-0.0035,0.00775,0.0009765,-0.00061025,-0.0010375,1742091316.931592
0.249,-0.00275,0.0085,0.0003815,-0.00036625,-0.000412,1742091316.946319
0.2485,-0.00275,0.00775,6.1000002e-05,-0.0002595,-6.1000002e-05,1742091316.960927
0.2475,-0.00175,0.0075,-9.15e-05,1.5250001e-05,6.1000002e-05,1742091316.9752178
0.24575,-0.0,0.006,-1.5250001e-05,9.15e-05,-6.1000002e-05,1742091316.9897332
0.24525,-0.0,0.005,7.625e-05,3.0500001e-05,-0.0002135,1742091317.004117
0.245,-0.00025,0.00425,0.00024425,-0.00016775,-0.00039675,1742091317.01851
0.245,0.00025,0.00475,0.00030525,-0.00024425,-0.0004425,1742091317.0328221
0.24525,0.001,0.00575,0.00024425,-0.000229,-0.00057975,1742091317.047194
0.2455,0.001,0.006,0.000122000005,-0.0001525,-0.00064075,1742091317.062358
0.24575,-0.00075,0.00575,-9.15e-05,-0.0001525,-0.00068675,1742091317.07633
0.2465,-0.00325,0.0065,-0.000183,-9.15e-05,-0.00064075,1742091317.0909069
0.24625,-0.004,0.00625,-0.0002595,-1.5250001e-05,-0.0005645,1742091317.105398
0.24625,-0.00475,0.0045,-0.0001525,-7.625e-05,-0.00062550005,1742091317.119978
0.24625,-0.0045,0.0045,3.0500001e-05,-0.000183,-0.00068675,1742091317.134589
0.24725,-0.00525,0.0065,0.00010675,-0.00027475,-0.0007325,1742091317.149258
0.2475,-0.0055,0.0065,3.0500001e-05,-0.0002135,-0.00068675,1742091317.163739
0.24775,-0.006,0.00575,-3.0500001e-05,-3.0500001e-05,-0.00054925,1742091317.1783428
0.24725,-0.00675,0.00375,0.0,-3.0500001e-05,-0.00045775,1742091317.192843
0.24725,-0.007,0.0035,-3.0500001e-05,-0.00013725001,-0.00027475,1742091317.2073972
0.2475,-0.007,0.00375,-9.15e-05,-0.000183,-0.00013725001,1742091317.222881
0.2475,-0.0065,0.004,7.625e-05,-0.00033575002,1.5250001e-05,1742091317.2363899
0.24825,-0.00375,0.006,0.0002595,-0.0003815,-1.5250001e-05,1742091317.250894
0.248,-0.00275,0.00725,0.00048825,-0.00035100002,-0.00016775,1742091317.265339
0.2475,-0.00225,0.00875,0.0003815,-0.00019825,-0.00016775,1742091317.2799108
0.2475,-0.002,0.008,0.000183,-3.0500001e-05,-0.000122000005,1742091317.295088
0.24725,-0.002,0.0075,1.5250001e-05,0.00019825,-0.00013725001,1742091317.308714
0.2465,-0.004,0.006,4.575e-05,0.00019825,-0.0002135,1742091317.323005
0.246,-0.00475,0.00525,0.00016775,0.00013725001,-0.00027475,1742091317.3376179
0.2455,-0.00575,0.00425,0.000122000005,7.625e-05,-0.000183,1742091317.352841
0.24575,-0.006,0.00475,-1.5250001e-05,-1.5250001e-05,1.5250001e-05,1742091317.366551
0.24625,-0.00475,0.0055,6.1000002e-05,-3.0500001e-05,1.5250001e-05,1742091317.3810291
0.24625,-0.0035,0.006,0.00013725001,-9.15e-05,-6.1000002e-05,1742091317.395484
0.24675,-0.0015,0.006,4.575e-05,-0.00010675,-7.625e-05,1742091317.409926
0.24675,-0.00225,0.00575,-7.625e-05,-9.15e-05,-7.625e-05,1742091317.4244092
0.247,-0.0035,0.006,-0.000122000005,-4.575e-05,-0.000183,1742091317.438991
0.24675,-0.005,0.00625,-3.0500001e-05,-3.0500001e-05,-0.0002595,1742091317.4536262
0.2465,-0.0055,0.006,-7.625e-05,-0.00010675,-0.0002135,1742091317.4683158
0.2465,-0.006,0.006,-0.00010675,-0.00010675,-0.0001525,1742091317.4828212
0.24675,-0.00575,0.00625,-0.00016775,0.0,-4.575e-05,1742091317.497312
0.247,-0.0055,0.00675,-0.00013725001,0.0,1.5250001e-05,1742091317.512838
0.2465,-0.00475,0.00675,0.00027475,3.0500001e-05,-0.0001525,1742091317.526219
0.247,-0.00325,0.008,0.00030525,4.575e-05,-0.000229,1742091317.5405388
0.2475,-0.0035,0.00825,0.0002135,7.625e-05,-0.0002135,1742091317.5549939
0.247,-0.0035,0.00725,-0.000122000005,0.000229,-6.1000002e-05,1742091317.569481
0.246,-0.00325,0.00525,-0.0002595,0.00024425,-3.0500001e-05,1742091317.5839942
0.246,-0.0035,0.005,-4.575e-05,0.0002595,-0.0002595,1742091317.59849
0.2465,-0.005,0.00525,0.000122000005,0.000229,-0.00036625,1742091317.612812
0.2465,-0.0055,0.0055,0.00030525,0.0002135,-0.000412,1742091317.627098
0.24625,-0.00625,0.00525,0.00036625,0.000229,-0.000412,1742091317.641381
0.24625,-0.00625,0.005,0.00039675,0.0002135,-0.00035100002,1742091317.655787
0.246,-0.006,0.004,0.00030525,0.000183,-0.0002595,1742091317.670107
0.246,-0.00575,0.00375,0.00016775,0.00013725001,-0.000183,1742091317.6844091
0.24625,-0.00525,0.004,0.0002595,3.0500001e-05,-0.000183,1742091317.698926
0.247,-0.00525,0.00475,0.0003815,-3.0500001e-05,-0.0002135,1742091317.713423
0.247,-0.0055,0.005,0.0003205,-0.000122000005,-0.000183,1742091317.7279181
0.247,-0.00475,0.00675,0.00024425,-9.15e-05,-0.0001525,1742091317.742332
0.247,-0.00425,0.00775,0.00030525,0.00016775,-0.000229,1742091317.756704
0.24725,-0.0045,0.007,0.0004425,0.00029,-0.00033575002,1742091317.7721002
0.247,-0.00475,0.0055,0.00051875,0.00035100002,-0.00042725,1742091317.785428
0.2465,-0.0055,0.00375,0.00029,0.000229,-0.0003815,1742091317.799778
0.24575,-0.00625,0.00325,0.0002135,0.0001525,-0.00030525,1742091317.814244
0.2455,-0.00625,0.0045,0.00036625,9.15e-05,-0.00027475,1742091317.8286002
0.24575,-0.0075,0.00575,0.0003205,1.5250001e-05,-0.00024425,1742091317.843006
0.24575,-0.0075,0.0055,0.0001525,-0.00013725001,-6.1000002e-05,1742091317.8575401
0.245,-0.00525,0.005,0.000183,-7.625e-05,-4.575e-05,1742091317.872909
0.245,-0.0045,0.004,0.0003205,-3.0500001e-05,-0.000183,1742091317.886289
0.24675,-0.0045,0.004,0.00030525,-0.0001525,-0.0002135,1742091317.900873
0.248,-0.00525,0.00575,0.00024425,-0.00030525,-0.0002135,1742091317.915345
0.2485,-0.00575,0.00775,6.1000002e-05,-0.0002595,-6.1000002e-05,1742091317.929815
0.24825,-0.00475,0.00875,1.5250001e-05,-9.15e-05,-1.5250001e-05,1742091317.944296
0.24825,-0.00375,0.00875,4.575e-05,0.00013725001,-0.0002135,1742091317.958484
0.24775,-0.00325,0.0085,3.0500001e-05,0.000229,-0.0003205,1742091317.972895
0.24675,-0.00425,0.00725,-0.00010675,0.0003815,-0.00036625,1742091317.98733
0.2445,-0.00625,0.0025,-0.00013725001,0.00035100002,-0.0003205,1742091318.002547
0.24375,-0.007,0.00125,-9.15e-05,0.0002135,-0.00030525,1742091318.016204
0.24375,-0.00775,0.0015,0.00010675,-0.00019825,-0.00035100002,1742091318.0306392
0.2455,-0.00775,0.0045,0.000122000005,-0.00029,-0.00035100002,1742091318.0464718
0.24625,-0.008,0.00525,7.625e-05,-0.0002595,-0.0002595,1742091318.0595782
0.247,-0.00725,0.0055,0.000122000005,-0.0002135,-0.0002135,1742091318.074219
0.24725,-0.00725,0.006,0.000183,-0.00019825,-0.00016775,1742091318.088607
0.24825,-0.007,0.0065,0.0002135,-0.00016775,-0.000183,1742091318.103134
0.2485,-0.0065,0.0065,0.00019825,-7.625e-05,-0.0001525,1742091318.117735
0.248,-0.0055,0.006,9.15e-05,-3.0500001e-05,-0.000122000005,1742091318.132457
0.24825,-0.00525,0.0065,6.1000002e-05,3.0500001e-05,-0.00013725001,1742091318.146446
0.248,-0.00475,0.007,0.00027475,0.00024425,-0.00033575002,1742091318.160779
0.24675,-0.00575,0.00625,0.00029,0.00030525,-0.0003815,1742091318.175152
0.246,-0.00675,0.00525,3.0500001e-05,0.0003205,-0.00027475,1742091318.189434
0.24525,-0.00775,0.003,0.0,0.00027475,-0.000229,1742091318.2039082
0.24525,-0.008,0.00325,0.0002135,4.575e-05,-0.00024425,1742091318.218168
0.24575,-0.00775,0.00425,0.00029,-4.575e-05,-0.000229,1742091318.2326112
0.246,-0.007,0.00425,0.0003205,-9.15e-05,-0.00019825,1742091318.246995
0.2465,-0.00525,0.00675,0.00024425,-0.00013725001,-9.15e-05,1742091318.262374
0.247,-0.005,0.00825,0.000183,-9.15e-05,-0.00010675,1742091318.275876
0.247,-0.00525,0.008,1.5250001e-05,0.00010675,-0.000183,1742091318.290189
0.24625,-0.00575,0.00625,-0.00010675,0.0001525,-0.000183,1742091318.304598
0.24625,-0.00525,0.00575,-0.0002595,0.0002135,-0.000229,1742091318.319098
0.246,-0.00625,0.00425,-0.00016775,0.000229,-0.00035100002,1742091318.333602
0.24625,-0.00775,0.003,0.00035100002,0.00010675,-0.00067150005,1742091318.34799
0.246,-0.00925,0.00275,0.0005645,-3.0500001e-05,-0.00070200005,1742091318.36253
0.246,-0.0095,0.00375,0.00051875,-0.00016775,-0.00057975,1742091318.376873
0.24675,-0.00975,0.00525,0.00013725001,-0.0002135,-0.00016775,1742091318.391232
0.2475,-0.009,0.00625,0.0001525,-0.00013725001,-6.1000002e-05,1742091318.405697
0.2475,-0.008,0.00625,0.0003205,-0.00010675,-6.1000002e-05,1742091318.420057
0.24725,-0.00725,0.00575,0.00030525,-0.000122000005,-7.625e-05,1742091318.434467
0.247,-0.00725,0.0055,4.575e-05,-4.575e-05,4.575e-05,1742091318.4488041
0.24675,-0.00575,0.00625,-9.15e-05,1.5250001e-05,0.000122000005,1742091318.463223
0.247,-0.0055,0.007,-0.00013725001,7.625e-05,0.000122000005,1742091318.47751
0.246,-0.006,0.00625,-0.00010675,0.0001525,-4.575e-05,1742091318.4918551
0.2455,-0.00625,0.0045,-3.0500001e-05,0.00016775,-0.0001525,1742091318.506266
0.24525,-0.0065,0.0035,0.0001525,4.575e-05,-0.0003205,1742091318.520691
0.24575,-0.00775,0.0035,0.00019825,-4.575e-05,-0.0003205,1742091318.5351129
0.246,-0.008,0.004,-3.0500001e-05,-0.000122000005,-7.625e-05,1742091318.54971
0.24625,-0.008,0.005,-0.0001525,-0.00013725001,3.0500001e-05,1742091318.564225
0.24625,-0.008,0.005,-4.575e-05,-0.000122000005,-1.5250001e-05,1742091318.578795
0.247,-0.00775,0.0065,3.0500001e-05,-0.00010675,-6.1000002e-05,1742091318.593264
0.247,-0.00775,0.0065,6.1000002e-05,-6.1000002e-05,-9.15e-05,1742091318.6076841
0.24675,-0.008,0.006,0.00010675,3.0500001e-05,-0.00013725001,1742091318.62231
0.247,-0.008,0.006,0.000183,3.0500001e-05,-0.000183,1742091318.6364968
0.247,-0.0075,0.006,0.00010675,1.5250001e-05,-0.000122000005,1742091318.650879
0.24625,-0.007,0.0055,-7.625e-05,1.5250001e-05,-1.5250001e-05,1742091318.665291
0.24625,-0.00675,0.00525,-0.000183,7.625e-05,9.15e-05,1742091318.679699
0.246,-0.007,0.00475,-4.575e-05,6.1000002e-05,1.5250001e-05,1742091318.695188
0.246,-0.00775,0.00425,0.00016775,-0.00013725001,-0.000122000005,1742091318.7085571
0.24525,-0.00925,0.00375,0.00016775,-0.00027475,-4.575e-05,1742091318.722952
0.2455,-0.0085,0.00525,0.0001525,-0.00035100002,6.1000002e-05,1742091318.737503
0.246,-0.0075,0.00675,9.15e-05,-0.00035100002,0.0001525,1742091318.75239
0.24725,-0.006,0.0075,4.575e-05,-0.00029,0.0001525,1742091318.7661
0.24725,-0.00625,0.0075,1.5250001e-05,-0.000122000005,3.0500001e-05,1742091318.780534
0.24675,-0.0055,0.00575,-1.5250001e-05,-4.575e-05,-7.625e-05,1742091318.7951722
0.2465,-0.00475,0.006,9.15e-05,-9.15e-05,-0.000412,1742091318.809483
0.2475,-0.00625,0.008,9.15e-05,-0.000122000005,-0.00059500005,1742091318.823848
0.24875,-0.00775,0.00775,0.0,-9.15e-05,-0.00068675,1742091318.838269
0.24775,-0.009,0.0055,-9.15e-05,3.0500001e-05,-0.00039675,1742091318.852711
0.24675,-0.00825,0.006,-4.575e-05,7.625e-05,-0.00027475,1742091318.867096
0.24625,-0.00775,0.006,0.0,9.15e-05,-0.00024425,1742091318.882682
0.24575,-0.0085,0.00425,1.5250001e-05,3.0500001e-05,-0.00024425,1742091318.895892
0.2455,-0.00825,0.0045,0.0001525,-6.1000002e-05,-0.0002595,1742091318.910315
0.24625,-0.00775,0.00575,0.00016775,-3.0500001e-05,-0.00024425,1742091318.924758
0.24625,-0.008,0.006,0.0,1.5250001e-05,-0.0001525,1742091318.93905
0.24675,-0.0085,0.006,-9.15e-05,3.0500001e-05,-7.625e-05,1742091318.9534478
0.24675,-0.008,0.006,-9.15e-05,7.625e-05,-7.625e-05,1742091318.967873
0.24625,-0.00725,0.006,6.1000002e-05,0.00013725001,-0.000229,1742091318.982486
0.2465,-0.00825,0.00525,6.1000002e-05,0.000122000005,-0.00027475,1742091318.9964979
0.24675,-0.00875,0.00525,3.0500001e-05,0.00013725001,-0.00027475,1742091319.010884
0.24675,-0.0095,0.00425,0.0,0.00010675,-0.0002135,1742091319.0251951
0.24675,-0.00975,0.0045,1.5250001e-05,3.0500001e-05,-4.575e-05,1742091319.0395038
0.247,-0.009,0.00725,3.0500001e-05,6.1000002e-05,1.5250001e-05,1742091319.053816
0.24725,-0.008,0.00825,-4.575e-05,0.000183,9.15e-05,1742091319.068191
0.247,-0.00725,0.007,-0.0001525,0.00045775,9.15e-05,1742091319.082479
0.24575,-0.00775,0.0035,-9.15e-05,0.00048825,4.575e-05,1742091319.096894
0.2455,-0.007,0.0025,7.625e-05,0.00033575002,-7.625e-05,1742091319.1111948
0.2455,-0.00825,0.00225,0.000229,0.00013725001,-0.000183,1742091319.125589
0.2455,-0.0095,0.0035,0.00013725001,-0.000229,-7.625e-05,1742091319.1401
0.24625,-0.00925,0.007,-9.15e-05,-0.00024425,0.000122000005,1742091319.154495
0.24625,-0.00725,0.0075,-0.00027475,-0.000122000005,0.00029,1742091319.168896
0.246,-0.00625,0.007,-0.0003815,6.1000002e-05,0.0002595,1742091319.183926
0.246,-0.00825,0.0035,-0.0002595,-1.5250001e-05,0.00013725001,1742091319.20081
0.2465,-0.008,0.003,7.625e-05,-0.0003205,-6.1000002e-05,1742091319.2127502
0.24825,-0.00775,0.00625,0.00016775,-0.00036625,-0.00010675,1742091319.227196
0.24825,-0.00725,0.00725,0.00019825,-0.00013725001,0.0,1742091319.241467
0.248,-0.005,0.0095,-1.5250001e-05,0.0,0.00010675,1742091319.255883
0.2475,-0.0045,0.00925,-0.00029,0.0003205,3.0500001e-05,1742091319.270886
0.24625,-0.00575,0.00525,-0.0002595,0.000412,-0.00013725001,1742091319.2845309
0.246,-0.00725,0.00375,-0.0002135,0.0003815,-0.00030525,1742091319.298955
0.24575,-0.00875,0.00275,0.0,0.00019825,-0.00039675,1742091319.31348
0.2455,-0.01,0.00375,7.625e-05,0.000122000005,-0.00035100002,1742091319.327841
0.2455,-0.01075,0.00375,1.5250001e-05,0.0,-6.1000002e-05,1742091319.342176
0.2455,-0.01,0.00375,-3.0500001e-05,-6.1000002e-05,7.625e-05,1742091319.356548
0.24625,-0.009,0.005,6.1000002e-05,-0.00016775,0.000122000005,1742091319.370944
0.2475,-0.008,0.00625,3.0500001e-05,-0.000183,0.00010675,1742091319.385368
0.24775,-0.008,0.00625,0.000122000005,-0.00013725001,3.0500001e-05,1742091319.39975
0.2475,-0.00825,0.0055,0.000229,-0.00010675,-1.5250001e-05,1742091319.414191
0.2475,-0.008,0.00575,0.0002595,-0.000122000005,-3.0500001e-05,1742091319.4285629
0.2475,-0.008,0.00575,0.00029,-0.00013725001,-3.0500001e-05,1742091319.444488
0.247,-0.00825,0.0055,0.00035100002,-0.000122000005,-3.0500001e-05,1742091319.457485
0.24675,-0.00775,0.00625,0.0004425,-7.625e-05,4.575e-05,1742091319.472954
0.24625,-0.0055,0.007,0.00033575002,-4.575e-05,0.000122000005,1742091319.486198
0.2455,-0.00525,0.0055,0.00010675,6.1000002e-05,7.625e-05,1742091319.5004559
0.24525,-0.00675,0.00375,3.0500001e-05,4.575e-05,1.5250001e-05,1742091319.514699
0.246,-0.00775,0.0045,9.15e-05,-3.0500001e-05,-7.625e-05,1742091319.529193
0.2465,-0.00825,0.00575,0.00027475,-7.625e-05,-0.0001525,1742091319.5452008
0.2465,-0.009,0.00625,0.00024425,-7.625e-05,-9.15e-05,1742091319.5580668
0.24625,-0.00825,0.0065,0.00010675,0.0,4.575e-05,1742091319.57257
0.24675,-0.006,0.00675,1.5250001e-05,9.15e-05,7.625e-05,1742091319.5868008
0.2465,-0.00625,0.0055,-4.575e-05,0.00013725001,-3.0500001e-05,1742091319.601235
0.24575,-0.0065,0.00425,7.625e-05,7.625e-05,-0.0001525,1742091319.615693
0.24575,-0.0075,0.004,0.00024425,0.0,-0.00027475,1742091319.630086
0.2465,-0.00825,0.00575,0.00019825,-6.1000002e-05,-0.00030525,1742091319.645036
0.24725,-0.00925,0.00625,0.0,3.0500001e-05,-0.00019825,1742091319.658864
0.24725,-0.00975,0.005,-0.00010675,0.0001525,3.0500001e-05,1742091319.673572
0.24725,-0.00975,0.0045,4.575e-05,4.575e-05,6.1000002e-05,1742091319.6874912
0.24775,-0.00925,0.006,0.000229,-0.000122000005,3.0500001e-05,1742091319.7022269
0.24775,-0.00975,0.0045,0.00027475,-0.00010675,0.0,1742091319.716161
0.247,-0.0095,0.003,0.0003205,-0.000183,0.00010675,1742091319.7304819
0.24675,-0.00875,0.00575,0.0002595,-0.0002595,0.000229,1742091319.7455812
0.24725,-0.008,0.0075,0.0002135,-0.00024425,0.00027475,1742091319.7592242
0.2475,-0.0075,0.00775,0.00019825,-7.625e-05,0.00027475,1742091319.773556
0.24625,-0.005,0.0055,0.00019825,-4.575e-05,0.00027475,1742091319.78797
0.2455,-0.00425,0.00575,0.00030525,-0.000122000005,7.625e-05,1742091319.8027148
0.24575,-0.005,0.00775,0.00027475,-9.15e-05,-3.0500001e-05,1742091319.816778
0.24625,-0.00625,0.0065,0.000183,9.15e-05,-7.625e-05,1742091319.832333
0.2455,-0.00725,0.0055,0.0001525,4.575e-05,-1.5250001e-05,1742091319.8454778
0.24525,-0.00625,0.00625,0.00016775,-3.0500001e-05,4.575e-05,1742091319.859936
0.24525,-0.00575,0.0065,0.000183,-1.5250001e-05,-7.625e-05,1742091319.87438
0.24625,-0.00675,0.0055,0.0001525,1.5250001e-05,-0.00013725001,1742091319.888743
0.2465,-0.00725,0.00525,-4.575e-05,-7.625e-05,-3.0500001e-05,1742091319.903233
0.24725,-0.00675,0.00625,-7.625e-05,-0.00010675,1.5250001e-05,1742091319.9177952
0.2475,-0.0065,0.00775,-0.00010675,4.575e-05,-1.5250001e-05,1742091319.932427
0.2475,-0.007,0.0075,-0.0001525,0.000122000005,-6.1000002e-05,1742091319.946583
0.247,-0.00725,0.00575,-1.5250001e-05,0.000122000005,-0.000183,1742091319.960959
0.2465,-0.007,0.006,1.5250001e-05,9.15e-05,-0.000183,1742091319.975369
0.24675,-0.00675,0.00675,-9.15e-05,9.15e-05,-0.00013725001,1742091319.989863
0.24675,-0.00775,0.00625,-0.00019825,0.000229,-9.15e-05,1742091320.004342
0.2465,-0.00875,0.00425,-0.00010675,0.0002135,-9.15e-05,1742091320.0188239
0.2465,-0.0085,0.0055,-7.625e-05,9.15e-05,-4.575e-05,1742091320.0332851
0.246,-0.00825,0.005,-0.00013725001,9.15e-05,0.0,1742091320.0476558
0.2455,-0.00825,0.00325,-4.575e-05,4.575e-05,3.0500001e-05,1742091320.062647
0.246,-0.0055,0.0055,3.0500001e-05,-3.0500001e-05,0.0,1742091320.076343
0.246,-0.00525,0.0065,9.15e-05,-6.1000002e-05,-6.1000002e-05,1742091320.0908532
0.24575,-0.006,0.0055,1.5250001e-05,0.0,-0.0001525,1742091320.105176
0.246,-0.0075,0.00375,-1.5250001e-05,0.0,-0.00016775,1742091320.119572
0.24625,-0.00775,0.00475,-4.575e-05,-4.575e-05,-0.00010675,1742091320.1341639
0.2465,-0.008,0.00575,3.0500001e-05,-4.575e-05,-0.00013725001,1742091320.148664
0.24675,-0.00825,0.0055,0.00019825,-0.00010675,-0.00019825,1742091320.1631181
0.24775,-0.0075,0.0075,9.15e-05,-0.00010675,-0.00010675,1742091320.177536
0.24775,-0.0075,0.00675,-0.00010675,4.575e-05,4.575e-05,1742091320.19214
0.247,-0.006,0.00525,-6.1000002e-05,9.15e-05,1.5250001e-05,1742091320.206501
0.24675,-0.005,0.0055,4.575e-05,9.15e-05,-9.15e-05,1742091320.220839
0.2465,-0.00525,0.00575,9.15e-05,3.0500001e-05,-0.0003205,1742091320.235169
0.246,-0.00825,0.005,0.000122000005,1.5250001e-05,-0.00035100002,1742091320.2495449
0.246,-0.00875,0.00525,0.0,3.0500001e-05,-0.0001525,1742091320.263867
0.24625,-0.00925,0.006,-0.00010675,6.1000002e-05,-1.5250001e-05,1742091320.27823
0.24625,-0.009,0.0055,-7.625e-05,4.575e-05,7.625e-05,1742091320.292663
0.2465,-0.0075,0.006,3.0500001e-05,-1.5250001e-05,4.575e-05,1742091320.3069582
0.24625,-0.007,0.00625,4.575e-05,-4.575e-05,4.575e-05,1742091320.3213491
0.246,-0.0065,0.00525,9.15e-05,0.0,-6.1000002e-05,1742091320.3358688
0.24575,-0.00625,0.00325,9.15e-05,3.0500001e-05,-0.00013725001,1742091320.3501492
0.24575,-0.0065,0.0035,1.5250001e-05,-3.0500001e-05,-0.0001525,1742091320.3645482
0.24525,-0.008,0.005,7.625e-05,-0.000122000005,-0.0002135,1742091320.37903
0.24525,-0.00825,0.00625,0.00016775,-0.000183,-0.00027475,1742091320.3934982
0.24525,-0.009,0.0065,9.15e-05,-0.00013725001,-0.0002135,1742091320.407873
0.24525,-0.00925,0.0055,-0.000122000005,-0.00013725001,-3.0500001e-05,1742091320.4223518
0.246,-0.009,0.00475,-0.00013725001,-0.000183,0.0,1742091320.436764
0.24675,-0.0085,0.005,-7.625e-05,-0.000229,0.0,1742091320.451184
0.24725,-0.00825,0.005,4.575e-05,-0.00035100002,4.575e-05,1742091320.465437
0.2485,-0.0065,0.00625,7.625e-05,-0.00033575002,4.575e-05,1742091320.4798021
0.2485,-0.00525,0.00725,0.000183,-0.00019825,-0.00010675,1742091320.4959219
0.24875,-0.0045,0.00925,0.00019825,-0.00013725001,-0.000229,1742091320.50866
0.24875,-0.0055,0.00925,0.0001525,3.0500001e-05,-0.00039675,1742091320.523458
0.2465,-0.007,0.0075,3.0500001e-05,0.00013725001,-0.00036625,1742091320.537407
0.24525,-0.00775,0.006,-0.00016775,0.000229,-0.0002595,1742091320.5528471
0.2445,-0.0085,0.0045,-0.00016775,0.000229,-0.000229,1742091320.566256
0.2445,-0.0085,0.0035,-4.575e-05,0.000122000005,-0.00029,1742091320.58086
0.24475,-0.00875,0.00425,3.0500001e-05,-0.00013725001,-0.00035100002,1742091320.596396
0.24525,-0.0105,0.005,7.625e-05,-0.0001525,-0.0003205,1742091320.6097448
0.24575,-0.0105,0.005,0.0001525,-0.00010675,-0.00013725001,1742091320.6242828
0.24625,-0.0095,0.005,0.00013725001,-0.000183,-4.575e-05,1742091320.638914
0.24675,-0.00875,0.00525,0.00019825,-0.0003205,0.0,1742091320.653138
0.24775,-0.00725,0.00725,0.00019825,-0.00035100002,-1.5250001e-05,1742091320.667535
0.248,-0.007,0.008,0.00016775,-0.00033575002,-3.0500001e-05,1742091320.682681
0.24825,-0.00675,0.00825,0.00016775,-0.00019825,-7.625e-05,1742091320.696535
0.248,-0.0065,0.009,0.0001525,-0.00010675,-7.625e-05,1742091320.710942
0.24775,-0.00575,0.00875,1.5250001e-05,0.00013725001,-9.15e-05,1742091320.7253718
0.24675,-0.00575,0.0065,-3.0500001e-05,0.00024425,-0.00016775,1742091320.7398772
0.246,-0.0075,0.00475,-3.0500001e-05,0.00024425,-0.00033575002,1742091320.754271
0.2455,-0.01025,0.00325,0.0,0.000122000005,-0.00030525,1742091320.768662
0.2455,-0.01025,0.0045,0.0,-7.625e-05,-6.1000002e-05,1742091320.783021
0.2455,-0.009,0.00575,-1.5250001e-05,-9.15e-05,1.5250001e-05,1742091320.797555
0.24575,-0.00825,0.00625,3.0500001e-05,-0.00010675,0.0,1742091320.812822
0.24625,-0.0075,0.007,0.000122000005,-0.00013725001,-0.00010675,1742091320.826568
0.247,-0.007,0.008,9.15e-05,-0.00013725001,-0.00016775,1742091320.8410618
0.24675,-0.007,0.008,1.5250001e-05,4.575e-05,-0.0002595,1742091320.855437
0.246,-0.0085,0.0055,-7.625e-05,0.00010675,-0.000229,1742091320.869963
0.24575,-0.009,0.00475,-7.625e-05,4.575e-05,-0.000229,1742091320.88444
0.246,-0.01,0.00525,-1.5250001e-05,-3.0500001e-05,-0.0002595,1742091320.899046
0.24625,-0.01025,0.0055,3.0500001e-05,-0.00016775,-0.00019825,1742091320.913515
0.2465,-0.01,0.00525,3.0500001e-05,-0.00016775,-0.000122000005,1742091320.928083
0.247,-0.01,0.00525,4.575e-05,-0.00016775,-6.1000002e-05,1742091320.942558
0.2475,-0.00975,0.00625,9.15e-05,-0.00016775,0.0,1742091320.956935
0.24825,-0.00875,0.00775,0.000122000005,-0.0001525,1.5250001e-05,1742091320.972241
0.248,-0.0085,0.007,0.00013725001,-7.625e-05,6.1000002e-05,1742091320.985783
0.24675,-0.00775,0.006,0.000122000005,-9.15e-05,9.15e-05,1742091321.001282
0.2465,-0.00675,0.00675,0.00019825,-0.000122000005,-1.5250001e-05,1742091321.014648
0.24625,-0.0065,0.0075,0.0002595,-9.15e-05,-0.00013725001,1742091321.029027
0.24625,-0.0075,0.0075,0.00024425,-4.575e-05,-0.0002135,1742091321.04344
0.2465,-0.008,0.008,6.1000002e-05,0.0,-0.00010675,1742091321.057942
0.24625,-0.00775,0.008,-0.00013725001,6.1000002e-05,1.5250001e-05,1742091321.073266
0.246,-0.0075,0.00675,-6.1000002e-05,0.0001525,-4.575e-05,1742091321.0868108
0.2455,-0.0085,0.004,0.000122000005,6.1000002e-05,-0.000183,1742091321.101162
0.246,-0.009,0.0045,0.0003205,-9.15e-05,-0.00019825,1742091321.1156569
0.2475,-0.00975,0.0075,0.00019825,-0.00010675,-6.1000002e-05,1742091321.1300611
0.24825,-0.009,0.00825,-0.00010675,-1.5250001e-05,0.0001525,1742091321.146421
0.24725,-0.00725,0.00725,-9.15e-05,7.625e-05,0.00010675,1742091321.158915
0.24675,-0.00775,0.0065,0.0,0.00010675,-3.0500001e-05,1742091321.173227
0.2465,-0.0085,0.00625,0.00024425,9.15e-05,-0.00030525,1742091321.187638
0.24625,-0.009,0.00675,0.00029,7.625e-05,-0.00033575002,1742091321.202464
0.246,-0.0095,0.006,0.00016775,0.0,-0.0001525,1742091321.2162502
0.246,-0.00975,0.00575,9.15e-05,-1.5250001e-05,1.5250001e-05,1742091321.2306612
0.246,-0.00875,0.0065,0.0,-3.0500001e-05,0.00016775,1742091321.245245
0.246,-0.00725,0.00775,4.575e-05,0.0,9.15e-05,1742091321.259109
0.24625,-0.00675,0.0075,0.000122000005,3.0500001e-05,-3.0500001e-05,1742091321.273424
0.2465,-0.0065,0.00725,0.00013725001,3.0500001e-05,-0.0001525,1742091321.287971
0.247,-0.0075,0.007,9.15e-05,4.575e-05,-0.000183,1742091321.302316
0.24675,-0.008,0.00675,-3.0500001e-05,7.625e-05,-0.0001525,1742091321.31682
0.246,-0.009,0.006,-7.625e-05,6.1000002e-05,-0.00010675,1742091321.33251
0.2455,-0.00925,0.00525,6.1000002e-05,-1.5250001e-05,-0.00016775,1742091321.346024
0.24575,-0.00975,0.0055,0.00019825,-6.1000002e-05,-0.00019825,1742091321.360249
0.24625,-0.00975,0.00625,0.00019825,-0.000122000005,-9.15e-05,1742091321.374718
0.2475,-0.009,0.00775,0.0001525,-7.625e-05,-1.5250001e-05,1742091321.38925
0.2475,-0.008,0.00775,0.00010675,-3.0500001e-05,3.0500001e-05,1742091321.403662
0.24725,-0.00725,0.0075,0.00010675,3.0500001e-05,0.0,1742091321.417845
0.24675,-0.0075,0.00675,0.00010675,3.0500001e-05,-6.1000002e-05,1742091321.432589
0.2465,-0.008,0.00625,6.1000002e-05,4.575e-05,-0.000122000005,1742091321.4464378
0.2465,-0.0085,0.006,3.0500001e-05,4.575e-05,-0.000122000005,1742091321.460823
0.2465,-0.009,0.00625,-1.5250001e-05,3.0500001e-05,-6.1000002e-05,1742091321.475374
0.2465,-0.0095,0.007,-3.0500001e-05,4.575e-05,-1.5250001e-05,1742091321.489853
0.2465,-0.00925,0.00725,-3.0500001e-05,6.1000002e-05,1.5250001e-05,1742091321.504155
0.24625,-0.009,0.007,1.5250001e-05,7.625e-05,0.0,1742091321.518327
0.246,-0.00825,0.0065,1.5250001e-05,7.625e-05,-3.0500001e-05,1742091321.5326452
0.246,-0.008,0.0065,0.0,9.15e-05,-9.15e-05,1742091321.546895
0.246,-0.00775,0.00575,-3.0500001e-05,7.625e-05,-9.15e-05,1742091321.5613341
0.2465,-0.00775,0.006,-7.625e-05,3.0500001e-05,-4.575e-05,1742091321.5758562
0.247,-0.00825,0.00725,-0.00010675,1.5250001e-05,-1.5250001e-05,1742091321.590246
0.24675,-0.008,0.008,-0.00013725001,0.00010675,-1.5250001e-05,1742091321.6047528
0.246,-0.00775,0.007,-0.000122000005,0.00016775,-3.0500001e-05,1742091321.619257
0.24575,-0.00775,0.0055,-0.000122000005,0.000229,-6.1000002e-05,1742091321.633734
0.2455,-0.00825,0.0045,0.0,0.000229,-0.00024425,1742091321.6481469
0.246,-0.00875,0.005,0.000122000005,0.0001525,-0.00035100002,1742091321.662982
0.24625,-0.00925,0.006,7.625e-05,-6.1000002e-05,-0.00027475,1742091321.6769621
0.24625,-0.00975,0.0075,-7.625e-05,-1.5250001e-05,-0.00013725001,1742091321.691523
0.246,-0.0095,0.00675,-0.00029,6.1000002e-05,7.625e-05,1742091321.706066
0.24525,-0.00925,0.00475,-0.0002595,1.5250001e-05,6.1000002e-05,1742091321.7204769
0.2455,-0.00925,0.00425,-0.00013725001,-3.0500001e-05,-1.5250001e-05,1742091321.735158
0.24675,-0.0095,0.0045,0.00010675,-7.625e-05,-0.0002135,1742091321.749643
0.2475,-0.00975,0.005,0.000183,-0.000122000005,-0.0002595,1742091321.764064
0.248,-0.00975,0.006,0.000229,-0.000229,-0.00016775,1742091321.778485
0.24875,-0.00875,0.00925,0.00019825,-0.0002135,-0.00010675,1742091321.793108
0.249,-0.00825,0.01025,0.00010675,1.5250001e-05,-6.1000002e-05,1742091321.807415
0.2475,-0.00775,0.0085,3.0500001e-05,0.00013725001,-6.1000002e-05,1742091321.8229089
0.24625,-0.00725,0.00675,-7.625e-05,0.00027475,-3.0500001e-05,1742091321.836246
0.2445,-0.00675,0.00475,-0.000122000005,0.0002595,-7.625e-05,1742091321.850761
0.24425,-0.00775,0.004,-9.15e-05,0.00016775,-0.00016775,1742091321.865261
0.2445,-0.0105,0.00325,0.0,-9.15e-05,-0.0002595,1742091321.879704
0.24525,-0.011,0.0045,0.0,-0.000183,-0.000183,1742091321.8953679
0.246,-0.011,0.00575,3.0500001e-05,-0.0002595,-6.1000002e-05,1742091321.9087381
0.2475,-0.01125,0.0075,6.1000002e-05,-0.0002595,-4.575e-05,1742091321.9231942
0.248,-0.01075,0.00775,3.0500001e-05,-0.000183,7.625e-05,1742091321.937653
0.2485,-0.0085,0.007,-1.5250001e-05,-0.0001525,0.000122000005,1742091321.9527922
0.24875,-0.0075,0.00675,3.0500001e-05,-7.625e-05,0.000122000005,1742091321.9664419
0.24875,-0.0065,0.00775,0.00013725001,0.0,1.5250001e-05,1742091321.982235
0.248,-0.00725,0.008,0.0002135,0.000122000005,-0.00013725001,1742091321.9954078
0.24675,-0.0085,0.00625,0.000229,0.00029,-0.00029,1742091322.009823
0.2455,-0.00825,0.00475,0.00024425,0.000183,-0.0002595,1742091322.024114
0.24425,-0.008,0.00375,9.15e-05,7.625e-05,-7.625e-05,1742091322.038471
0.24425,-0.009,0.00375,3.0500001e-05,0.00010675,-7.625e-05,1742091322.052851
0.245,-0.01025,0.00375,0.0002135,-0.00010675,-0.00013725001,1742091322.067459
0.2465,-0.011,0.00625,0.0003205,-0.0002595,-0.000122000005,1742091322.08268
0.24725,-0.01,0.00825,0.00029,-0.0002135,0.0,1742091322.096344
0.2475,-0.00775,0.00925,0.00019825,-7.625e-05,7.625e-05,1742091322.110645
0.247,-0.00725,0.00775,0.00013725001,3.0500001e-05,9.15e-05,1742091322.1248379
0.24625,-0.00725,0.00625,0.00013725001,-1.5250001e-05,1.5250001e-05,1742091322.139146
0.24575,-0.00725,0.00625,0.0001525,-0.00010675,-3.0500001e-05,1742091322.153544
0.246,-0.007,0.00725,7.625e-05,-9.15e-05,-0.000122000005,1742091322.168161
0.24625,-0.00825,0.00775,-3.0500001e-05,1.5250001e-05,-0.0001525,1742091322.182925
0.246,-0.0095,0.00625,-4.575e-05,3.0500001e-05,-0.000183,1742091322.1970692
0.246,-0.01125,0.00475,0.0,-4.575e-05,-0.00013725001,1742091322.212661
0.2465,-0.011,0.0055,1.5250001e-05,-0.00010675,-6.1000002e-05,1742091322.22602
0.2475,-0.01,0.00725,9.15e-05,-0.00013725001,1.5250001e-05,1742091322.240428
0.24775,-0.01,0.00725,0.00013725001,-0.00013725001,-1.5250001e-05,1742091322.2551758
0.2475,-0.01,0.00675,0.0002595,-0.00010675,-3.0500001e-05,1742091322.26949
0.2475,-0.00875,0.007,0.0002595,-6.1000002e-05,1.5250001e-05,1742091322.2840152
0.24775,-0.008,0.0075,0.000122000005,0.0,6.1000002e-05,1742091322.298332
0.2475,-0.00825,0.007,0.00010675,4.575e-05,4.575e-05,1742091322.312576
0.247,-0.00875,0.0065,7.625e-05,0.00010675,4.575e-05,1742091322.327064
0.2465,-0.00875,0.00675,9.15e-05,9.15e-05,4.575e-05,1742091322.341331
0.2465,-0.0085,0.007,0.0001525,7.625e-05,3.0500001e-05,1742091322.3555698
0.2465,-0.0085,0.007,0.00024425,7.625e-05,-3.0500001e-05,1742091322.370086
0.2465,-0.0085,0.0065,0.00027475,9.15e-05,-4.575e-05,1742091322.384473
0.2465,-0.00875,0.0065,0.0001525,9.15e-05,6.1000002e-05,1742091322.398752
0.2465,-0.008,0.0065,1.5250001e-05,9.15e-05,0.0001525,1742091322.413183
0.246,-0.00825,0.006,0.0,9.15e-05,0.00016775,1742091322.427465
0.24575,-0.00825,0.006,7.625e-05,4.575e-05,0.000122000005,1742091322.441736
0.246,-0.00825,0.00675,9.15e-05,1.5250001e-05,9.15e-05,1742091322.456052
0.246,-0.00825,0.00675,0.00013725001,0.0,-1.5250001e-05,1742091322.4704058
0.24625,-0.0085,0.007,0.00019825,1.5250001e-05,-7.625e-05,1742091322.484829
0.2465,-0.00875,0.0075,0.000229,1.5250001e-05,-0.00010675,1742091322.49914
0.24625,-0.008,0.008,0.00013725001,4.575e-05,-7.625e-05,1742091322.513414
0.246,-0.00825,0.007,-1.5250001e-05,0.0001525,-3.0500001e-05,1742091322.527982
0.2445,-0.00825,0.0045,-4.575e-05,0.00013725001,1.5250001e-05,1742091322.54233
0.24425,-0.008,0.00425,-4.575e-05,6.1000002e-05,3.0500001e-05,1742091322.55683
0.24425,-0.0085,0.00525,0.00010675,-9.15e-05,-0.0001525,1742091322.572181
0.24475,-0.00925,0.006,0.00013725001,-0.000122000005,-0.0002135,1742091322.585695
0.2455,-0.00975,0.0065,0.00010675,-0.000122000005,-0.0002135,1742091322.6002471
0.2465,-0.00975,0.00675,7.625e-05,-0.00010675,-0.000183,1742091322.614731
0.24725,-0.0095,0.007,1.5250001e-05,-7.625e-05,-0.000122000005,1742091322.629267
0.248,-0.00925,0.0065,4.575e-05,-9.15e-05,-9.15e-05,1742091322.6449568
0.24825,-0.009,0.0065,0.00016775,-9.15e-05,-7.625e-05,1742091322.658239
0.248,-0.008,0.00775,0.000183,-7.625e-05,-4.575e-05,1742091322.6729321
0.24775,-0.00725,0.00775,-3.0500001e-05,0.0,3.0500001e-05,1742091322.687138
0.24775,-0.00675,0.00725,-0.000122000005,4.575e-05,6.1000002e-05,1742091322.70141
0.24775,-0.007,0.00675,-7.625e-05,7.625e-05,1.5250001e-05,1742091322.715832
0.2475,-0.00775,0.00675,0.00010675,6.1000002e-05,-0.0001525,1742091322.7301881
0.2475,-0.0085,0.0075,0.00013725001,6.1000002e-05,-0.00019825,1742091322.745388
0.24725,-0.009,0.0075,3.0500001e-05,0.0001525,-0.00013725001,1742091322.758892
0.24675,-0.00925,0.007,-7.625e-05,0.000183,-1.5250001e-05,1742091322.77333
0.2465,-0.00875,0.0075,-0.00016775,0.000183,0.0001525,1742091322.787664
0.24525,-0.007,0.00725,-0.00013725001,0.0002135,7.625e-05,1742091322.802484
0.245,-0.00725,0.006,-6.1000002e-05,0.000229,-4.575e-05,1742091322.816533
0.245,-0.00775,0.005,0.0,0.00013725001,-0.00016775,1742091322.8309891
0.245,-0.00875,0.00475,0.0,3.0500001e-05,-0.00016775,1742091322.845665
0.24525,-0.009,0.0055,4.575e-05,-6.1000002e-05,-0.000183,1742091322.859745
0.24525,-0.0095,0.007,6.1000002e-05,-3.0500001e-05,-0.000183,1742091322.8742578
0.245,-0.0095,0.006,0.0,1.5250001e-05,-0.0001525,1742091322.888623
0.245,-0.0095,0.00375,-4.575e-05,-4.575e-05,-9.15e-05,1742091322.903144
0.24525,-0.0095,0.0045,-1.5250001e-05,-0.00019825,-4.575e-05,1742091322.917791
0.246,-0.00925,0.00675,0.0,-0.00024425,-3.0500001e-05,1742091322.932547
0.246,-0.00925,0.007,-1.5250001e-05,-0.00029,0.0,1742091322.946722
0.24575,-0.00925,0.00675,0.0,-0.00029,3.0500001e-05,1742091322.9622579
0.24625,-0.0085,0.0075,3.0500001e-05,-0.00027475,0.0,1742091322.975426
0.247,-0.00825,0.00775,1.5250001e-05,-0.000229,-4.575e-05,1742091322.989942
0.24725,-0.008,0.00625,-4.575e-05,-0.000229,-3.0500001e-05,1742091323.004378
0.2475,-0.00775,0.006,0.0,-0.000229,-0.00010675,1742091323.018862
0.24825,-0.00675,0.00675,9.15e-05,-0.0002595,-0.00016775,1742091323.0333061
0.2485,-0.00675,0.00775,0.00013725001,-0.00027475,-0.0002135,1742091323.047714
0.24825,-0.00725,0.0095,1.5250001e-05,-0.00019825,-0.00016775,1742091323.0626078
0.24775,-0.0075,0.00975,-9.15e-05,-0.000122000005,-0.000122000005,1742091323.076824
0.247,-0.00725,0.0095,-0.00013725001,0.0001525,-0.000229,1742091323.091201
0.2455,-0.009,0.007,-0.00010675,0.00030525,-0.00035100002,1742091323.105633
0.2455,-0.0105,0.00525,-0.000122000005,0.0002595,-0.00039675,1742091323.1200142
0.24525,-0.012,0.0045,-0.00010675,0.0001525,-0.00029,1742091323.13443
0.245,-0.0115,0.0045,-0.000122000005,-1.5250001e-05,-1.5250001e-05,1742091323.14895
0.2455,-0.011,0.00425,-6.1000002e-05,-0.000122000005,4.575e-05,1742091323.163417
0.24575,-0.01,0.0055,4.575e-05,-0.00024425,7.625e-05,1742091323.1777651
0.24625,-0.00925,0.00725,0.00016775,-0.00039675,9.15e-05,1742091323.1921432
0.2475,-0.0085,0.009,0.00013725001,-0.00033575002,0.000122000005,1742091323.2064068
0.2475,-0.00775,0.0085,0.000122000005,-4.575e-05,3.0500001e-05,1742091323.220727
0.24725,-0.00675,0.00775,0.000183,-1.5250001e-05,-9.15e-05,1742091323.235179
0.24725,-0.00725,0.008,0.0002135,-0.00013725001,-0.000183,1742091323.24969
0.24725,-0.00725,0.00975,0.00016775,-3.0500001e-05,-0.000183,1742091323.264266
0.24675,-0.007,0.00925,-0.00010675,0.00016775,-1.5250001e-05,1742091323.2787259
0.24575,-0.008,0.006,-0.000229,0.00013725001,3.0500001e-05,1742091323.293143
0.24575,-0.00825,0.005,-0.0002135,6.1000002e-05,1.5250001e-05,1742091323.307494
0.246,-0.00825,0.00525,-3.0500001e-05,-0.000122000005,-0.000122000005,1742091323.322231
0.247,-0.00875,0.00775,3.0500001e-05,-0.0001525,-0.0001525,1742091323.336722
0.247,-0.00875,0.008,-6.1000002e-05,-4.575e-05,-0.00010675,1742091323.351329
0.246,-0.008,0.00775,-0.00010675,-1.5250001e-05,-7.625e-05,1742091323.365804
0.24625,-0.008,0.008,-6.1000002e-05,6.1000002e-05,-0.00019825,1742091323.380231
0.24625,-0.00925,0.007,-4.575e-05,0.00010675,-0.00027475,1742091323.395581
0.246,-0.0095,0.006,3.0500001e-05,6.1000002e-05,-0.00027475,1742091323.409157
0.24575,-0.01,0.00575,7.625e-05,0.00010675,-0.0002135,1742091323.4236438
0.246,-0.01025,0.006,6.1000002e-05,7.625e-05,-0.0002135,1742091323.4380422
0.24625,-0.01025,0.006,4.575e-05,-4.575e-05,-0.00019825,1742091323.452618
0.24675,-0.01075,0.00625,7.625e-05,-9.15e-05,-0.0001525,1742091323.4669929
0.24675,-0.01075,0.0065,1.5250001e-05,-0.00013725001,-1.5250001e-05,1742091323.482353
0.2465,-0.01,0.00725,-1.5250001e-05,-0.0001525,4.575e-05,1742091323.4960241
0.24675,-0.00975,0.0075,0.00016775,-0.0001525,-1.5250001e-05,1742091323.5105028
0.2475,-0.0085,0.00825,0.00027475,-0.000122000005,-7.625e-05,1742091323.5250309
0.248,-0.00725,0.00875,0.00035100002,-9.15e-05,-0.0001525,1742091323.539534
0.24825,-0.00775,0.00875,0.00029,-6.1000002e-05,-0.00013725001,1742091323.554038
0.248,-0.00775,0.009,0.0001525,-4.575e-05,-6.1000002e-05,1742091323.5685408
0.2475,-0.00775,0.009,-0.00016775,9.15e-05,4.575e-05,1742091323.583161
0.246,-0.00825,0.00775,-0.000229,0.000183,3.0500001e-05,1742091323.5976179
0.24575,-0.0095,0.0065,1.5250001e-05,0.000183,-0.0001525,1742091323.6123571
0.24625,-0.011,0.00675,9.15e-05,7.625e-05,-0.0001525,1742091323.6262069
0.24675,-0.0105,0.00725,0.0,-1.5250001e-05,-1.5250001e-05,1742091323.640707
0.24675,-0.00875,0.008,-6.1000002e-05,1.5250001e-05,3.0500001e-05,1742091323.6551292
0.24675,-0.00825,0.00725,-6.1000002e-05,4.575e-05,-1.5250001e-05,1742091323.6695008
0.2465,-0.0085,0.0065,-3.0500001e-05,7.625e-05,-4.575e-05,1742091323.684115
0.24675,-0.00875,0.00675,-3.0500001e-05,0.00010675,-6.1000002e-05,1742091323.698709
0.24675,-0.00925,0.00675,-6.1000002e-05,6.1000002e-05,-9.15e-05,1742091323.713262
0.24675,-0.00975,0.007,-3.0500001e-05,6.1000002e-05,-7.625e-05,1742091323.727704
0.24675,-0.00975,0.0075,-1.5250001e-05,4.575e-05,-6.1000002e-05,1742091323.742209
0.24675,-0.009,0.00875,0.0,7.625e-05,-6.1000002e-05,1742091323.756612
0.2465,-0.009,0.0085,-9.15e-05,0.000183,-3.0500001e-05,1742091323.772052
0.24625,-0.0095,0.007,-0.0001525,0.000229,0.0,1742091323.78532
0.246,-0.009,0.0065,-0.00010675,0.0002595,-3.0500001e-05,1742091323.799686
0.24575,-0.0085,0.00575,-7.625e-05,0.0002135,-6.1000002e-05,1742091323.814262
0.246,-0.00875,0.006,-9.15e-05,0.0001525,-6.1000002e-05,1742091323.828678
0.24625,-0.009,0.00625,-0.000229,7.625e-05,1.5250001e-05,1742091323.8431349
0.24725,-0.009,0.0075,-0.000183,9.15e-05,3.0500001e-05,1742091323.857429
0.24725,-0.009,0.00775,-0.00010675,0.00016775,1.5250001e-05,1742091323.873065
0.2465,-0.009,0.0075,-0.00010675,0.000183,0.0,1742091323.886126
0.24625,-0.00875,0.0065,1.5250001e-05,0.00024425,-7.625e-05,1742091323.9006
0.2465,-0.00875,0.0055,1.5250001e-05,0.00019825,-9.15e-05,1742091323.9148018
0.2465,-0.00875,0.00575,-3.0500001e-05,0.0001525,-6.1000002e-05,1742091323.929182
0.2465,-0.00875,0.00625,-9.15e-05,0.00013725001,-3.0500001e-05,1742091323.944851
0.24675,-0.00925,0.00675,-0.0001525,0.00016775,0.0,1742091323.958108
0.2465,-0.00975,0.006,-0.00013725001,0.0001525,0.0,1742091323.9736059
0.2465,-0.00925,0.0065,-6.1000002e-05,0.00010675,-1.5250001e-05,1742091323.986913
0.2465,-0.009,0.00675,-1.5250001e-05,7.625e-05,0.0,1742091324.001297
0.24575,-0.00925,0.0055,1.5250001e-05,6.1000002e-05,-1.5250001e-05,1742091324.0156622
0.2455,-0.00875,0.005,0.00010675,4.575e-05,-4.575e-05,1742091324.030058
0.24575,-0.00775,0.006,0.000183,3.0500001e-05,-0.000122000005,1742091324.045217
0.246,-0.00825,0.00575,0.000122000005,4.575e-05,-0.00013725001,1742091324.058965
0.246,-0.00925,0.005,-7.625e-05,-1.5250001e-05,-4.575e-05,1742091324.073493
0.24625,-0.01,0.00525,-0.000122000005,-6.1000002e-05,4.575e-05,1742091324.088052
0.24675,-0.0095,0.00625,0.0,-7.625e-05,3.0500001e-05,1742091324.1023328
0.247,-0.00925,0.00675,0.00013725001,-1.5250001e-05,-4.575e-05,1742091324.116819
0.247,-0.00975,0.00625,0.00029,-3.0500001e-05,-0.00010675,1742091324.132359
0.2465,-0.009,0.007,0.0002595,-0.000122000005,-0.00010675,1742091324.145776
0.2465,-0.0085,0.00725,0.000183,-0.000122000005,-6.1000002e-05,1742091324.160148
0.2465,-0.00825,0.007,-0.00013725001,4.575e-05,4.575e-05,1742091324.174509
0.2465,-0.00875,0.00575,-0.000229,4.575e-05,9.15e-05,1742091324.1888351
0.2465,-0.00875,0.006,-7.625e-05,-9.15e-05,0.000122000005,1742091324.2032351
0.24675,-0.00875,0.00675,1.5250001e-05,-0.00016775,9.15e-05,1742091324.2176378
0.247,-0.0085,0.00775,-6.1000002e-05,-0.00010675,6.1000002e-05,1742091324.2326531
0.2475,-0.00775,0.007,-0.00013725001,1.5250001e-05,7.625e-05,1742091324.246342
0.2475,-0.00775,0.0065,-0.000229,7.625e-05,9.15e-05,1742091324.2606552
0.24725,-0.0095,0.00725,-0.000229,1.5250001e-05,7.625e-05,1742091324.274932
0.247,-0.01,0.0085,-0.0001525,0.0,3.0500001e-05,1742091324.289336
0.24675,-0.00975,0.009,1.5250001e-05,0.0001525,-1.5250001e-05,1742091324.303645
0.24525,-0.0085,0.00775,-3.0500001e-05,0.0003205,0.0,1742091324.3181472
0.24475,-0.0085,0.00575,-0.00024425,0.00033575002,6.1000002e-05,1742091324.332662
0.2445,-0.00875,0.00375,-0.000229,0.00019825,3.0500001e-05,1742091324.3470562
0.24525,-0.00875,0.00375,6.1000002e-05,-6.1000002e-05,-0.000122000005,1742091324.362706
0.24675,-0.00925,0.00525,0.00016775,-0.0001525,-0.00010675,1742091324.375927
0.247,-0.00825,0.0065,0.000183,-0.000183,-4.575e-05,1742091324.390365
0.247,-0.00725,0.008,-9.15e-05,-9.15e-05,0.000122000005,1742091324.404848
0.247,-0.006,0.009,-0.0001525,-1.5250001e-05,6.1000002e-05,1742091324.4192
0.2465,-0.006,0.0085,7.625e-05,0.0002595,-0.00033575002,1742091324.433619
0.2465,-0.0075,0.00775,4.575e-05,0.0003815,-0.000473,1742091324.447944
0.246,-0.009,0.0055,-0.00013725001,0.000473,-0.00045775,1742091324.463038
0.246,-0.0105,0.003,-0.0002135,0.0003815,-0.00027475,1742091324.477078
0.246,-0.0105,0.004,-0.0002135,0.0001525,3.0500001e-05,1742091324.491321
0.246,-0.01,0.0055,-0.00010675,0.00010675,0.0,1742091324.505645
0.246,-0.0105,0.005,3.0500001e-05,9.15e-05,-7.625e-05,1742091324.519945
0.24625,-0.0105,0.00425,0.0001525,-9.15e-05,-0.000122000005,1742091324.534396
0.24675,-0.01,0.005,0.0001525,-0.000183,-4.575e-05,1742091324.548799
0.247,-0.00925,0.0065,-1.5250001e-05,-0.0001525,9.15e-05,1742091324.5632288
0.2475,-0.00775,0.00725,-3.0500001e-05,-6.1000002e-05,9.15e-05,1742091324.577719
0.2475,-0.0075,0.00675,4.575e-05,0.0,1.5250001e-05,1742091324.592014
0.247,-0.00825,0.0065,0.00013725001,-3.0500001e-05,-3.0500001e-05,1742091324.606368
0.24675,-0.00775,0.007,0.000183,-3.0500001e-05,-1.5250001e-05,1742091324.620908
0.246,-0.0075,0.0075,-7.625e-05,6.1000002e-05,9.15e-05,1742091324.635224
0.24475,-0.007,0.0045,-0.00016775,0.0001525,4.575e-05,1742091324.649628
0.24475,-0.0075,0.00275,4.575e-05,4.575e-05,-0.0002135,1742091324.6641338
0.2455,-0.00875,0.00375,0.00019825,-0.000122000005,-0.00030525,1742091324.678625
0.24625,-0.00925,0.0055,0.0001525,-0.00030525,-0.00019825,1742091324.6929762
0.2475,-0.00975,0.008,1.5250001e-05,-0.00024425,-7.625e-05,1742091324.7074409
0.2475,-0.00975,0.008,0.0,-1.5250001e-05,0.0,1742091324.722608
0.24725,-0.009,0.00675,6.1000002e-05,0.0,-4.575e-05,1742091324.736106
0.24675,-0.00875,0.00625,0.000122000005,0.0,-0.00010675,1742091324.7506938
0.24625,-0.00875,0.00575,0.00010675,0.0,-0.00013725001,1742091324.765121
0.2455,-0.00925,0.00475,6.1000002e-05,1.5250001e-05,-0.00010675,1742091324.779607
0.2455,-0.00925,0.0045,0.00010675,-7.625e-05,-9.15e-05,1742091324.7941718
0.24625,-0.009,0.00475,0.00016775,-0.00016775,-9.15e-05,1742091324.808619
0.247,-0.009,0.006,0.0,-0.0002595,6.1000002e-05,1742091324.8229718
0.24775,-0.009,0.0075,-9.15e-05,-0.00019825,0.00016775,1742091324.8373718
0.2475,-0.009,0.007,-7.625e-05,-0.00010675,0.00016775,1742091324.8528771
0.24725,-0.00875,0.00675,0.000122000005,-3.0500001e-05,-1.5250001e-05,1742091324.866206
