acc_x,acc_y,acc_z,gyro_x,gyro_y,gyro_z,timestamp
0.24375,0.05425,-0.0085,0.0002595,3.0500001e-05,0.00112925,1741839160.768734
0.243,0.05575,-0.008,0.00048825,-0.00013725001,0.00064075,1741839160.783005
0.242,0.056,-0.0085,0.00062550005,-0.00061025,0.0004425,1741839160.7976909
0.24275,0.05775,-0.00875,0.0005645,-0.00061025,0.00051875,1741839160.813382
0.243,0.0585,-0.0085,0.00036625,-9.15e-05,0.00039675,1741839160.826798
0.24225,0.0595,-0.008,0.00029,0.00027475,0.00035100002,1741839160.8412101
0.24125,0.06,-0.00925,0.0002135,0.00061025,0.00029,1741839160.8556108
0.24075,0.059,-0.01025,-0.00013725001,0.0007935,0.00029,1741839160.870198
0.24175,0.055,-0.01025,-0.00016775,0.0007325,0.0003205,1741839160.8847082
0.24175,0.052,-0.01025,-3.0500001e-05,0.00062550005,0.000412,1741839160.900249
0.2415,0.05425,-0.0095,0.0001525,0.0007325,0.00027475,1741839160.913567
0.24125,0.05375,-0.009,0.00029,0.0009765,0.00030525,1741839160.927976
0.24275,0.0525,-0.0075,0.00016775,0.001175,0.00054925,1741839160.9424121
0.2425,0.052,-0.008,-1.5250001e-05,0.001587,0.00102225,1741839160.956904
0.24175,0.05125,-0.009,3.0500001e-05,0.0016785001,0.0012970001,1741839160.971324
0.2415,0.052,-0.0095,0.00045775,0.001709,0.00149525,1741839160.985773
0.241,0.05425,-0.01075,0.0007325,0.00177,0.00149525,1741839161.0002549
0.24075,0.05575,-0.011,0.0009155,0.00181575,0.00154125,1741839161.014564
0.24075,0.05675,-0.01125,0.00096125,0.00184625,0.0017395001,1741839161.030408
0.2405,0.0585,-0.01225,0.00090025004,0.00193775,0.0018615,1741839161.043394
0.2405,0.05925,-0.013,0.000885,0.0021972498,0.00204475,1741839161.057796
0.23975,0.061,-0.0145,0.0009155,0.00231925,0.002121,1741839161.0721831
0.2395,0.06225,-0.0155,0.00093075,0.00239575,0.00225825,1741839161.086601
0.239,0.065,-0.01725,0.0009155,0.00238025,0.00225825,1741839161.101035
0.23825,0.0655,-0.0175,0.00061025,0.00238025,0.00216675,1741839161.11551
0.23775,0.06675,-0.01725,0.00030525,0.002411,0.0021819999,1741839161.130477
0.2375,0.06575,-0.01725,3.0500001e-05,0.00245675,0.0022125002,1741839161.1443992
0.2375,0.06225,-0.01825,-0.000229,0.0025940002,0.0022735,1741839161.158892
0.2375,0.06025,-0.01775,-0.00036625,0.0027160002,0.002533,1741839161.173428
0.23775,0.05975,-0.01725,-0.00083925005,0.0031127501,0.00328075,1741839161.187922
0.23825,0.06175,-0.01725,-0.00099175,0.0033722501,0.0036010002,1741839161.202413
0.23825,0.06225,-0.01725,-0.00105275,0.003662,0.00381475,1741839161.216931
0.23625,0.06275,-0.02075,-0.0013275,0.00378425,0.004013,1741839161.231389
0.23425,0.0625,-0.02375,-0.0021057501,0.0041810004,0.005539,1741839161.2459679
0.23375,0.062,-0.02775,-0.00213625,0.0043639997,0.00646975,1741839161.260492
0.23175,0.066,-0.0285,-0.0014037499,0.0056304997,0.00694275,1741839161.275012
0.1975,0.125,-0.041,-0.00065625,0.0077972496,0.0054475004,1741839161.290797
0.15525,0.2245,-0.06575,-0.0028229998,0.017151,-0.007553,1741839161.304242
0.04275,0.652,-0.17075,-0.010314999,0.02227775,-0.0245515,1741839161.318809
-0.048,0.84225,-0.2415,-0.02412425,0.024002,-0.0522765,1741839161.333487
-0.217,0.68575,-0.31425,-0.05264275,0.0065612504,-0.1335145,1741839161.3482509
-0.27575,0.4645,-0.3125,-0.052124,-0.011016751,-0.1764985,1741839161.363374
-0.3535,0.24925,-0.29925,-0.029541,-0.050003,-0.24346925,1741839161.377861
-0.47775,-0.0995,-0.029,-0.0237885,-0.071121246,-0.25889575,1741839161.392673
-0.44875,-0.29225,0.2585,-0.0335235,-0.0937805,-0.246109,1741839161.407414
-0.32675,-0.7545,0.60275,-0.037368752,-0.08088675,-0.22341925,1741839161.4220932
-0.26475,-0.967,0.60725,-0.035293497,-0.025466999,-0.13362125,1741839161.436842
-0.147,-0.98975,0.39775,-0.030761749,0.001892,-0.0683135,1741839161.451487
-0.09,-0.799,0.32325,-0.0148772495,0.024353001,0.02230825,1741839161.466049
-0.00925,-0.3695,0.131,-0.00590525,0.02259825,0.03012075,1741839161.4807198
0.03325,-0.27375,0.0215,0.0048979996,0.00744625,0.01463325,1741839161.4950771
0.11475,-0.19775,-0.06175,0.006302,-0.00070200005,0.0080567505,1741839161.5096629
0.12525,-0.1845,-0.0485,0.0051880004,-0.00982675,-0.00059500005,1741839161.524362
0.09375,-0.24025,-0.00375,0.00428775,-0.011184749,-0.002533,1741839161.539124
0.07475,-0.2795,0.01775,0.0048674997,-0.0089569995,0.0035095,1741839161.5536058
0.073,-0.3165,0.06325,0.0065002497,-0.0038605002,0.00880425,1741839161.568129
0.073,-0.31325,0.07125,0.009430001,0.004547,0.017303498,1741839161.5825212
0.07275,-0.27725,0.057,0.0102235,0.00488275,0.020202748,1741839161.596928
0.07225,-0.253,0.043,0.01098625,0.0032347501,0.0216675,1741839161.6114209
0.06875,-0.234,0.03125,0.011901749,-0.0012817499,0.021453751,1741839161.625965
0.06325,-0.2285,0.017,0.01145925,-0.00296025,0.0219575,1741839161.6410549
0.069,-0.23425,0.0195,0.0103455,-0.0037079998,0.026245002,1741839161.6550112
0.08325,-0.23825,0.033,0.010086001,-0.00334175,0.029296748,1741839161.670382
0.0845,-0.2305,0.03675,0.00833125,-0.0024872501,0.036193747,1741839161.684133
0.09925,-0.20425,0.0385,0.0057677496,-0.001709,0.040268,1741839161.6985972
0.127,-0.1955,0.04425,0.0031889998,9.15e-05,0.043808,1741839161.713632
0.14575,-0.205,0.0415,0.0042572496,0.00108325,0.041366503,1741839161.727471
0.14025,-0.21725,0.035,0.0068512503,0.00190725,0.03787225,1741839161.741914
0.1365,-0.2295,0.01875,0.0075072497,0.00119025,0.040207002,1741839161.756313
0.14375,-0.21525,0.0155,0.0077667497,0.00016775,0.04435725,1741839161.770818
0.163,-0.16475,0.01725,0.008270251,-0.00154125,0.05033875,1741839161.7853088
0.175,-0.14475,0.01925,0.008590749,-0.00204475,0.05072025,1741839161.8006778
0.1865,-0.132,0.02475,0.00846875,-0.0017242499,0.048522998,1741839161.8144152
0.20325,-0.12775,0.03325,0.00791925,-0.00074775,0.047409,1741839161.830685
0.20975,-0.13575,0.03275,0.0062407497,0.0017395001,0.048141498,1741839161.8434088
0.215,-0.1365,0.02625,0.0055085,0.002777,0.050354,1741839161.857997
0.221,-0.1245,0.02175,0.0060425,0.00355525,0.051528998,1741839161.8724911
0.225,-0.0925,0.018,0.00672925,0.0036010002,0.049347,1741839161.8870158
0.22225,-0.07275,0.0165,0.00567625,0.004303,0.04403675,1741839161.901535
0.21975,-0.048,0.00975,0.00488275,0.0047302498,0.0420075,1741839161.915918
0.21325,-0.04875,0.0065,0.0041044997,0.0050355,0.039794996,1741839161.930708
0.21975,-0.047,0.005,0.0040435,0.00520325,0.039505,1741839161.944712
0.23525,-0.046,0.00825,0.003952,0.00541675,0.04040525,1741839161.95918
0.2465,-0.04325,0.0105,0.0023039998,0.006012,0.043578997,1741839161.973501
0.244,-0.02,0.004,0.0016632499,0.006775,0.04281625,1741839161.987912
0.23675,-0.0065,-0.00225,0.0021819999,0.0078735,0.036758497,1741839162.002461
0.2235,0.0055,-0.01325,0.00263975,0.00741575,0.03382875,1741839162.0168462
0.22275,0.00875,-0.01375,0.00292975,0.00579825,0.030029248,1741839162.031234
0.2285,0.00775,-0.00925,0.0031585,0.0049895,0.0288085,1741839162.0456908
0.23225,0.00575,-0.008,0.0043944996,0.0042115003,0.027359,1741839162.0600362
0.23725,0.0195,-0.00625,0.0052947504,0.0048217503,0.02636725,1741839162.074504
0.23975,0.0355,-0.00375,0.0060882503,0.0058135,0.02507025,1741839162.088989
0.2385,0.0605,-0.0,0.0052795,0.007309,0.02357475,1741839162.103483
0.2385,0.056,-0.00575,0.00396725,0.0075682504,0.023650998,1741839162.118003
0.23725,0.041,-0.01325,0.0007935,0.0062255003,0.024078252,1741839162.13249
0.23575,0.02775,-0.0175,-0.0001525,0.0055695,0.02442925,1741839162.146991
0.236,0.0305,-0.0165,0.0020905002,0.0049742498,0.024643,1741839162.161438
0.236,0.0405,-0.019,0.0040435,0.004486,0.0242005,1741839162.175882
0.233,0.0495,-0.0225,0.00773625,0.00463875,0.022293,1741839162.190641
0.22475,0.0745,-0.018,0.008788999,0.0053405,0.02159125,1741839162.204692
0.22425,0.08475,-0.00875,0.0095672505,0.0052795,0.023178,1741839162.220096
0.23575,0.083,-0.005,0.010894749,0.00488275,0.02487175,1741839162.233439
0.23825,0.0755,-0.01125,0.013854999,0.00567625,0.02563475,1741839162.247966
0.233,0.076,-0.01525,0.022491502,0.011184749,0.02433775,1741839162.2635012
0.214,0.1115,-0.0065,0.0243225,0.01431275,0.023285,1741839162.276709
0.19425,0.15525,-0.002,0.022827249,0.021942249,0.014938249,1741839162.2910562
0.05525,0.4465,-0.06825,0.0265045,0.02633675,0.0015105,1741839162.3054879
-0.02725,0.7385,-0.144,0.02613825,0.020752002,-0.0501405,1741839162.32078
-0.116,1.0,-0.13825,0.015152001,0.0097045,-0.091385,1741839162.334888
-0.15275,0.94275,-0.0775,-0.003952,0.0003205,-0.1787415,1741839162.350691
-0.29525,0.56875,-0.05725,-0.008133001,0.00320425,-0.21243276,1741839162.3642912
-0.36625,0.339,0.00125,-0.02230825,-0.00016775,-0.2593385,1741839162.3806322
-0.3655,-0.47375,0.23275,-0.03572075,-0.0033875,-0.26103202,1741839162.393918
-0.2895,-0.8935,0.26175,-0.05172725,0.0142365,-0.18725576,1741839162.408688
-0.231,-1.0,0.1915,-0.04774475,0.026657,-0.124481246,1741839162.4233978
-0.197,-1.0,0.1585,-0.037963748,0.02693175,-0.0013275,1741839162.4380002
-0.10225,-0.68975,0.0115,-0.030181998,0.020934999,0.0343475,1741839162.452658
-0.023,-0.42725,-0.05575,-0.02165225,0.01301575,0.0468445,1741839162.467416
0.15425,-0.093,-0.111,-0.00469975,-0.00801075,0.02749625,1741839162.4822028
0.223,-0.02425,-0.0985,0.00102225,-0.016296498,0.0136565,1741839162.496798
0.29625,-0.0065,-0.018,0.0044250004,-0.020401,-0.0048217503,1741839162.511598
0.28975,-0.065,0.013,0.00354,-0.016540501,-0.010452249,1741839162.526195
0.25325,-0.14725,0.0215,0.0012207499,-0.0044707498,-0.012496999,1741839162.5409
0.1765,-0.25575,0.0125,-0.00054925,0.0024414998,-0.0077515002,1741839162.5554602
0.15225,-0.25775,0.0155,-0.002777,0.0099639995,0.00198375,1741839162.571081
0.10975,-0.22575,-0.00125,-0.00239575,0.0080872495,0.0029145,1741839162.58466
0.099,-0.213,-0.0095,-0.001648,0.0029449998,0.0030669998,1741839162.6008918
0.10475,-0.197,-0.008,-0.0019989999,0.00068675,0.00384525,1741839162.613965
0.11375,-0.19675,-0.0045,-0.0033264998,-0.00181575,0.00691225,1741839162.6286862
0.13175,-0.199,0.00225,-0.00378425,-0.00163275,0.00918575,1741839162.643306
0.1415,-0.197,0.0065,-0.0037995,-0.00061025,0.012771499,1741839162.6579762
0.155,-0.1935,0.00675,-0.0037079998,-0.0003815,0.013641249,1741839162.6726139
0.15925,-0.19625,0.00525,-0.0034637498,-0.00105275,0.014648501,1741839162.68717
0.16525,-0.2115,0.002,-0.00328075,-0.00160225,0.0157165,1741839162.701896
0.169,-0.21325,0.0025,-0.0024414998,-0.00289925,0.018737748,1741839162.716448
0.17925,-0.2095,0.01425,-0.001709,-0.0033875,0.020202748,1741839162.731422
0.1845,-0.211,0.02325,-0.00071725,-0.00354,0.0218505,1741839162.745694
0.1935,-0.2335,0.0305,0.0019225,-0.00267025,0.02705375,1741839162.760167
0.1955,-0.24025,0.0265,0.0025634998,-0.0012970001,0.030777,1741839162.7747579
0.19675,-0.23425,0.02125,0.0030975002,0.00193775,0.037368752,1741839162.79036
0.199,-0.19425,0.01725,0.00408925,0.0028074998,0.03878775,1741839162.803809
0.19525,-0.1745,0.017,0.0051574996,0.0036315,0.04043575,1741839162.818221
0.19325,-0.1495,0.0115,0.00485225,0.0036315,0.04220575,1741839162.832659
0.19775,-0.139,0.0065,0.0054475004,0.002777,0.0438385,1741839162.847191
0.20275,-0.1115,-0.00225,0.00631725,0.00251775,0.04281625,1741839162.862978
0.2035,-0.09625,-0.002,0.00874325,0.00193775,0.03952025,1741839162.876197
0.21125,-0.081,-0.00225,0.009445249,0.0013275,0.03837575,1741839162.891225
0.21675,-0.077,-0.001,0.0072785,0.00149525,0.037963748,1741839162.905306
0.22775,-0.06625,0.0,0.0054475004,0.001892,0.03837575,1741839162.920775
0.23125,-0.0555,-0.0,0.00453175,0.002121,0.038269002,1741839162.934317
0.236,-0.0365,-0.00025,0.0067902496,0.0022277501,0.03492725,1741839162.948842
0.2325,-0.03075,-0.0045,0.0084379995,0.00201425,0.03268425,1741839162.963653
0.22825,-0.02375,-0.008,0.007782,0.00108325,0.031158501,1741839162.977906
0.228,-0.01025,-0.0085,0.0065307496,0.0003815,0.03144825,1741839162.9923651
0.23375,-0.00975,-0.01,0.0049895,-0.00030525,0.030609248,1741839163.007095
0.2385,-0.01425,-0.0125,0.00541675,1.5250001e-05,0.02905275,1741839163.0216
0.23825,-0.01525,-0.0145,0.008499251,0.00065625,0.02616875,1741839163.036038
0.2325,-0.0145,-0.014,0.00883475,0.00070200005,0.02607725,1741839163.050816
0.23125,-0.00625,-0.00825,0.0063477503,-0.00016775,0.028885,1741839163.066279
0.22975,0.01525,-0.00225,0.00543225,-0.000824,0.030075,1741839163.081933
0.23075,0.02375,-0.00325,0.00770575,-0.0015105,0.028366,1741839163.095903
0.24225,0.03225,-0.00025,0.0095672505,-0.00115975,0.02557375,1741839163.1093938
0.24375,0.03525,0.0045,0.010299751,-0.00036625,0.02275075,1741839163.1234381
0.243,0.033,0.0085,0.008209251,0.001526,0.020904498,1741839163.1378188
0.2415,0.0325,0.00525,0.0068055,0.0019685,0.02186575,1741839163.152204
0.23775,0.035,-0.001,0.00715625,0.0027465,0.023956249,1741839163.16664
0.2325,0.0425,-0.00875,0.008865249,0.0034790002,0.02433775,1741839163.1811042
0.23025,0.04975,-0.01,0.0119630005,0.00466925,0.023193251,1741839163.1955829
0.2185,0.07675,-0.0125,0.012054499,0.00494375,0.0224305,1741839163.2100549
0.2155,0.08775,-0.0115,0.01004025,0.0045165,0.02130125,1741839163.2244139
0.2215,0.098,-0.007,0.008788999,0.0037079998,0.020401,1741839163.238944
0.222,0.1075,-0.00625,0.0073547503,0.00325,0.01728825,1741839163.253392
0.21025,0.1225,-0.013,0.006546,0.00384525,0.01579275,1741839163.267898
0.20075,0.132,-0.01475,0.0053252503,0.00469975,0.014282251,1741839163.282411
0.16875,0.18275,-0.0205,0.00276175,0.0071105,0.008514499,1741839163.296936
0.13675,0.2165,-0.031,0.0012665,0.009079001,0.00296025,1741839163.311407
0.10325,0.268,-0.0385,-0.0042115003,0.013549751,-0.016418502,1741839163.326154
0.0845,0.4535,-0.03425,-0.00941475,0.0157165,-0.03344725,1741839163.340875
0.04875,0.5395,-0.041,-0.02952575,0.024261499,-0.090622,1741839163.355467
-0.07025,0.58725,-0.06775,-0.041564997,0.02737425,-0.1245575,1741839163.370551
-0.148,0.56425,-0.07575,-0.054779,0.0084379995,-0.1790925,1741839163.3849862
-0.23225,0.309,-0.05,-0.052719,-0.01171875,-0.19773875,1741839163.400727
-0.25875,0.09775,0.02525,-0.036911,-0.0399475,-0.23777775,1741839163.41448
-0.288,-0.4895,0.1965,-0.0321655,-0.0424805,-0.2467805,1741839163.431038
-0.2705,-0.76075,0.21575,-0.025787251,-0.026672252,-0.209198,1741839163.444151
-0.2345,-0.97025,0.177,-0.02165225,-0.014510999,-0.16958624,1741839163.4590368
-0.205,-0.932,0.155,-0.0211335,0.0013427499,-0.07576,1741839163.4736562
-0.11975,-0.7205,0.11325,-0.022293,0.00570675,-0.0332795,1741839163.488448
-0.0585,-0.56275,0.084,-0.0162505,0.0076599997,0.013198749,1741839163.5030131
0.051,-0.3135,0.0065,-0.00862125,0.0036162501,0.014297499,1741839163.5175412
0.09375,-0.255,-0.03725,0.00393675,-0.0119934995,-0.00027475,1741839163.53216
0.15175,-0.2085,-0.0405,0.0073547503,-0.014679,-0.0064239996,1741839163.546887
0.1555,-0.208,-0.0065,0.009597749,-0.0115205,-0.01408375,1741839163.5634701
0.11725,-0.28075,0.02775,0.00953675,-0.008514499,-0.01510625,1741839163.576156
0.087,-0.31875,0.02175,0.00935375,-0.0043182503,-0.01326,1741839163.590846
0.04525,-0.31925,0.0105,0.008941749,0.00099175,-0.0022125002,1741839163.60538
0.03775,-0.29575,0.011,0.008133001,0.0012207499,0.00434875,1741839163.620984
0.038,-0.27,0.01325,0.00585925,0.00109875,0.013092,1741839163.634411
0.04225,-0.235,0.00925,0.004593,0.0012817499,0.0153655,1741839163.650923
0.0435,-0.222,0.003,0.00276175,0.00099175,0.01737975,1741839163.663414
0.05075,-0.20975,-0.00375,0.0022277501,4.575e-05,0.01678475,1741839163.678006
0.0565,-0.21375,-0.00025,0.0012970001,-0.0021972498,0.01454175,1741839163.6926742
0.0675,-0.23525,0.01775,0.00131225,-0.003006,0.0139465,1741839163.707291
0.068,-0.25225,0.022,0.0012207499,-0.0027465,0.01744075,1741839163.721819
0.071,-0.264,0.0215,0.00059500005,-0.0018005001,0.021347,1741839163.736279
0.07475,-0.256,0.0195,-0.00016775,-0.00059500005,0.02731325,1741839163.751074
0.08175,-0.242,0.0085,-0.0003815,-0.00064075,0.02905275,1741839163.765408
0.089,-0.2405,0.008,-0.001236,-0.00108325,0.0314025,1741839163.781049
0.09775,-0.23925,0.01225,-0.0015565,-0.0015565,0.032043498,1741839163.79487
0.10175,-0.241,0.01325,-0.00160225,-0.001709,0.03279125,1741839163.8094091
0.1095,-0.2385,0.01025,-0.00137325,-0.0013580001,0.035843,1741839163.824073
0.11675,-0.232,0.00875,-0.00090025004,-0.0015105,0.037323,1741839163.838654
0.1255,-0.22275,0.0095,0.0007935,-0.0026092501,0.037262,1741839163.853176
0.13925,-0.21175,0.013,0.0013427499,-0.0029449998,0.037048247,1741839163.867794
0.1445,-0.20525,0.013,7.625e-05,-0.0020752498,0.03970325,1741839163.882259
0.15625,-0.19325,0.01925,-0.00080875,-0.0015105,0.0412445,1741839163.89698
0.1595,-0.18975,0.0195,-0.00231925,-0.00051875,0.044464,1741839163.9132879
0.164,-0.17525,0.00925,-0.0029907501,-0.00027475,0.046051,1741839163.926163
0.16825,-0.164,0.00575,-0.00283825,-0.0010375,0.045700002,1741839163.94084
0.17925,-0.1445,0.00975,-0.001831,-0.001892,0.0436555,1741839163.955486
0.18275,-0.13525,0.014,1.5250001e-05,-0.0031889998,0.040222254,1741839163.970717
0.19375,-0.1205,0.02125,0.00024425,-0.0031889998,0.03970325,1741839163.984514
0.20175,-0.1195,0.02225,-0.00036625,-0.0022125002,0.03898625,1741839164.000532
0.215,-0.12075,0.01925,-0.00033575002,-0.0015565,0.037963748,1741839164.013827
0.21425,-0.116,0.01475,0.00062550005,-0.0009765,0.036209,1741839164.02831
0.21175,-0.09625,0.00475,0.0040587503,-0.00102225,0.032180753,1741839164.042772
0.21325,-0.08475,0.00325,0.0051269997,-0.0016175,0.0306855,1741839164.057373
0.21575,-0.07725,0.005,0.0043639997,-0.0022735,0.029449498,1741839164.0719738
0.2215,-0.0705,0.01325,0.0026854998,-0.00216675,0.030014,1741839164.0864909
0.22475,-0.0665,0.0175,-0.00064075,-0.0014037499,0.031723,1741839164.1011782
0.23625,-0.0605,0.02675,-0.0008545,-0.0009155,0.03132625,1741839164.1158762
0.23925,-0.062,0.02875,-0.00016775,0.0002135,0.029601999,1741839164.13109
0.2375,-0.06,0.0235,-0.00029,0.00102225,0.0299225,1741839164.144913
0.2375,-0.05725,0.02325,-0.00024425,0.003006,0.031662002,1741839164.159513
0.23975,-0.052,0.02225,0.0002595,0.00320425,0.032226503,1741839164.173908
0.24025,-0.0465,0.02175,0.0012970001,0.00279225,0.032653753,1741839164.188427
0.24,-0.02625,0.02775,0.00059500005,0.00292975,0.0335235,1741839164.202997
0.241,-0.018,0.03075,-0.0034637498,0.0045012496,0.037979253,1741839164.217489
0.24075,-0.01,0.02625,-0.0053405,0.00570675,0.0411225,1741839164.23207
0.2385,-0.002,0.02275,-0.0058287503,0.0068512503,0.043518003,1741839164.246392
0.23575,0.00375,0.018,-0.0034942501,0.0074615004,0.04441825,1741839164.261003
0.2325,0.01075,0.00625,-0.0020752498,0.0067445002,0.043258753,1741839164.2754
0.22675,0.0165,-0.001,-0.00086975005,0.0061035,0.041808996,1741839164.290946
0.2105,0.04925,-0.006,-0.00059500005,0.0070037497,0.042678747,1741839164.304468
0.20425,0.06925,-0.005,0.00334175,0.0080567505,0.04069525,1741839164.318967
0.1985,0.129,0.015,0.00671375,0.008346501,0.03591925,1741839164.33339
0.18975,0.1895,0.03575,0.0099945,0.012496999,0.0182495,1741839164.347806
0.11425,0.41075,0.02525,0.00617975,0.01605225,0.0050355,1741839164.363775
0.066,0.5595,-0.017,-0.01266475,0.021041749,-0.04385375,1741839164.376876
0.003,0.70225,-0.0675,-0.02026375,0.02250675,-0.0864105,1741839164.391524
-0.053,0.67325,-0.058,-0.02012625,0.02275075,-0.1384125,1741839164.406276
-0.22125,0.524,-0.1545,-0.000473,0.009734999,-0.21826175,1741839164.4209652
-0.282,0.4085,-0.17675,0.00169375,-0.0016632499,-0.23805225,1741839164.435749
-0.33625,0.27575,-0.11725,-0.012985251,-0.019744748,-0.271103,1741839164.4509382
-0.44925,-0.15325,0.1335,-0.017974751,-0.022827249,-0.28486624,1741839164.465357
-0.50375,-0.4945,0.21325,-0.0230865,-0.0106965,-0.2562255,1741839164.4811049
-0.52875,-1.0,0.21275,-0.026733499,0.0027312501,-0.202423,1741839164.4950662
-0.4875,-1.0,0.15025,-0.0292815,0.01782225,-0.06245425,1741839164.5097868
-0.313,-0.762,0.071,-0.02760325,0.01504525,-0.0093385,1741839164.524458
-0.1985,-0.54675,0.0495,-0.0164795,0.00378425,0.022354,1741839164.540284
0.0105,-0.3,-0.03025,-0.008712751,-0.00177,0.01257325,1741839164.553764
0.07225,-0.258,-0.06375,0.0015565,-0.011306751,-0.007187,1741839164.56848
0.1035,-0.238,-0.05925,0.00225825,-0.01345825,-0.00891125,1741839164.58317
0.092,-0.25625,-0.03675,-0.0001525,-0.010437001,-0.00469975,1741839164.598024
0.0545,-0.29925,0.01675,0.00045775,-0.0068969997,-0.00317375,1741839164.614193
0.03275,-0.31,0.027,0.0023497501,0.00080875,0.00175475,1741839164.626966
0.002,-0.3095,0.0195,0.00190725,0.00314325,0.00611875,1741839164.6414
0.0005,-0.2915,0.0175,0.00112925,0.0027465,0.011749251,1741839164.6558158
0.00875,-0.248,0.0225,0.00125125,0.00148,0.012329,1741839164.671073
0.01125,-0.235,0.02275,0.001114,0.00062550005,0.012542751,1741839164.6847749
0.01425,-0.2225,0.0125,0.00045775,0.0005035,0.012024,1741839164.7009752
0.017,-0.21875,0.00925,0.00051875,0.00048825,0.010788,1741839164.713776
0.02025,-0.22,0.0105,0.00048825,-0.00048825,0.00852975,1741839164.728302
0.02775,-0.2335,0.01925,-6.1000002e-05,-0.00080875,0.0085755,1741839164.742833
0.03225,-0.24,0.02175,-0.001175,-0.000763,0.009811499,1741839164.757542
0.03875,-0.24475,0.021,-0.0013580001,-0.00045775,0.0101165,1741839164.7721841
0.03825,-0.24775,0.01875,-0.00184625,0.0002595,0.010742251,1741839164.7867782
0.0395,-0.25925,0.0155,-0.0020599999,0.000412,0.0112,1741839164.8013692
0.04175,-0.26275,0.0175,-0.0014495,0.00027475,0.011764499,1741839164.815903
0.04675,-0.2685,0.026,-0.001175,0.0002135,0.012267999,1741839164.831507
0.04825,-0.27125,0.027,-0.00086975005,0.001068,0.01431275,1741839164.8449621
0.05275,-0.267,0.02575,-0.00051875,0.0016785001,0.015304499,1741839164.859423
0.0545,-0.26125,0.0245,0.00013725001,0.002365,0.016540501,1741839164.8739781
0.06075,-0.25175,0.02425,0.0003205,0.00228875,0.016739,1741839164.888365
0.06125,-0.2505,0.02125,0.00059500005,0.00175475,0.01652525,1741839164.902951
0.0615,-0.24975,0.01775,0.00125125,0.00067150005,0.016388,1741839164.917376
0.0665,-0.2475,0.019,0.00143425,0.00033575002,0.0168,1741839164.931968
0.07075,-0.24875,0.02375,0.00119025,0.000229,0.0188445,1741839164.9463491
0.08075,-0.25525,0.03225,0.00068675,0.00080875,0.020782499,1741839164.960812
0.08375,-0.255,0.03125,-0.00051875,0.00292975,0.025665252,1741839164.9752462
0.0885,-0.24675,0.0235,-0.00102225,0.0037079998,0.02804575,1741839164.990623
0.0915,-0.24225,0.02075,-0.0019225,0.00384525,0.03253175,1741839165.004276
0.09875,-0.23675,0.01875,-0.002365,0.00367725,0.034866247,1741839165.020117
0.104,-0.23375,0.01775,-0.0031585,0.00354,0.039322,1741839165.033466
0.1155,-0.22475,0.0165,-0.0031889998,0.0033264998,0.040710498,1741839165.0479538
0.123,-0.21675,0.01675,-0.0029145,0.0029907501,0.04135125,1741839165.0636532
0.1305,-0.207,0.01825,-0.00201425,0.0025940002,0.040664747,1741839165.076986
0.14275,-0.19275,0.02425,-0.00190725,0.0027160002,0.0404815,1741839165.0915048
0.149,-0.1945,0.026,-0.0032195,0.0041810004,0.0429535,1741839165.10609
0.1605,-0.19725,0.026,-0.0042725,0.0055847503,0.045105,1741839165.1205251
0.1635,-0.191,0.0215,-0.00485225,0.0076905,0.0482635,1741839165.135128
0.1665,-0.1655,0.00925,-0.00419625,0.008148249,0.0484925,1741839165.1507719
0.1705,-0.1525,0.0065,-0.00193775,0.0069885002,0.045776248,1741839165.1643
0.17725,-0.12925,0.00025,-0.00071725,0.00567625,0.04338075,1741839165.180418
0.183,-0.11775,0.00125,0.00099175,0.0034637498,0.03857425,1741839165.193363
0.20175,-0.10775,0.0205,0.001068,0.00305175,0.03712475,1741839165.207944
0.212,-0.11325,0.0305,-0.00146475,0.0047455,0.038147,1741839165.222463
0.22575,-0.112,0.03225,-0.0029145,0.00621025,0.039505,1741839165.237036
0.2275,-0.1065,0.02675,-0.00305175,0.0075225,0.03987125,1741839165.251484
0.22625,-0.099,0.01475,-0.000412,0.009719751,0.038437,1741839165.2659688
0.225,-0.09125,0.0075,0.00074775,0.0099945,0.038055502,1741839165.2810009
0.22325,-0.08075,0.00175,0.00146475,0.008773751,0.03752125,1741839165.29497
0.2255,-0.058,-0.00025,0.00115975,0.0078735,0.037063498,1741839165.309472
0.22925,-0.05025,0.00325,-3.0500001e-05,0.00715625,0.035843,1741839165.3240361
0.238,-0.046,0.008,-0.00039675,0.00744625,0.035049498,1741839165.338502
0.24,-0.04975,0.00625,-7.625e-05,0.00868225,0.03471375,1741839165.35305
0.2365,-0.05375,-0.00125,3.0500001e-05,0.009430001,0.03627025,1741839165.367483
0.23375,-0.052,-0.005,-0.00096125,0.010314999,0.043105997,1741839165.382074
0.2255,-0.03625,-0.0075,-0.001892,0.010314999,0.0469055,1741839165.396575
0.2255,-0.0305,-0.0055,-0.00245675,0.0093995,0.050491247,1741839165.411263
0.2265,0.00525,-0.00475,-0.00187675,0.008209251,0.04891975,1741839165.425739
0.221,0.031,-0.01525,-0.00080875,0.00694275,0.04621875,1741839165.441328
0.216,0.0515,-0.0245,0.00169375,0.00798025,0.040283248,1741839165.454656
0.2175,0.065,-0.02275,0.00216675,0.0088195,0.037597753,1741839165.4708438
0.21575,0.06625,-0.02075,0.00146475,0.00715625,0.0358125,1741839165.4836721
0.207,0.07625,-0.03475,0.001526,0.0058287503,0.035614,1741839165.498136
0.205,0.08225,-0.03975,0.00352475,0.006302,0.03341675,1741839165.5136058
0.202,0.102,-0.0395,0.0048217503,0.00712575,0.03182975,1741839165.52717
0.19625,0.12025,-0.04,0.00621025,0.008865249,0.028473,1741839165.5416052
0.1695,0.205,-0.04625,0.00469975,0.010894749,0.0256195,1741839165.556154
0.15025,0.3105,-0.05375,-0.0036315,0.018310498,0.0043944996,1741839165.571006
0.069,0.64775,-0.13125,-0.0065917503,0.0203095,-0.02275075,1741839165.585418
0.0025,0.75675,-0.17725,-0.0037995,0.0055237496,-0.10661325,1741839165.601022
-0.10675,0.701,-0.207,-0.00640875,-0.0067597497,-0.144989,1741839165.614815
-0.154,0.603,-0.2025,-0.0125885,-0.013137749,-0.17616275,1741839165.631306
-0.286,0.428,-0.20025,-0.02200325,-0.01481625,-0.23280326,1741839165.644515
-0.38175,0.34975,-0.16725,-0.025543248,-0.021576,-0.25962824,1741839165.659325
-0.5115,-0.028,0.1975,-0.0331725,-0.043578997,-0.29261774,1741839165.674156
-0.52125,-0.41775,0.4285,-0.03556825,-0.0482635,-0.2854005,1741839165.68904
-0.565,-1.0,0.53225,-0.0299835,-0.012115501,-0.2055665,1741839165.7038028
-0.592,-1.0,0.358,-0.02452075,0.014297499,-0.13867176,1741839165.7184541
-0.555,-1.0,0.18225,-0.018509,0.026352,-0.010666001,1741839165.733096
-0.27875,-0.562,0.053,-0.01257325,0.01316825,0.01716625,1741839165.7478
-0.12525,-0.33625,0.006,0.00302125,-0.009430001,0.0037385002,1741839165.764194
0.0585,-0.1605,-0.10025,0.00668325,-0.0138245,-0.0101775,1741839165.7769978
0.093,-0.1565,-0.10425,0.0050965,-0.018035999,-0.02050775,1741839165.7916539
0.0925,-0.23275,-0.047,0.0033722501,-0.01799,-0.020019501,1741839165.806384
0.07125,-0.27875,-0.01275,0.0037079998,-0.013549751,-0.017578252,1741839165.821119
0.012,-0.35275,0.01425,0.0048217503,-0.011078,-0.015396,1741839165.835824
-0.007,-0.3645,0.01975,0.00453175,-0.008224499,-0.00466925,1741839165.851187
0.0005,-0.34075,0.045,0.0041504996,-0.007431,0.0021972498,1741839165.865189
0.01175,-0.3195,0.055,0.00369275,-0.0038757501,0.014724749,1741839165.88116
0.02,-0.2775,0.038,0.00352475,-0.00125125,0.019027751,1741839165.894243
0.0175,-0.25125,0.01925,0.00378425,0.00198375,0.019989,1741839165.90867
0.0105,-0.20425,-0.00525,0.0037385002,0.001709,0.017883249,1741839165.923174
0.00875,-0.1955,-0.008,0.0033264998,0.00062550005,0.0154725,1741839165.937741
0.00475,-0.216,-0.003,0.0020752498,-0.0029755002,0.012496999,1741839165.952343
0.00525,-0.2345,0.00475,0.00119025,-0.0047302498,0.013290499,1741839165.966971
0.01075,-0.2475,0.015,-0.0012817499,-0.0057220003,0.018982,1741839165.9815218
0.02625,-0.26425,0.029,-0.0020752498,-0.0048217503,0.0219575,1741839165.9960802
0.02975,-0.27325,0.02975,-0.0026092501,-0.00270075,0.0280305,1741839166.010784
0.02975,-0.28625,0.024,-0.0027160002,-0.00213625,0.031372,1741839166.0254238
0.0325,-0.289,0.02275,-0.00154125,-0.00198375,0.035843,1741839166.0410712
0.04625,-0.29125,0.024,0.00027475,-0.0025025,0.03677375,1741839166.0545049
0.054,-0.28825,0.0245,0.00331125,-0.0039215,0.039779752,1741839166.070563
0.076,-0.25925,0.0205,0.0034484998,-0.00463875,0.04190075,1741839166.083482
0.08675,-0.2415,0.01975,0.0016785001,-0.00367725,0.04588325,1741839166.098041
0.107,-0.21775,0.019,-3.0500001e-05,-0.00187675,0.04777525,1741839166.11378
0.11625,-0.209,0.0165,-0.0018005001,0.000534,0.04891975,1741839166.127049
0.133,-0.19075,0.0145,-0.00109875,0.00096125,0.047378503,1741839166.141719
0.142,-0.1825,0.013,0.000229,0.0012055,0.04473875,1741839166.156178
0.149,-0.17525,0.01175,0.0025787498,0.00201425,0.037658747,1741839166.170971
0.15375,-0.1655,0.006,0.0033570002,0.00213625,0.034011748,1741839166.185045
0.15475,-0.16525,0.0025,0.00378425,0.00175475,0.029174749,1741839166.200809
0.158,-0.1705,0.00125,0.003296,0.00169375,0.0285035,1741839166.213894
0.16125,-0.17075,0.00125,0.0022125002,0.0016785001,0.029220501,1741839166.228378
0.168,-0.16525,0.00125,0.00201425,0.0016175,0.0296325,1741839166.242789
0.171,-0.15925,0.00125,0.00175475,0.00146475,0.029601999,1741839166.257304
0.18075,-0.15175,0.00975,0.0016175,0.00137325,0.02911375,1741839166.271762
0.18375,-0.15475,0.01425,0.00112925,0.0020905002,0.02911375,1741839166.2861922
0.18675,-0.1595,0.013,0.00074775,0.0029755002,0.030014,1741839166.301001
0.1875,-0.15525,0.0085,0.0003815,0.00381475,0.03120425,1741839166.315049
0.189,-0.14675,0.004,0.0003815,0.0042115003,0.03274525,1741839166.33107
0.19475,-0.13325,0.0,0.000946,0.00355525,0.032714747,1741839166.343791
0.1995,-0.13225,0.001,0.0023345,0.001709,0.0331725,1741839166.3583438
0.20625,-0.13425,0.00475,0.0019989999,0.00143425,0.034546003,1741839166.372777
0.2085,-0.1295,0.0065,-0.00148,0.00242625,0.039245497,1741839166.38726
0.209,-0.11075,0.00025,-0.0026854998,0.0031127501,0.041092,1741839166.401767
0.21025,-0.1035,-0.00375,-0.0008545,0.0032347501,0.041961752,1741839166.4162922
0.21975,-0.09225,-0.00775,0.001236,0.0022125002,0.041396998,1741839166.4311
0.2235,-0.0815,-0.006,0.00402825,0.0,0.040237498,1741839166.445465
0.22375,-0.05375,0.00075,0.003418,-0.00016775,0.040573,1741839166.459905
0.225,-0.04025,0.0025,0.00146475,9.15e-05,0.041610748,1741839166.474337
0.23,-0.03075,0.0015,-0.0026854998,0.000946,0.043289248,1741839166.488939
0.239,-0.0225,-0.001,-0.00308225,0.0013580001,0.04296875,1741839166.5035179
0.2365,-0.02125,-0.00675,-6.1000002e-05,0.001526,0.039794996,1741839166.518066
0.225,-0.017,-0.01075,0.0019225,0.00105275,0.037658747,1741839166.532641
0.2225,-0.01075,-0.00875,0.00428775,-0.00090025004,0.034546003,1741839166.5472279
0.224,0.01975,-0.00075,0.0046845004,-0.00149525,0.03408825,1741839166.56368
0.224,0.0305,0.00225,0.00413525,-0.001068,0.0363465,1741839166.576094
0.22975,0.02725,0.00425,0.00213625,-0.00039675,0.03910825,1741839166.591174
0.23575,0.02825,0.00775,-0.0038757501,0.00225825,0.045578,1741839166.6049411
0.24375,0.03525,0.01225,-0.0052185003,0.0043335,0.04736325,1741839166.620519
0.2395,0.04725,0.01175,-0.0041504996,0.00646975,0.046814,1741839166.6337962
0.2155,0.08875,-0.003,0.00491325,0.009811499,0.03942875,1741839166.648323
0.194,0.12225,-0.0065,0.010818499,0.012024,0.033783,1741839166.663758
0.1645,0.18325,-0.00025,0.014358499,0.016159,0.020691,1741839166.677342
0.116,0.47925,-0.02575,0.0084379995,0.0180665,0.009811499,1741839166.691744
0.08675,0.6645,-0.0635,-0.00976575,0.021331752,-0.04556275,1741839166.7063801
-0.01825,0.81025,-0.13025,-0.01567075,0.020629998,-0.09019475,1741839166.721117
-0.107,0.78475,-0.16675,-0.024826,0.016143749,-0.1855315,1741839166.735919
-0.279,0.6775,-0.172,-0.02978525,0.01095575,-0.22616576,1741839166.750946
-0.373,0.5795,-0.1095,-0.03370675,-0.013992251,-0.28582776,1741839166.765391
-0.54325,0.0495,0.22525,-0.03477475,-0.02398675,-0.29705802,1741839166.780718
-0.6055,-0.4125,0.387,-0.0360565,-0.00691225,-0.258026,1741839166.794891
-0.65625,-1.0,0.26475,-0.0267945,0.011764499,-0.20817575,1741839166.809603
-0.58625,-1.0,0.13175,-0.0095672505,0.0158385,-0.080124,1741839166.824309
-0.3065,-0.8785,0.0965,-0.008651749,0.0032195,-0.02265925,1741839166.8407109
-0.14725,-0.6575,0.11975,-0.00947575,-0.0057677496,0.0282745,1741839166.8536808
0.069,-0.28325,-0.01125,-0.004013,-0.0038299998,0.01985175,1741839166.868377
0.125,-0.20675,-0.083,0.0046234997,-0.0046845004,-0.0058135,1741839166.883127
0.1545,-0.17875,-0.09275,0.00352475,-0.0050965,-0.00997925,1741839166.897865
0.1315,-0.2045,-0.07475,0.00109875,-0.00378425,-0.010604749,1741839166.914049
0.063,-0.2925,-0.04725,-0.0010375,-0.000122000005,-0.00770575,1741839166.927385
0.0415,-0.3215,-0.0255,-0.0012207499,0.0007935,-0.0042572496,1741839166.942058
0.02575,-0.32725,0.00925,-0.0017242499,0.0017852499,0.00413525,1741839166.9566588
0.02575,-0.30925,0.012,-0.00169375,0.0016785001,0.00738525,1741839166.9711401
0.028,-0.283,0.00875,-0.0012207499,-9.15e-05,0.011139,1741839166.985802
0.03375,-0.231,0.0025,-0.0017852499,-0.00093075,0.0123595,1741839167.0010722
0.035,-0.2135,0.00075,-0.0035095,-0.0013580001,0.013183501,1741839167.015019
0.0455,-0.1985,0.0105,-0.004013,-0.0012665,0.012771499,1741839167.031371
0.0515,-0.19925,0.01575,-0.0042267498,-0.00065625,0.0106965,1741839167.044138
0.0545,-0.216,0.01425,-0.0041044997,-0.0005035,0.009719751,1741839167.058694
0.05475,-0.226,0.012,-0.0034637498,-0.0012970001,0.009491,1741839167.0733209
0.061,-0.23325,0.0105,-0.0030975002,-0.0017852499,0.00975025,1741839167.0879629
0.06675,-0.235,0.01275,-0.00270075,-0.00193775,0.00947575,1741839167.102514
0.074,-0.245,0.0105,-0.0027312501,-0.0016175,0.0091095,1741839167.117095
0.073,-0.25025,0.0075,-0.0023345,-0.0011445,0.008727999,1741839167.131753
0.06725,-0.255,0.009,-0.00201425,-0.0011445,0.009231499,1741839167.1463192
0.0685,-0.25775,0.01425,-0.0016175,-0.00119025,0.01013175,1741839167.160974
0.07675,-0.26675,0.023,-0.00033575002,-0.000763,0.012267999,1741839167.175523
0.07925,-0.2685,0.02175,0.00035100002,-9.15e-05,0.0135955,1741839167.191273
0.081,-0.26325,0.01675,0.0014037499,0.001114,0.015976,1741839167.20452
0.08425,-0.24525,0.00925,0.0016785001,0.00115975,0.01637275,1741839167.22067
0.08625,-0.23775,0.00675,0.0017242499,-0.00057975,0.0159455,1741839167.2334762
0.098,-0.236,0.017,0.001831,-0.00083925005,0.015442001,1741839167.247932
0.1035,-0.2425,0.0245,0.0023497501,0.000534,0.01542675,1741839167.2632551
0.1015,-0.255,0.025,0.0026245,0.0016785001,0.01646425,1741839167.276766
0.09725,-0.256,0.0205,0.0028687501,0.00334175,0.0203095,1741839167.291307
0.09425,-0.24875,0.00775,0.0029907501,0.0034942501,0.0222015,1741839167.30571
0.0975,-0.24125,0.00225,0.0032655,0.0032347501,0.023697,1741839167.320891
0.11,-0.22125,0.00525,0.0039825,0.0020599999,0.025299,1741839167.3346078
0.11825,-0.2175,0.01025,0.003769,0.0016785001,0.02592475,1741839167.350649
0.12475,-0.21675,0.0115,0.0022125002,0.0018615,0.028,1741839167.3639948
0.13175,-0.21825,0.00625,0.00193775,0.0027160002,0.029022248,1741839167.378077
0.1325,-0.21725,0.00375,0.001587,0.00381475,0.031601,1741839167.3924742
0.13725,-0.208,-0.00275,0.001175,0.00352475,0.033264253,1741839167.406983
0.143,-0.1965,-0.00625,0.000885,0.0019685,0.035324,1741839167.421407
0.15225,-0.17125,-0.006,0.00093075,0.00119025,0.0351715,1741839167.435908
0.15725,-0.165,-0.00125,0.00048825,-0.0005035,0.033264253,1741839167.450563
0.16825,-0.16975,0.00975,0.000473,-0.00137325,0.031967252,1741839167.464913
0.17525,-0.17575,0.01325,0.00109875,-0.0019225,0.030914249,1741839167.480541
0.184,-0.17675,0.01,0.000885,-0.001419,0.03205875,1741839167.493845
0.18775,-0.16725,0.0065,0.0003205,-0.00074775,0.03408825,1741839167.508432
0.19175,-0.155,0.0035,0.00029,-0.00035100002,0.037490748,1741839167.52293
0.20175,-0.13475,0.00525,0.000412,-0.00029,0.038147,1741839167.537418
0.2055,-0.12975,0.01075,-0.00035100002,0.000885,0.038452253,1741839167.551926
0.20625,-0.132,0.014,-0.00065625,0.001831,0.0390015,1741839167.566415
0.20625,-0.13525,0.00925,-0.0003815,0.0036010002,0.04090875,1741839167.580971
0.20825,-0.132,-0.00025,0.00054925,0.0040435,0.04205325,1741839167.5954401
0.214,-0.121,-0.003,0.0033875,0.00372325,0.0437775,1741839167.609911
0.22275,-0.079,-0.00075,0.00402825,0.0033722501,0.0436555,1741839167.624387
0.224,-0.06425,0.0025,0.00463875,0.0025940002,0.041381747,1741839167.6388211
0.22225,-0.064,0.0025,0.0050355,0.002365,0.041092,1741839167.653286
0.22275,-0.06475,-0.00275,0.0055695,0.002365,0.04211425,1741839167.6678941
0.2265,-0.057,-0.009,0.0074920002,0.0036315,0.0434875,1741839167.6824021
0.24025,-0.02975,-0.00075,0.00874325,0.0044707498,0.0417785,1741839167.696929
0.2405,-0.027,0.0015,0.011123749,0.00543225,0.0382385,1741839167.7113469
0.23425,-0.02475,0.0055,0.01098625,0.007187,0.03901675,1741839167.7257721
0.23675,-0.0095,0.00675,0.0085602505,0.01127625,0.043701246,1741839167.740502
0.2345,0.038,-0.0045,0.0081635,0.01307675,0.04429625,1741839167.754775
0.22525,0.056,-0.016,0.009613,0.01593025,0.04122925,1741839167.770208
0.2065,0.0825,-0.043,0.01026925,0.016540501,0.03933725,1741839167.783772
0.2,0.0995,-0.05125,0.01228325,0.0156555,0.03331,1741839167.798249
0.185,0.15975,-0.0555,0.0138855,0.015075751,0.02787775,1741839167.813786
0.1715,0.21575,-0.0495,0.015029999,0.01531975,0.02000425,1741839167.827337
0.1265,0.36,-0.06125,0.01245125,0.01817325,-0.00494375,1741839167.841871
0.0905,0.43675,-0.09425,0.008270251,0.0186615,-0.0221405,1741839167.856392
0.052,0.506,-0.1265,-0.0039825,0.01266475,-0.06747425,1741839167.871021
-0.005,0.607,-0.1415,-0.013778751,0.00833125,-0.09724425,1741839167.885819
-0.05375,0.63025,-0.13575,-0.0356445,0.0013580001,-0.1698455,1741839167.9008262
-0.24425,0.60175,-0.1535,-0.04319775,-0.0042725,-0.20416251,1741839167.9153779
-0.35775,0.5185,-0.1385,-0.05284125,-0.025406,-0.25248724,1741839167.93138
-0.54175,0.06725,0.18,-0.057494998,-0.037368752,-0.26475525,1741839167.944812
-0.56125,-0.37225,0.42175,-0.056961,-0.034958,-0.24371326,1741839167.959689
-0.5385,-1.0,0.482,-0.0469055,-0.013793999,-0.206894,1741839167.97437
-0.521,-1.0,0.35225,-0.030334499,0.017929,-0.09600825,1741839167.990565
-0.345,-0.91725,0.18225,-0.02487175,0.0158385,-0.04005425,1741839168.003835
-0.22375,-0.709,0.138,-0.012909001,0.0056304997,0.014206001,1741839168.018465
-0.028,-0.2875,-0.02,-0.0066985004,0.0024872501,0.009582501,1741839168.0331452
0.01825,-0.199,-0.08775,0.00279225,-0.00788875,-0.014068499,1741839168.047828
0.04275,-0.19725,-0.09975,0.0044250004,-0.01367175,-0.01914975,1741839168.063296
0.032,-0.2355,-0.07025,0.0031889998,-0.019455,-0.0177765,1741839168.077281
0.00825,-0.32225,0.022,0.0030975002,-0.01953125,-0.014938249,1741839168.091892
0.00175,-0.35425,0.05475,0.0045777503,-0.0160675,-0.0054015,1741839168.1065118
0.0035,-0.35575,0.071,0.00514225,-0.01310725,0.00099175,1741839168.121019
0.0095,-0.331,0.065,0.00585925,-0.0104065,0.0070342496,1741839168.135472
0.01325,-0.267,0.04025,0.0070952503,-0.0060425,0.015289251,1741839168.151204
0.0115,-0.23925,0.028,0.0070037497,-0.0043944996,0.0173645,1741839168.164476
0.00775,-0.22025,0.0185,0.0058287503,-0.002884,0.01719675,1741839168.180896
0.00775,-0.21675,0.008,0.0050812503,-0.0031889998,0.015976,1741839168.1933591
0.01175,-0.22425,0.0105,0.003952,-0.0045625,0.014267,1741839168.20785
0.0235,-0.2455,0.02575,0.0034790002,-0.0048217503,0.014587499,1741839168.2223969
0.02825,-0.2555,0.03125,0.0022735,-0.0033264998,0.01763925,1741839168.236928
0.038,-0.27075,0.029,0.00154125,-0.00163275,0.0196685,1741839168.2513971
0.038,-0.27175,0.0215,0.001526,0.001526,0.0222015,1741839168.265874
0.032,-0.27025,0.013,0.00193775,0.0019685,0.023117,1741839168.280864
0.02875,-0.27425,0.013,0.0020599999,0.001648,0.02459725,1741839168.294775
0.02925,-0.279,0.017,0.00184625,0.00071725,0.029144252,1741839168.309241
0.03275,-0.2765,0.01825,0.0019989999,0.00029,0.03125,1741839168.323615
0.03825,-0.27225,0.01725,0.00238025,-0.00068675,0.034438998,1741839168.33811
0.0585,-0.2575,0.016,0.00267025,-0.00080875,0.035049498,1741839168.352593
0.06775,-0.2485,0.0155,0.00396725,-0.00067150005,0.033966,1741839168.367136
0.08025,-0.2335,0.01675,0.0045165,-0.000885,0.0332795,1741839168.3816562
0.0855,-0.23125,0.01725,0.004593,-0.00099175,0.03373725,1741839168.39617
0.09275,-0.22875,0.0125,0.0043944996,-0.00065625,0.0345765,1741839168.410659
0.09625,-0.2235,0.0065,0.0048065,-0.000534,0.035659753,1741839168.42515
0.10675,-0.21,-0.0005,0.0051574996,-0.00112925,0.035827752,1741839168.4404118
0.11375,-0.20825,-0.0,0.004776,-0.00340275,0.0372925,1741839168.454289
0.133,-0.2085,0.01125,0.003952,-0.004303,0.03862,1741839168.470505
0.143,-0.2055,0.0185,0.0032347501,-0.00444025,0.039627,1741839168.4833548
0.15075,-0.20025,0.0225,0.00352475,-0.00317375,0.03945925,1741839168.49789
0.158,-0.18925,0.01725,0.0043944996,-0.00254825,0.0384675,1741839168.5141802
0.15675,-0.1835,0.0145,0.00564575,-0.00157175,0.036789,1741839168.526837
0.16425,-0.1705,0.014,0.0052185003,-0.000763,0.03742975,1741839168.541354
0.1705,-0.16525,0.01375,0.0029145,0.003006,0.041748002,1741839168.555797
0.177,-0.15475,0.0055,0.00204475,0.00517275,0.04382325,1741839168.5710762
0.1795,-0.14725,-0.00125,0.0021515,0.00823975,0.0450135,1741839168.584737
0.189,-0.1305,-0.00425,0.00289925,0.008255,0.043869,1741839168.6007948
0.19325,-0.126,-0.0035,0.0036315,0.0063325,0.0410155,1741839168.613823
0.1955,-0.128,-0.00575,0.003128,0.00543225,0.041076753,1741839168.628187
0.20025,-0.12725,-0.00675,0.0022735,0.0054015,0.04240425,1741839168.642626
0.21325,-0.1125,-0.00725,0.00231925,0.00614925,0.044281,1741839168.65713
0.21825,-0.1,-0.007,0.00402825,0.00585925,0.043105997,1741839168.671652
0.219,-0.08975,-0.00825,0.00770575,0.0045165,0.038971,1741839168.686156
0.216,-0.07575,-0.01325,0.00782775,0.00411975,0.03840625,1741839168.700973
0.217,-0.0705,-0.01325,0.00593575,0.00408925,0.040954497,1741839168.715151
0.22425,-0.056,-0.0085,0.0051880004,0.00440975,0.04273975,1741839168.731046
0.22825,-0.0485,-0.00675,0.0042725,0.0055085,0.045166,1741839168.744095
0.23025,-0.0445,-0.011,0.0041810004,0.0062865,0.04582225,1741839168.758652
0.2275,-0.0425,-0.01675,0.00485225,0.0074920002,0.0472565,1741839168.7730932
0.217,-0.01775,-0.0265,0.0052795,0.0075225,0.0480805,1741839168.787672
0.215,0.002,-0.02475,0.0057372497,0.00671375,0.04901125,1741839168.802113
0.224,0.0335,-0.011,0.0054475004,0.00672925,0.0489655,1741839168.816482
0.228,0.043,-0.00625,0.004593,0.0074920002,0.04859925,1741839168.8312588
0.2305,0.05225,-0.00625,0.0033722501,0.01065075,0.0448455,1741839168.8454652
0.214,0.0835,-0.02725,0.0043182503,0.012085,0.040207002,1741839168.859937
0.19525,0.09725,-0.04475,0.007904,0.0123595,0.0298615,1741839168.874259
0.17725,0.125,-0.0575,0.009491,0.011550999,0.02528375,1741839168.890348
0.179,0.14225,-0.05125,0.012085,0.010742251,0.016967751,1741839168.9033012
0.16525,0.2,-0.0395,0.0125275,0.01104725,0.01216125,1741839168.917783
0.14575,0.2645,-0.04375,0.00947575,0.0163575,-0.00520325,1741839168.932339
0.101,0.531,-0.05375,0.003296,0.02067575,-0.02180475,1741839168.9468071
0.075,0.68025,-0.061,-0.023650998,0.02459725,-0.07545475,1741839168.961419
-0.03725,0.85475,-0.114,-0.040573,0.026733499,-0.11372375,1741839168.976118
-0.1455,0.878,-0.13875,-0.05679325,0.02778625,-0.158432,1741839168.9912598
-0.42675,0.74675,-0.14275,-0.07501225,0.0081025,-0.23982225,1741839169.005634
-0.53175,0.556,-0.03,-0.07574475,-0.01228325,-0.26545724,1741839169.0204842
-0.587,0.26975,0.225,-0.08415225,-0.0375365,-0.28215024,1741839169.035049
-0.652,-0.64875,0.71425,-0.08215325,-0.02674875,-0.273529,1741839169.0508952
-0.72925,-1.0,0.6195,-0.051468,0.033325247,-0.18818675,1741839169.064616
-0.74025,-1.0,0.14575,-0.035431,0.043457,-0.109253,1741839169.081215
-0.59075,-0.95025,0.088,-0.020172002,0.00570675,0.02958675,1741839169.093898
-0.1725,-0.46175,0.09025,-0.01490775,-0.009643501,0.04930125,1741839169.108588
-0.009,-0.2545,0.0015,-0.0026854998,-0.014846751,0.01257325,1741839169.1232672
0.15825,-0.1255,-0.12,0.00036625,-0.0156555,-0.00738525,1741839169.138006
0.179,-0.14575,-0.0955,-0.00181575,-0.0169525,-0.01997375,1741839169.1528409
0.1115,-0.2695,-0.03225,-0.0030975002,-0.01445,-0.01940925,1741839169.167714
0.05825,-0.333,-0.005,-0.00061025,-0.0066374997,-0.014800999,1741839169.18244
-0.00725,-0.39025,0.03325,0.00231925,-0.00535575,-0.01127625,1741839169.197074
-0.01475,-0.38225,0.03825,0.006836,-0.00570675,-0.0017242499,1741839169.213859
0.0,-0.31425,0.02475,0.008026,-0.0062865,0.002777,1741839169.2263198
0.007,-0.272,0.01575,0.008651749,-0.0071409997,0.0077210004,1741839169.240818
0.01625,-0.22175,0.011,0.00794975,-0.00697325,0.008361749,1741839169.255338
0.014,-0.21825,0.00425,0.00671375,-0.0049590003,0.008514499,1741839169.270835
0.0085,-0.20875,-0.009,0.00585925,-0.00413525,0.009445249,1741839169.284414
0.01425,-0.19725,-0.00775,0.004486,-0.0038605002,0.01054375,1741839169.300998
0.03575,-0.18775,0.00575,0.00160225,-0.0048674997,0.010253999,1741839169.3138728
0.05,-0.19325,0.01475,0.00036625,-0.0054780003,0.00912475,1741839169.328086
0.0585,-0.20775,0.01775,-0.00177,-0.00408925,0.00720225,1741839169.3427148
0.05075,-0.2505,0.011,-0.00251775,-0.0026245,0.00741575,1741839169.357405
0.04375,-0.267,0.00825,-0.00289925,-0.000229,0.009002751,1741839169.371959
0.0325,-0.27125,0.004,-0.0019989999,0.0003205,0.0089569995,1741839169.3864708
0.0285,-0.266,0.00325,0.00013725001,-0.00048825,0.008545,1741839169.401091
0.034,-0.25775,0.01375,0.000473,-0.0008545,0.00862125,1741839169.415601
0.0345,-0.25875,0.0125,0.00061025,-0.002121,0.00918575,1741839169.431207
0.03725,-0.2565,0.008,0.00062550005,-0.0021972498,0.009933501,1741839169.4445891
0.04325,-0.251,0.0115,0.00112925,-0.00163275,0.0093995,1741839169.459112
0.045,-0.254,0.00875,0.001648,-0.00213625,0.008606,1741839169.4737039
0.04725,-0.2595,0.0105,0.0019225,-0.0025634998,0.008606,1741839169.4881978
0.056,-0.26675,0.01525,0.00169375,-0.001892,0.011031999,1741839169.502697
0.05725,-0.267,0.014,0.00169375,-0.0012817499,0.0125275,1741839169.5172632
0.0585,-0.265,0.0115,0.0021515,-0.00074775,0.014923001,1741839169.531899
0.06,-0.2565,0.00775,0.00251775,-0.00062550005,0.015594499,1741839169.5463538
0.0595,-0.25475,0.0065,0.00279225,-0.00068675,0.01693725,1741839169.5609841
0.06325,-0.25675,0.0035,0.0026245,-0.00090025004,0.01820375,1741839169.575625
0.0665,-0.25625,0.003,0.00216675,-0.00054925,0.02142325,1741839169.5907352
0.0755,-0.25125,0.00025,0.0018005001,-0.00057975,0.023285,1741839169.604696
0.0815,-0.24725,-0.0015,0.000473,-0.00033575002,0.0267945,1741839169.620517
0.0915,-0.242,-0.002,0.00024425,-0.00030525,0.027709998,1741839169.633939
0.09425,-0.24225,-0.00075,0.001007,-0.000824,0.028778,1741839169.648478
0.1045,-0.24375,0.004,0.0013275,-0.001114,0.02967825,1741839169.6632378
0.1085,-0.24275,0.00625,0.0014495,-0.0015105,0.032547,1741839169.677686
0.1145,-0.2415,0.00925,0.00125125,-0.001236,0.03456125,1741839169.692086
0.11575,-0.2405,0.006,0.0010375,-0.001007,0.03689575,1741839169.7065878
0.11725,-0.2365,-0.0,0.00125125,-0.00119025,0.041092,1741839169.721178
0.13125,-0.215,-0.00575,0.0017242499,-0.00198375,0.04234325,1741839169.735703
0.14375,-0.201,-0.00075,0.0025787498,-0.0033570002,0.042648252,1741839169.751016
0.162,-0.1855,0.0145,0.00270075,-0.0030365,0.04234325,1741839169.7649121
0.1635,-0.18975,0.014,0.00216675,-0.000885,0.04382325,1741839169.7810152
0.16875,-0.19525,0.00575,0.0014495,0.00016775,0.0453645,1741839169.793961
0.174,-0.19075,0.00275,0.00184625,0.0007325,0.047012247,1741839169.808376
0.179,-0.174,-0.006,0.00320425,0.0003205,0.047180247,1741839169.822874
0.181,-0.16325,-0.006,0.0059815003,-0.00039675,0.047973752,1741839169.837518
0.19775,-0.1375,0.0105,0.0064239996,-0.0008545,0.0486145,1741839169.852082
0.20225,-0.127,0.014,0.004074,0.00035100002,0.051498502,1741839169.866612
0.2055,-0.10825,0.00775,0.0020599999,0.002411,0.05305475,1741839169.88132
0.20475,-0.10425,0.00125,0.00112925,0.00393675,0.0538025,1741839169.8953831
0.20425,-0.10775,-0.00325,0.002655,0.00434875,0.054382253,1741839169.909989
0.20475,-0.1115,0.00325,0.00245675,0.0044250004,0.056335498,1741839169.924351
0.203,-0.10075,0.008,-0.0014037499,0.0059205,0.06463625,1741839169.93891
0.20775,-0.05325,0.00725,-0.00267025,0.00767525,0.06855775,1741839169.953505
0.2115,-0.0285,0.005,-0.002243,0.01194775,0.069595255,1741839169.967971
0.19925,0.00625,-0.00025,-0.00225825,0.012847999,0.067596495,1741839169.982486
0.2,0.019,-0.0085,-0.004486,0.01115425,0.065918,1741839169.997109
0.2015,0.0345,-0.029,-0.0054015,0.011398249,0.0664825,1741839170.013392
0.198,0.05325,-0.03225,-0.0020752498,0.01841725,0.063705504,1741839170.02609
0.17425,0.10925,-0.03925,0.0016175,0.021179251,0.059326246,1741839170.0411289
0.14775,0.161,-0.04475,0.0050355,0.02241525,0.05273425,1741839170.0548851
0.07275,0.39575,-0.08225,0.00175475,0.023498502,0.0310975,1741839170.0704992
0.01825,0.59675,-0.144,-0.00708,0.02262875,0.010498,1741839170.08376
-0.05025,0.77025,-0.2245,-0.02313225,0.010849,-0.06567375,1741839170.098473
-0.1715,0.82175,-0.2765,-0.028015248,0.0001525,-0.115234256,1741839170.113338
-0.20375,0.736,-0.2725,-0.037506,-0.0215455,-0.196823,1741839170.127958
-0.26875,0.59325,-0.19825,-0.042861998,-0.034256,-0.22843926,1741839170.142784
-0.3335,0.48825,-0.04725,-0.05603025,-0.065155,-0.28462225,1741839170.157703
-0.51125,-0.04025,0.40775,-0.056045502,-0.07238775,-0.3032685,1741839170.1724548
-0.5995,-0.532,0.581,-0.0430145,-0.03948975,-0.267273,1741839170.187267
-0.67875,-1.0,0.50225,-0.036804248,-0.0053709997,-0.20303349,1741839170.201938
-0.61125,-1.0,0.33025,-0.02247625,0.0244445,-0.06172175,1741839170.2166588
-0.37475,-0.72325,0.1205,-0.014206001,0.01425175,-0.01794425,1741839170.2319071
-0.2365,-0.46725,0.08775,0.00024425,-0.009887749,-0.0045012496,1741839170.246102
-0.019,-0.224,-0.02375,0.00590525,-0.01605225,-0.0190735,1741839170.260847
0.049,-0.22775,-0.067,0.00717175,-0.021698,-0.03288275,1741839170.2756422
0.10925,-0.28425,-0.0195,0.00511175,-0.020477248,-0.029266251,1741839170.291309
0.0915,-0.32375,0.021,0.0048217503,-0.010940501,-0.019516,1741839170.304851
0.01825,-0.3805,0.043,0.0060882503,-0.006256,-0.013641249,1741839170.320792
-0.00525,-0.37725,0.0435,0.0053709997,-0.00035100002,0.00177,1741839170.334189
-0.01575,-0.32475,0.05025,0.00453175,0.0014037499,0.00868225,1741839170.348695
-0.01275,-0.29275,0.0515,0.00440975,0.002533,0.013641249,1741839170.364438
-0.01125,-0.233,0.032,0.00358575,0.0049895,0.019806,1741839170.3778481
-0.01075,-0.2065,0.0185,0.00270075,0.00590525,0.020599252,1741839170.392402
-0.01075,-0.193,0.00825,0.0016632499,0.0041504996,0.0163575,1741839170.407053
-0.012,-0.204,0.00425,0.001114,0.0020905002,0.01412975,1741839170.421607
-0.00875,-0.21675,0.0095,-0.000885,-0.00157175,0.01368725,1741839170.436217
0.004,-0.2405,0.026,-0.00204475,-0.00242625,0.014862,1741839170.451401
0.01275,-0.248,0.0335,-0.0029145,-0.00239575,0.01753225,1741839170.465427
0.04175,-0.2575,0.039,-0.00296025,-0.00175475,0.018020751,1741839170.481468
0.047,-0.24925,0.0465,-0.0036315,-0.00054925,0.01763925,1741839170.494677
0.0495,-0.2635,0.0355,-0.00354,-0.0014037499,0.0174865,1741839170.509293
0.04875,-0.274,0.033,-0.0012665,0.000824,0.016998248,1741839170.523944
0.043,-0.279,0.03525,-0.0003205,0.00146475,0.0177765,1741839170.538455
0.04275,-0.27375,0.03475,0.00036625,0.00086975005,0.02038575,1741839170.552896
0.04825,-0.26725,0.03825,0.00090025004,0.00119025,0.0207215,1741839170.56736
0.0515,-0.26775,0.03775,0.00148,0.0012817499,0.020874001,1741839170.581889
0.05725,-0.26775,0.03325,0.0018615,0.0013580001,0.0233155,1741839170.596406
0.05925,-0.2625,0.02975,0.0017242499,0.00177,0.02537525,1741839170.6108449
0.061,-0.25325,0.0265,0.001831,0.0017852499,0.02807625,1741839170.6251898
0.07025,-0.23225,0.028,0.00190725,0.0014037499,0.0282745,1741839170.6410291
0.0775,-0.228,0.02925,0.001953,0.00061025,0.0272675,1741839170.654243
0.0895,-0.23175,0.035,0.0021515,0.0005645,0.02664175,1741839170.6688268
0.09525,-0.23275,0.03675,0.00228875,0.0013275,0.026702998,1741839170.683242
0.10075,-0.226,0.02875,0.0020599999,0.00181575,0.027282748,1741839170.69767
0.10375,-0.222,0.024,0.0012970001,0.00187675,0.02873225,1741839170.713423
0.10925,-0.2255,0.0205,0.000885,0.0017242499,0.0298005,1741839170.726493
0.1125,-0.228,0.01625,0.00039675,0.001831,0.031372,1741839170.740855
0.12075,-0.2265,0.0105,0.0004425,0.00137325,0.03364575,1741839170.755286
0.13575,-0.217,0.01375,0.001953,0.0013885,0.033264253,1741839170.770655
0.13525,-0.2105,0.01725,0.0041504996,0.001709,0.033783,1741839170.784394
0.133,-0.19975,0.015,0.0034637498,0.0014037499,0.036376998,1741839170.800641
0.1415,-0.1925,0.01925,0.000763,0.0015565,0.042678747,1741839170.8139148
0.15775,-0.18025,0.02275,0.000183,0.0016175,0.04438775,1741839170.827708
0.165,-0.178,0.02725,0.0009765,0.00334175,0.045608502,1741839170.842149
0.176,-0.18325,0.033,0.0017395001,0.0046234997,0.04641725,1741839170.856586
0.17725,-0.18375,0.02925,0.00198375,0.006546,0.049377497,1741839170.871146
0.1815,-0.1535,0.01725,0.0016632499,0.00668325,0.050277747,1741839170.88537
0.1875,-0.13275,0.01475,0.0020905002,0.00621025,0.04971325,1741839170.9008799
0.194,-0.11625,0.01475,0.0047455,0.004547,0.04544075,1741839170.914384
0.208,-0.09175,0.0185,0.00535575,0.0039825,0.04353325,1741839170.9287932
0.21625,-0.08575,0.022,0.0043944996,0.0039215,0.041961752,1741839170.943233
0.22225,-0.07725,0.022,0.0034790002,0.00453175,0.0418395,1741839170.9576561
0.222,-0.07025,0.0185,0.00308225,0.0056,0.041061502,1741839170.972266
0.2275,-0.06225,0.0095,0.00399775,0.0054780003,0.0401765,1741839170.986697
0.231,-0.061,0.00625,0.0057220003,0.0048979996,0.037902746,1741839171.00118
0.23,-0.051,-0.0035,0.00596625,0.004837,0.03710925,1741839171.015688
0.22925,-0.041,-0.00175,0.0054475004,0.00488275,0.037201,1741839171.030729
0.22925,-0.0225,0.00625,0.00469975,0.004486,0.0385285,1741839171.044705
0.23175,-0.01425,0.0085,0.00384525,0.0048065,0.04040525,1741839171.059294
0.242,0.002,0.005,0.0038757501,0.00694275,0.04116825,1741839171.0737169
0.24275,0.0055,-0.00325,0.0052642496,0.0071409997,0.039032,1741839171.0882041
0.239,0.0055,-0.00825,0.007553,0.00671375,0.03459175,1741839171.102616
0.2295,0.0055,-0.00775,0.0072937496,0.006256,0.034835752,1741839171.117034
0.23,0.00425,-0.00725,0.0049742498,0.00590525,0.04078675,1741839171.1314418
0.23625,0.0075,-0.006,0.0042267498,0.00665275,0.04444875,1741839171.1458712
0.2355,0.01475,-0.006,0.0074615004,0.00811775,0.047530998,1741839171.160251
0.22175,0.02625,-0.01125,0.010162249,0.0074004997,0.046768248,1741839171.17478
0.21925,0.039,-0.01125,0.0135955,0.00390625,0.0447845,1741839171.1905658
0.2095,0.08425,-0.019,0.0137635,0.00320425,0.0450135,1741839171.203722
0.20425,0.1035,-0.0185,0.01295475,0.00384525,0.0452575,1741839171.2181618
0.20275,0.118,-0.01575,0.0129700005,0.0044250004,0.04037475,1741839171.23264
0.18975,0.142,-0.0145,0.015442001,0.003418,0.03509525,1741839171.2470772
0.175,0.16925,-0.0075,0.020629998,0.0021819999,0.022049,1741839171.263019
0.1255,0.366,-0.0105,0.020111,0.0045012496,0.013153,1741839171.2760088
0.092,0.5765,-0.04675,0.0057525,0.016739,-0.0293885,1741839171.2912698
-0.0635,0.904,-0.13825,-0.00367725,0.02029425,-0.069809,1741839171.305175
-0.124,0.91525,-0.121,-0.023834249,0.01440425,-0.1625825,1741839171.320724
-0.193,0.7605,-0.0515,-0.0355835,0.012054499,-0.203308,1741839171.3346891
-0.261,0.70075,-0.02825,-0.05387875,0.01036075,-0.27990726,1741839171.350888
-0.5445,0.591,0.09275,-0.06289675,0.00317375,-0.31298825,1741839171.364353
-0.72,0.38775,0.26525,-0.07905575,-0.016983,-0.329422,1741839171.3811278
-0.9275,-0.558,0.55825,-0.08291625,-0.010940501,-0.30384824,1741839171.393942
-0.985,-0.9855,0.4615,-0.05989075,0.036163248,-0.1879425,1741839171.408639
-0.76775,-1.0,0.2595,-0.043457,0.03622425,-0.1148835,1741839171.423419
-0.559,-0.93325,0.30275,-0.021759002,-0.006012,-0.002365,1741839171.438275
-0.1645,-0.545,0.2895,-0.0159455,-0.011306751,0.0220795,1741839171.452985
-0.0435,-0.435,0.13525,-0.001419,0.004776,0.014938249,1741839171.467583
0.083,-0.2785,-0.10125,0.00570675,0.00688175,0.0054475004,1741839171.4820359
0.10475,-0.21725,-0.11825,0.00912475,0.0021819999,0.00045775,1741839171.4967198
0.059,-0.23275,-0.07025,0.0076905,-0.007843,-0.00463875,1741839171.51373
0.018,-0.2835,-0.0415,0.0078735,-0.0094604995,-0.00694275,1741839171.526125
-0.00925,-0.32325,0.00175,0.00880425,-0.007187,-0.0030975002,1741839171.541499
-0.02425,-0.35075,0.073,0.008148249,-0.0053405,0.0033875,1741839171.5554938
-0.023,-0.342,0.085,0.0077667497,-0.0019989999,0.01716625,1741839171.5709078
-0.01525,-0.28275,0.06875,0.00811775,-0.00137325,0.02230825,1741839171.584654
-0.00325,-0.24075,0.05725,0.0080567505,-0.00099175,0.02452075,1741839171.601001
0.00725,-0.2065,0.027,0.00764475,-0.00093075,0.022186251,1741839171.613982
0.00525,-0.2125,0.0155,0.0064239996,-0.0021972498,0.019927999,1741839171.628442
0.014,-0.2265,0.02225,0.005539,-0.0031585,0.021225,1741839171.6429389
0.0255,-0.2235,0.02925,0.003891,-0.00270075,0.0237275,1741839171.657577
0.03425,-0.22425,0.024,0.0028535,-0.0016785001,0.024582,1741839171.672056
0.03375,-0.23475,0.02,0.0,-0.0011445,0.0283355,1741839171.686573
0.04175,-0.25825,0.02,-0.0009765,-0.001587,0.030746501,1741839171.701081
0.05075,-0.26525,0.02475,-0.001068,-0.002243,0.032608002,1741839171.7157178
0.0685,-0.2765,0.043,7.625e-05,-0.0028687501,0.0355835,1741839171.731174
0.07425,-0.2775,0.053,0.000473,-0.0026245,0.03756725,1741839171.744891
0.07675,-0.27575,0.05075,0.000885,-0.0037995,0.0421295,1741839171.759328
0.08075,-0.27775,0.04425,0.001419,-0.0028074998,0.04441825,1741839171.773828
0.08275,-0.27975,0.0435,0.0025787498,-0.000122000005,0.04930125,1741839171.7884312
0.08875,-0.263,0.03275,0.002777,-0.00045775,0.051925752,1741839171.80295
0.09775,-0.2415,0.02675,0.0031585,-0.0021819999,0.055404752,1741839171.817478
0.1305,-0.19525,0.02825,0.00396725,-0.0022735,0.055069,1741839171.831973
0.14925,-0.17425,0.0335,0.0062407497,-0.001236,0.050583,1741839171.8464682
0.16325,-0.1515,0.0275,0.00691225,-0.00045775,0.0477295,1741839171.860956
0.164,-0.14925,0.01925,0.0056,0.001236,0.04438775,1741839171.875305
0.17125,-0.145,0.017,0.0050355,0.0016632499,0.043213002,1741839171.891243
0.17725,-0.14525,0.02075,0.0053252503,0.00163275,0.041396998,1741839171.904361
0.182,-0.14775,0.0215,0.0071105,0.00115975,0.03742975,1741839171.91874
0.19,-0.14025,0.01575,0.00767525,0.001419,0.03666675,1741839171.933311
0.192,-0.13,0.01325,0.00723275,0.00340275,0.037506,1741839171.9478478
0.19725,-0.1155,0.01025,0.00590525,0.00411975,0.0382385,1741839171.962913
0.20025,-0.112,0.00825,0.002884,0.00402825,0.03898625,1741839171.976844
0.209,-0.109,0.0035,0.0025025,0.0041504996,0.03816225,1741839171.9912431
0.20725,-0.1105,-0.0005,0.005005,0.0032655,0.034973253,1741839172.005853
0.2055,-0.1085,0.002,0.0066374997,0.0022277501,0.034362752,1741839172.021017
0.207,-0.10225,0.006,0.00665275,0.00125125,0.0368195,1741839172.034673
0.21675,-0.0825,0.0065,0.00579825,0.001419,0.0384675,1741839172.050466
0.2215,-0.073,0.0035,0.0054475004,0.00154125,0.03904725,1741839172.0640068
0.2285,-0.05575,0.00525,0.006302,0.0012665,0.0382385,1741839172.078485
0.23425,-0.04725,0.011,0.0073547503,0.0010375,0.03721625,1741839172.092892
0.23675,-0.04225,0.01425,0.00817875,0.00181575,0.036087003,1741839172.107466
0.235,-0.037,0.01025,0.00773625,0.00267025,0.03686525,1741839172.121834
0.233,-0.02875,0.00625,0.0072175004,0.00355525,0.038757253,1741839172.1362638
0.229,-0.0075,0.0025,0.0072937496,0.0034942501,0.03898625,1741839172.150799
0.22975,0.0015,0.004,0.0075072497,0.0031585,0.03860475,1741839172.16523
0.2305,0.00925,0.001,0.0070495,0.00314325,0.038879503,1741839172.1810062
0.2305,0.01425,0.00175,0.00279225,0.0057677496,0.0417785,1741839172.193996
0.235,0.02975,0.00525,0.00064075,0.0073395,0.043213002,1741839172.20824
0.234,0.034,0.00125,0.0002595,0.00798025,0.043808,1741839172.222558
0.2305,0.041,-0.00475,0.0048674997,0.007904,0.041564997,1741839172.2369778
0.2155,0.06025,-0.0135,0.0075225,0.007599,0.039810248,1741839172.251339
0.20675,0.07,-0.016,0.008606,0.005844,0.039276,1741839172.265766
0.20125,0.095,-0.01475,0.0077972496,0.00514225,0.039993253,1741839172.2811048
0.2,0.11075,-0.01225,0.0061645,0.0058287503,0.0385285,1741839172.29459
0.19175,0.159,-0.0105,0.0058135,0.00708,0.034851003,1741839172.309063
0.17475,0.20775,-0.0165,0.0042115003,0.012542751,0.01994325,1741839172.323503
0.137,0.4255,-0.05325,-0.0009155,0.01794425,0.0067445002,1741839172.337941
0.11175,0.58075,-0.0875,-0.02006525,0.0263215,-0.04641725,1741839172.352567
-0.007,0.79425,-0.12125,-0.02832025,0.0224305,-0.08528125,1741839172.367281
-0.07225,0.7825,-0.1125,-0.033432,0.01431275,-0.12522875,1741839172.382026
-0.2025,0.68125,-0.13925,-0.03857425,0.0029907501,-0.19915774,1741839172.3967202
-0.28025,0.6445,-0.1445,-0.04489125,-0.00160225,-0.23274225,1741839172.413645
-0.526,0.52475,0.01925,-0.06640625,-0.01985175,-0.28752124,1741839172.4264169
-0.63575,0.24325,0.2615,-0.07557675,-0.03019725,-0.2984925,1741839172.4412212
-0.6845,-0.25925,0.49625,-0.0760345,-0.021560749,-0.26148975,1741839172.45604
-0.7585,-1.0,0.54,-0.06495675,0.00340275,-0.21260075,1741839172.4708369
-0.732,-1.0,0.4305,-0.03974925,0.023407,-0.081604,1741839172.4853508
-0.4705,-0.90525,0.3225,-0.027359,0.009155249,-0.025421249,1741839172.5009348
-0.29725,-0.7035,0.26725,-0.0075377496,-0.0062865,0.0244445,1741839172.514747
-0.03925,-0.34975,0.013,0.00137325,-0.00520325,0.01930225,1741839172.5315578
0.04175,-0.24575,-0.09025,0.01098625,-0.010788,0.0003205,1741839172.5440772
0.12725,-0.15825,-0.10825,0.010253999,-0.0160675,-0.0051269997,1741839172.558696
0.121,-0.18025,-0.081,0.0079955,-0.0206605,-0.015274,1741839172.573447
0.06825,-0.2885,0.013,0.008209251,-0.01905825,-0.01817325,1741839172.588008
0.04275,-0.34025,0.05325,0.009948749,-0.014267,-0.012405501,1741839172.602646
0.01175,-0.372,0.08875,0.010849,-0.0110625,-0.00494375,1741839172.6172218
0.005,-0.354,0.08675,0.0103455,-0.00399775,0.01324475,1741839172.6317718
0.00525,-0.2675,0.05575,0.0094604995,-0.0013580001,0.02067575,1741839172.646241
0.0085,-0.213,0.03625,0.0075377496,0.00033575002,0.02439875,1741839172.660792
0.012,-0.15825,0.00225,0.0065002497,-0.0005035,0.021636998,1741839172.675431
0.01875,-0.15675,-0.00175,0.0052185003,-0.00198375,0.017730748,1741839172.691405
0.028,-0.16775,0.00375,0.002777,-0.004547,0.009674,1741839172.7044601
0.02875,-0.218,0.0095,0.0017852499,-0.00514225,0.0075835,1741839172.7189639
0.0335,-0.239,0.0205,-0.00013725001,-0.00520325,0.009613,1741839172.733723
0.04875,-0.2695,0.044,-0.0007325,-0.0039825,0.011886501,1741839172.7483032
0.05175,-0.283,0.04125,-0.00109875,0.00059500005,0.01719675,1741839172.763832
0.046,-0.2875,0.03225,-0.0009155,0.00190725,0.020019501,1741839172.777351
0.045,-0.282,0.03275,-0.000412,-0.00016775,0.022186251,1741839172.791986
0.03775,-0.28,0.02025,0.000534,-0.0020295,0.022094749,1741839172.806557
0.04125,-0.28125,0.02425,0.00242625,-0.0020905002,0.0239715,1741839172.8211122
0.056,-0.27825,0.03425,0.00292975,-0.0020295,0.02563475,1741839172.835542
0.0575,-0.275,0.0305,0.003128,-0.0023497501,0.02967825,1741839172.8508449
0.06425,-0.26575,0.01925,0.0028229998,-0.00213625,0.032394502,1741839172.864595
0.072,-0.2565,0.014,0.00213625,-0.00184625,0.03538525,1741839172.8810618
0.09025,-0.23075,0.018,0.0014037499,-0.00242625,0.039093,1741839172.893552
0.096,-0.22325,0.025,0.0016632499,-0.00331125,0.03910825,1741839172.9080021
0.1,-0.21925,0.032,0.0018005001,-0.0045012496,0.037887502,1741839172.922567
0.11325,-0.21025,0.034,0.00177,-0.00416575,0.037277248,1741839172.937054
0.118,-0.203,0.03125,0.0016785001,-0.00160225,0.035949748,1741839172.951553
0.14225,-0.19975,0.0265,0.0015105,0.00016775,0.03518675,1741839172.965989
0.145,-0.20125,0.029,0.00109875,0.00538625,0.0341645,1741839172.9810162
0.143,-0.19675,0.02425,0.00090025004,0.0055695,0.034408502,1741839172.9948359
0.14475,-0.1905,0.017,0.0019989999,0.00204475,0.03500375,1741839173.009254
0.16025,-0.17775,0.0155,0.00267025,0.001068,0.034911998,1741839173.023803
0.16675,-0.1725,0.01775,0.003128,0.0012055,0.0346985,1741839173.038254
0.176,-0.17225,0.02,0.00343325,0.00292975,0.03521725,1741839173.052635
0.1785,-0.1735,0.01925,0.0030669998,0.00367725,0.03677375,1741839173.067043
0.18,-0.16925,0.01725,0.0020295,0.0049742498,0.041092,1741839173.081548
0.19,-0.14975,0.0135,0.002243,0.00535575,0.042755,1741839173.095925
0.19725,-0.14,0.01325,0.0036315,0.0050812503,0.045456,1741839173.110364
0.2025,-0.12225,0.00825,0.0034942501,0.004776,0.0470885,1741839173.124884
0.2035,-0.113,0.00625,0.0021972498,0.00408925,0.04966725,1741839173.1393511
0.20975,-0.10075,0.005,0.0021515,0.0037385002,0.05001825,1741839173.153933
0.21225,-0.0935,0.00525,0.0037079998,0.0030669998,0.04904175,1741839173.168313
0.21125,-0.07125,0.0025,0.0043639997,0.0032195,0.0484315,1741839173.18283
0.2135,-0.0565,0.00275,0.004486,0.00381475,0.048095748,1741839173.197239
0.21875,-0.0425,0.005,0.0062865,0.004242,0.04603575,1741839173.214012
0.225,-0.03375,-0.00025,0.00823975,0.0034484998,0.04408275,1741839173.226112
0.22525,-0.0305,-0.006,0.010376001,0.0025940002,0.039917,1741839173.2406552
0.224,-0.01625,-0.0075,0.0105742505,0.002243,0.037917998,1741839173.255151
0.222,-0.00825,-0.0075,0.0100555,0.00030525,0.035461497,1741839173.270897
0.21975,0.0145,-0.008,0.01013175,-0.000763,0.034546003,1741839173.284148
0.22175,0.02425,-0.00675,0.010528499,-0.00231925,0.03279125,1741839173.298653
0.227,0.03675,-0.001,0.010009751,-0.0025025,0.032409754,1741839173.313967
0.22975,0.037,0.003,0.008407501,-0.0014495,0.03237925,1741839173.327758
0.2385,0.0285,0.013,0.00764475,-0.00070200005,0.032256998,1741839173.342058
0.24125,0.02475,0.01375,0.006836,0.00013725001,0.032333247,1741839173.356441
0.237,0.034,0.0085,0.00646975,0.0028229998,0.033554003,1741839173.371048
0.23,0.044,0.004,0.0074004997,0.004242,0.0338135,1741839173.385141
0.22425,0.05225,-0.00075,0.009842,0.0046845004,0.0334015,1741839173.4008682
0.22675,0.089,0.00475,0.01095575,0.0043639997,0.032256998,1741839173.414112
0.23375,0.1325,0.013,0.01187125,0.009552,0.022186251,1741839173.428237
0.2145,0.30675,-0.0015,0.01033025,0.01570125,0.010452249,1741839173.442708
0.1765,0.4455,-0.0475,-0.0039825,0.0260315,-0.030761749,1741839173.457223
0.063,0.7165,-0.162,-0.01722725,0.025238002,-0.0587615,1741839173.4717638
0.01725,0.78225,-0.15625,-0.04110725,0.015976,-0.12457275,1741839173.4864562
-0.1375,0.73975,-0.13425,-0.044860747,0.01142875,-0.16098025,1741839173.501108
-0.22525,0.67525,-0.154,-0.0453185,0.0052185003,-0.1966095,1741839173.5158541
-0.406,0.5295,-0.09375,-0.054931752,-0.016967751,-0.2526855,1741839173.5314171
-0.487,0.422,0.05175,-0.06390375,-0.028015248,-0.2729035,1741839173.545516
-0.711,-0.13575,0.50975,-0.07144175,-0.035431,-0.29783624,1741839173.560311
-0.821,-0.64075,0.66025,-0.06507875,-0.0255585,-0.284729,1741839173.575138
-0.878,-1.0,0.639,-0.042572,0.02211,-0.16262825,1741839173.590986
-0.7215,-1.0,0.40375,-0.034851003,0.03459175,-0.074585,1741839173.604515
-0.55875,-0.91375,0.327,-0.014618,0.01560975,0.03955075,1741839173.6208482
-0.214,-0.4205,0.1175,-0.00372325,0.006012,0.04666125,1741839173.633867
-0.074,-0.265,-0.009,0.00985725,-0.0041504996,0.015396,1741839173.64866
0.081,-0.18175,-0.131,0.01077275,-0.008255,0.0042267498,1741839173.6635048
0.1055,-0.1845,-0.1205,0.0060272496,-0.014160249,-0.0012207499,1741839173.6779141
0.088,-0.2375,-0.039,0.0041044997,-0.015564,-0.002655,1741839173.692619
0.068,-0.28025,0.01425,0.0035095,-0.01402275,-0.0034484998,1741839173.7072399
0.0415,-0.334,0.11025,0.0041504996,-0.01156625,-0.000412,1741839173.721733
0.0335,-0.32975,0.13175,0.006363,-0.00308225,0.0078125,1741839173.73634
0.00275,-0.29425,0.09975,0.0071409997,0.0009765,0.012176501,1741839173.751277
-0.0075,-0.266,0.0745,0.007553,0.0036162501,0.0194245,1741839173.765434
-0.00725,-0.207,0.04125,0.00717175,0.00279225,0.02026375,1741839173.78142
-0.003,-0.19175,0.0315,0.00590525,-3.0500001e-05,0.0172425,1741839173.794546
0.00875,-0.18975,0.02325,0.005066,-0.00102225,0.015396,1741839173.8090081
0.015,-0.201,0.02425,0.0039825,-0.00154125,0.014434749,1741839173.823586
0.02275,-0.21425,0.026,0.0013885,-0.0016632499,0.0159455,1741839173.838172
0.047,-0.2315,0.037,0.00048825,-0.001526,0.016998248,1741839173.85263
0.057,-0.2405,0.04425,0.00029,-0.00083925005,0.01670825,1741839173.867276
0.05375,-0.25975,0.039,0.00048825,-0.0011445,0.01652525,1741839173.8817952
0.052,-0.268,0.03625,0.00102225,-4.575e-05,0.01799,1741839173.896364
0.0535,-0.27375,0.0465,0.0013427499,0.000824,0.019042999,1741839173.910828
0.0565,-0.27225,0.0515,0.0021515,0.0009765,0.020752002,1741839173.925218
0.05875,-0.269,0.0495,0.0024872501,0.00169375,0.021347,1741839173.940385
0.05825,-0.268,0.046,0.0029755002,0.0030669998,0.022995,1741839173.95413
0.05925,-0.2635,0.03925,0.0033264998,0.0029145,0.02412425,1741839173.9686642
0.06225,-0.25675,0.03675,0.00381475,0.0024414998,0.02507025,1741839173.9830499
0.066,-0.23875,0.029,0.0049895,0.0013275,0.0258025,1741839173.997556
0.06775,-0.23025,0.02525,0.0054015,0.00071725,0.025695749,1741839174.013029
0.07,-0.223,0.022,0.0056609996,-0.0016785001,0.025177,1741839174.026732
0.07725,-0.215,0.017,0.0055695,-0.00328075,0.02500925,1741839174.0412428
0.081,-0.2135,0.017,0.0052337497,-0.006256,0.02513125,1741839174.055754
0.08675,-0.21125,0.02425,0.0050812503,-0.0071409997,0.02545175,1741839174.070689
0.09225,-0.213,0.032,0.0045625,-0.0077515002,0.026519751,1741839174.084678
0.10375,-0.21875,0.03925,0.00437925,-0.0073242504,0.027282748,1741839174.100739
0.112,-0.2205,0.04275,0.0044250004,-0.00531,0.029129,1741839174.114082
0.12175,-0.22525,0.03825,0.0043335,-0.004242,0.0306855,1741839174.128331
0.1315,-0.22425,0.03525,0.0042725,-0.00263975,0.03404225,1741839174.143008
0.15775,-0.21225,0.03275,0.0054780003,-0.00149525,0.034484748,1741839174.157643
0.155,-0.204,0.04,0.00708,0.000824,0.03456125,1741839174.172022
0.1575,-0.18125,0.0345,0.0060577504,0.0009155,0.037231497,1741839174.186539
0.1655,-0.173,0.03,0.0045012496,-0.000473,0.039245497,1741839174.201067
0.174,-0.17075,0.02825,0.00314325,0.0005035,0.0417175,1741839174.215554
0.1835,-0.168,0.025,0.0032195,0.0017852499,0.04214475,1741839174.231161
0.185,-0.16525,0.022,0.00393675,0.00328075,0.04293825,1741839174.2445362
0.193,-0.1505,0.01875,0.0041504996,0.00331125,0.04367075,1741839174.2590668
0.20125,-0.1405,0.02025,0.0043182503,0.0034790002,0.04435725,1741839174.273537
0.212,-0.119,0.0245,0.00444025,0.003891,0.044006247,1741839174.288013
0.21375,-0.11,0.02425,0.00393675,0.004486,0.043335,1741839174.302478
0.21125,-0.0995,0.01625,0.0032347501,0.0044555003,0.0436095,1741839174.3169012
0.21025,-0.09425,0.01,0.00169375,0.00411975,0.04502875,1741839174.33129
0.21225,-0.08,0.0065,0.00131225,0.003891,0.045395,1741839174.345729
0.21525,-0.069,0.00825,0.00149525,0.00328075,0.045287997,1741839174.3601038
0.218,-0.05825,0.0085,0.0034637498,0.00125125,0.043716498,1741839174.374527
0.22725,-0.0435,0.0085,0.0042115003,0.00102225,0.042755,1741839174.390422
0.23125,-0.03675,0.008,0.0034637498,0.0012207499,0.0414735,1741839174.403309
0.234,-0.02575,0.0105,0.00251775,0.001709,0.04125975,1741839174.417839
0.23425,-0.018,0.01125,0.00160225,0.0029907501,0.0405885,1741839174.432238
0.23225,0.00075,0.01,0.00181575,0.00334175,0.03987125,1741839174.4466088
0.2315,0.0095,0.009,0.00216675,0.0045012496,0.038681,1741839174.460942
0.23825,0.02875,0.0065,0.00216675,0.00514225,0.037841752,1741839174.475224
0.23775,0.03625,0.005,0.0021057501,0.005783,0.03657525,1741839174.491067
0.235,0.04575,0.004,0.00090025004,0.0061645,0.0335235,1741839174.5040488
0.227,0.0685,-0.006,-0.00057975,0.006363,0.03331,1741839174.5188851
0.22425,0.07375,-0.00825,-0.0027160002,0.0090485,0.03530875,1741839174.533337
0.2225,0.0845,-0.021,-0.00198375,0.009796251,0.035202,1741839174.5478241
0.21925,0.1005,-0.027,0.00245675,0.0101775,0.027679501,1741839174.563675
0.1995,0.185,-0.03425,0.004074,0.01042175,0.020584,1741839174.5766258
0.1895,0.269,-0.036,-0.00035100002,0.013153,-0.00283825,1741839174.591187
0.16375,0.49375,-0.0785,-0.0068969997,0.01469425,-0.0235595,1741839174.605742
0.1255,0.56575,-0.10275,-0.022338752,0.0112,-0.084793,1741839174.620518
0.0405,0.575,-0.08175,-0.031066999,0.0058899997,-0.11868275,1741839174.63493
-0.0275,0.52875,-0.07925,-0.0390015,0.002472,-0.149582,1741839174.650815
-0.21275,0.40325,-0.14,-0.05119325,-0.000122000005,-0.190857,1741839174.664373
-0.2955,0.346,-0.146,-0.056335498,-0.00671375,-0.20196526,1741839174.680987
-0.421,0.09725,0.00575,-0.0543365,-0.0328675,-0.22000125,1741839174.693781
-0.44425,-0.13475,0.169,-0.049347,-0.044235248,-0.2248535,1741839174.708695
-0.4375,-0.42375,0.34475,-0.042282,-0.041824248,-0.204712,1741839174.723418
-0.38625,-0.977,0.48275,-0.0375365,-0.02746575,-0.1715545,1741839174.738164
-0.35925,-1.0,0.41875,-0.0326385,0.006363,-0.07020575,1741839174.752797
-0.25975,-0.816,0.28675,-0.028137252,0.012329,-0.02845775,1741839174.767596
-0.2005,-0.62225,0.2175,-0.00991825,0.00596625,-0.00039675,1741839174.782305
-0.07625,-0.36975,0.051,-0.0025634998,0.00057975,-0.0030365,1741839174.7970119
-0.027,-0.31225,-0.01625,0.0039825,-0.009658749,-0.008712751,1741839174.813937
0.0305,-0.27225,-0.04,0.0052337497,-0.013443,-0.00845325,1741839174.8268318
0.04075,-0.282,-0.01825,0.00579825,-0.0160065,-0.0033570002,1741839174.841761
0.047,-0.309,0.0455,0.0060882503,-0.015274,-0.000473,1741839174.8564239
0.049,-0.314,0.072,0.008026,-0.0125275,0.0045625,1741839174.87102
0.053,-0.30125,0.09675,0.00874325,-0.009887749,0.00747675,1741839174.885768
0.0505,-0.28625,0.09275,0.00891125,-0.0032655,0.014648501,1741839174.901035
0.03825,-0.236,0.06725,0.008514499,-0.00083925005,0.01744075,1741839174.9149492
0.03125,-0.21825,0.054,0.008285499,0.0007325,0.01835625,1741839174.931377
0.02325,-0.20875,0.0415,0.00798025,0.00035100002,0.0177765,1741839174.943839
0.02325,-0.217,0.039,0.006668,-0.0004425,0.0177155,1741839174.958362
0.03475,-0.23325,0.043,0.006012,-0.00064075,0.01820375,1741839174.972896
0.0415,-0.234,0.04575,0.0055695,-0.00068675,0.01838675,1741839174.9872892
0.05225,-0.234,0.04825,0.005005,-0.00027475,0.01782225,1741839175.0018098
0.05525,-0.24025,0.047,0.004593,0.00030525,0.0177155,1741839175.0162282
0.056,-0.2495,0.0455,0.0038605002,0.00239575,0.019394,1741839175.0315819
0.05425,-0.2615,0.04,0.0037079998,0.0036010002,0.0208435,1741839175.045471
0.0515,-0.26225,0.0355,0.00367725,0.0050355,0.0234375,1741839175.0598872
0.0535,-0.25225,0.0325,0.00399775,0.00517275,0.02401725,1741839175.0742002
0.058,-0.24525,0.0325,0.005005,0.0045625,0.023224002,1741839175.088646
0.07725,-0.236,0.0375,0.0055085,0.004013,0.021927001,1741839175.103035
0.08975,-0.23225,0.04025,0.0065155,0.00354,0.018692,1741839175.117532
0.103,-0.229,0.039,0.00671375,0.00381475,0.0178985,1741839175.1322381
0.1045,-0.23075,0.037,0.0062712496,0.0053709997,0.01879875,1741839175.1468081
0.10075,-0.232,0.0335,0.0057220003,0.0065612504,0.01997375,1741839175.1613498
0.0995,-0.23075,0.03125,0.0052795,0.0078125,0.021103,1741839175.1757991
0.09975,-0.2285,0.0295,0.0054932497,0.009155249,0.021759002,1741839175.190685
0.1015,-0.22375,0.02075,0.0060425,0.009002751,0.021331752,1741839175.204809
0.10175,-0.224,0.01625,0.0068512503,0.0074920002,0.02105725,1741839175.220743
0.1075,-0.23125,0.014,0.006836,0.00662225,0.022033751,1741839175.2337012
0.112,-0.23325,0.0135,0.0063934997,0.0056,0.025695749,1741839175.248265
0.121,-0.22575,0.01175,0.0062407497,0.0054475004,0.027481,1741839175.263205
0.12675,-0.2185,0.011,0.0064850003,0.0052795,0.029601999,1741839175.2772422
0.134,-0.2065,0.00525,0.0065155,0.0052795,0.03019725,1741839175.291615
0.1355,-0.2065,0.00225,0.0059815003,0.00520325,0.032074,1741839175.305995
0.14025,-0.21425,0.00525,0.005844,0.0051269997,0.033798248,1741839175.320828
0.145,-0.22125,0.01025,0.00614925,0.0051880004,0.03601075,1741839175.335028
0.15025,-0.226,0.01075,0.00773625,0.0058135,0.04141225,1741839175.3507369
0.16425,-0.21,0.00525,0.008377,0.0061035,0.044113252,1741839175.364149
0.1735,-0.19175,0.00525,0.008285499,0.0068055,0.0487365,1741839175.378536
0.1905,-0.14925,0.0005,0.0075682504,0.0076142503,0.0502015,1741839175.3932228
0.19825,-0.1275,-0.002,0.007309,0.009369001,0.04910275,1741839175.407715
0.2065,-0.101,-0.008,0.00842275,0.010009751,0.04629525,1741839175.4221241
0.2015,-0.0965,-0.0135,0.0101775,0.010757499,0.04211425,1741839175.436637
0.19675,-0.09725,-0.024,0.010727,0.01071175,0.04234325,1741839175.451186
0.1965,-0.1,-0.029,0.0125275,0.009781,0.044662498,1741839175.465649
0.21275,-0.104,-0.03925,0.013931249,0.009094249,0.045456,1741839175.480983
0.22075,-0.092,-0.03875,0.015075751,0.008545,0.04524225,1741839175.494606
0.22675,-0.062,-0.029,0.01548775,0.008316,0.042037997,1741839175.509096
0.2255,-0.053,-0.02825,0.015274,0.00845325,0.040512,1741839175.523594
0.22025,-0.046,-0.03325,0.01452625,0.008712751,0.039779752,1741839175.538193
0.21275,-0.03125,-0.0485,0.01380925,0.008361749,0.0405425,1741839175.5529191
0.21875,-0.01475,-0.05075,0.0139770005,0.00744625,0.040069498,1741839175.567551
0.23275,0.03975,-0.04725,0.01531975,0.0077210004,0.03733825,1741839175.582141
0.234,0.074,-0.049,0.01835625,0.0105742505,0.02633675,1741839175.5966778
0.2315,0.17875,-0.0565,0.01893625,0.01278675,0.0175935,1741839175.611043
0.229,0.2675,-0.0695,0.012802,0.016983,-0.00889575,1741839175.625671
0.2045,0.479,-0.0765,0.0049590003,0.01905825,-0.028747499,1741839175.641184
0.18,0.53825,-0.08625,-0.02029425,0.024582,-0.07406625,1741839175.65512
0.0785,0.5785,-0.13925,-0.037063498,0.02708425,-0.094818,1741839175.670613
0.017,0.5635,-0.15425,-0.06716925,0.024047751,-0.1352845,1741839175.684521
-0.1355,0.4675,-0.16925,-0.076416,0.01741025,-0.15635675,1741839175.700751
-0.2445,0.37575,-0.18125,-0.0836335,-0.00672925,-0.18470775,1741839175.714124
-0.426,0.05675,-0.0815,-0.08450325,-0.02262875,-0.1886445,1741839175.7308958
-0.4405,-0.156,0.11075,-0.08509825,-0.03840625,-0.1869965,1741839175.743593
-0.37775,-0.61375,0.52125,-0.0794525,-0.05087275,-0.17247,1741839175.758399
-0.3755,-0.86525,0.56925,-0.0700225,-0.04025275,-0.15448,1741839175.7732038
-0.34025,-0.991,0.4225,-0.049118,0.0015565,-0.0751495,1741839175.787989
-0.31,-0.84225,0.33025,-0.038849,0.0129395,-0.032333247,1741839175.802884
-0.19325,-0.485,0.1555,-0.0207215,0.00671375,0.010879501,1741839175.817448
-0.12375,-0.38525,0.07,-0.012771499,-0.00160225,0.01095575,1741839175.832094
-0.0755,-0.327,-0.00475,-0.0016175,-0.01498425,0.0007935,1741839175.8470368
-0.002,-0.24575,-0.06925,0.0003205,-0.02023325,0.00024425,1741839175.864236
0.044,-0.21825,-0.048,0.0005645,-0.0233155,0.0014495,1741839175.8763971
0.087,-0.2365,0.02425,0.0003205,-0.020141501,-0.00029,1741839175.891294
0.07575,-0.2695,0.05125,0.001007,-0.01222225,-0.0020599999,1741839175.905729
0.05875,-0.30425,0.098,0.0019989999,-0.007782,0.00019825,1741839175.921095
0.0495,-0.302,0.1095,0.003662,0.0010375,0.00744625,1741839175.934725
0.0125,-0.278,0.08375,0.00411975,0.0037079998,0.0114440005,1741839175.9508731
-0.00275,-0.25675,0.065,0.004593,0.004013,0.015808,1741839175.963976
-0.0155,-0.222,0.037,0.004776,0.00242625,0.0153502505,1741839175.978123
-0.016,-0.22075,0.0285,0.004776,-0.000763,0.01339725,1741839175.99294
-0.0,-0.2345,0.03125,0.00437925,-0.0020599999,0.0136565,1741839176.0074902
0.0135,-0.24,0.04,0.00352475,-0.00364675,0.01525875,1741839176.022053
0.034,-0.25825,0.05175,0.0033570002,-0.003296,0.016113251,1741839176.0366578
0.03675,-0.26675,0.052,0.0032347501,-0.0022277501,0.017334,1741839176.0511801
0.03875,-0.27025,0.053,0.00292975,0.00036625,0.02070625,1741839176.065547
0.04,-0.27525,0.052,0.00305175,0.0015105,0.02197275,1741839176.081373
0.0385,-0.27625,0.04975,0.00413525,0.0028074998,0.02386475,1741839176.094629
0.039,-0.2745,0.05225,0.0047150003,0.003006,0.025115998,1741839176.1090329
0.04325,-0.27475,0.0555,0.0056,0.00396725,0.0280915,1741839176.123636
0.053,-0.2795,0.056,0.0062255003,0.0048217503,0.02952575,1741839176.138102
0.052,-0.28275,0.04625,0.00646975,0.0065917503,0.034423754,1741839176.152529
0.069,-0.2685,0.038,0.0060577504,0.00737,0.03756725,1741839176.166972
0.08025,-0.2565,0.04075,0.00579825,0.0090637505,0.04005425,1741839176.181346
0.088,-0.2445,0.04025,0.0061339997,0.009674,0.040099997,1741839176.1958091
0.0885,-0.2395,0.03575,0.006546,0.01019275,0.04072575,1741839176.21034
0.09125,-0.23225,0.03175,0.00665275,0.01104725,0.043273997,1741839176.2247198
0.10225,-0.21475,0.024,0.0068207504,0.0111085,0.043624748,1741839176.2402408
0.10825,-0.21125,0.0205,0.010299751,0.00930775,0.04119875,1741839176.253811
0.12175,-0.208,0.0085,0.013061499,0.0076295,0.03971875,1741839176.268225
0.13025,-0.19675,0.00525,0.0144805005,0.00517275,0.03889475,1741839176.2828789
0.15525,-0.17425,0.0085,0.012802,0.00485225,0.03964225,1741839176.297334
0.16525,-0.16925,0.0085,0.0102235,0.0059815003,0.039794996,1741839176.3134148
0.17125,-0.17025,-0.0015,0.010162249,0.0065917503,0.03878775,1741839176.326383
0.16775,-0.172,-0.008,0.011016751,0.00665275,0.037506,1741839176.341216
0.1675,-0.1725,-0.00975,0.012024,0.0058899997,0.037704498,1741839176.355435
0.17125,-0.17025,-0.009,0.013717749,0.0047912505,0.038085997,1741839176.370871
0.179,-0.159,-0.01225,0.01779175,0.00270075,0.039245497,1741839176.384424
0.18175,-0.142,-0.01325,0.01864625,0.00184625,0.040222254,1741839176.4005709
0.18625,-0.11925,-0.01325,0.016998248,0.00201425,0.04164125,1741839176.413697
0.19875,-0.08475,-0.01625,0.01593025,0.002884,0.04154975,1741839176.427964
0.20375,-0.0785,-0.0205,0.015029999,0.004303,0.04034425,1741839176.442657
0.211,-0.07475,-0.03,0.0154115,0.00440975,0.03987125,1741839176.45712
0.2125,-0.067,-0.03,0.01675425,0.00343325,0.03901675,1741839176.471722
0.22675,-0.05525,-0.0195,0.017181499,0.00308225,0.03923025,1741839176.486179
0.23675,-0.0535,-0.0145,0.017120251,0.0049590003,0.039306752,1741839176.5011861
0.23875,-0.048,-0.017,0.016876249,0.0066985004,0.0383605,1741839176.515714
0.232,-0.0435,-0.02475,0.0166625,0.0091705,0.0373535,1741839176.53174
0.218,-0.02475,-0.042,0.01661675,0.00947575,0.037902746,1741839176.544827
0.215,-0.01575,-0.0515,0.016632,0.008377,0.038757253,1741839176.559359
0.21725,0.0065,-0.05925,0.016296498,0.0073395,0.0379485,1741839176.5738208
0.222,0.0225,-0.055,0.01570125,0.0063477503,0.03598025,1741839176.5882041
0.2275,0.03325,-0.04975,0.013641249,0.0054932497,0.0309295,1741839176.602728
0.232,0.0385,-0.049,0.01210025,0.0056915004,0.02908325,1741839176.617214
0.22925,0.0405,-0.0525,0.009781,0.005783,0.026947001,1741839176.6319869
0.21925,0.04725,-0.06025,0.009811499,0.00546275,0.02604675,1741839176.646528
0.21525,0.0525,-0.06225,0.01083375,0.0047150003,0.02415475,1741839176.660911
0.21775,0.091,-0.05075,0.011123749,0.00538625,0.022049,1741839176.6756139
0.21525,0.1425,-0.0425,0.0101165,0.01086425,0.0089569995,1741839176.691076
0.17775,0.33425,-0.05725,0.0065612504,0.014724749,-0.00408925,1741839176.704674
0.1295,0.4405,-0.0915,-0.009872501,0.016876249,-0.044113252,1741839176.72029
0.06425,0.53325,-0.12625,-0.021698,0.013793999,-0.0667725,1741839176.734012
0.066,0.544,-0.12,-0.042175252,0.008651749,-0.1161195,1741839176.7487419
-0.0535,0.55775,-0.17775,-0.04916375,0.00665275,-0.14503475,1741839176.763495
-0.15675,0.56025,-0.19125,-0.05897525,-0.01019275,-0.191101,1741839176.778498
-0.293,0.382,-0.0805,-0.061523497,-0.0239715,-0.20320125,1741839176.7931242
-0.3255,0.19775,0.09625,-0.07229625,-0.038955748,-0.21823125,1741839176.807947
-0.3925,-0.41375,0.44325,-0.07513425,-0.034256,-0.21949776,1741839176.822784
-0.44425,-0.77425,0.4365,-0.0718385,-0.020401,-0.20886225,1741839176.83759
-0.4705,-1.0,0.27925,-0.05169675,0.0073395,-0.1376495,1741839176.852392
-0.40425,-0.98725,0.275,-0.0390015,0.00712575,-0.08680725,1741839176.867003
-0.22325,-0.654,0.24,-0.02088925,0.0024414998,-0.0045165,1741839176.881815
-0.14725,-0.5155,0.15675,-0.0143737495,0.0042267498,0.012634249,1741839176.896396
-0.08025,-0.423,0.056,-0.001419,0.001007,0.0114440005,1741839176.911158
0.04325,-0.29675,-0.06325,0.0024872501,-0.0038757501,0.0072785,1741839176.9257522
0.08425,-0.24775,-0.07175,0.0033722501,-0.0102845,0.0031585,1741839176.940545
0.09125,-0.22375,-0.04975,0.0023497501,-0.00968925,0.00187675,1741839176.955025
0.0735,-0.24,-0.0285,0.00061025,-0.004776,0.00160225,1741839176.9708312
0.0455,-0.2745,0.02875,3.0500001e-05,-0.00225825,0.0034790002,1741839176.984354
0.0315,-0.28425,0.0455,0.000183,0.001648,0.008377,1741839176.998793
0.007,-0.27075,0.05,0.00074775,0.00184625,0.01026925,1741839177.013727
0.004,-0.2545,0.047,0.00125125,1.5250001e-05,0.01206975,1741839177.027564
0.011,-0.23375,0.03675,0.00112925,-0.0007325,0.01222225,1741839177.0421948
0.019,-0.229,0.0325,0.0007935,-0.00096125,0.0119934995,1741839177.056938
0.0365,-0.218,0.0305,0.00048825,-0.00051875,0.01177975,1741839177.071362
0.03975,-0.2175,0.028,0.0,7.625e-05,0.01133725,1741839177.085948
0.0375,-0.22525,0.0205,-0.000824,0.00067150005,0.009613,1741839177.1012008
0.0365,-0.23125,0.02,-0.00086975005,0.00027475,0.008346501,1741839177.114902
0.03725,-0.23775,0.022,-0.0008545,-0.0012055,0.0065917503,1741839177.131298
0.0455,-0.256,0.0305,-0.001175,-0.00160225,0.0068969997,1741839177.144109
0.049,-0.2685,0.03425,-0.00177,-0.00096125,0.009658749,1741839177.158682
0.05025,-0.289,0.039,-0.00148,-0.00030525,0.011688249,1741839177.173409
0.051,-0.2925,0.04175,-0.000122000005,0.00051875,0.016388,1741839177.187999
0.05475,-0.2925,0.045,0.00045775,0.0007325,0.019042999,1741839177.2025118
0.0555,-0.293,0.043,0.00143425,0.00119025,0.0248565,1741839177.217001
0.054,-0.29125,0.03475,0.0021057501,0.00131225,0.02769475,1741839177.2314901
0.0545,-0.28575,0.03025,0.0040587503,0.000412,0.032653753,1741839177.2460039
0.064,-0.272,0.02875,0.00505075,-0.0005645,0.03471375,1741839177.2606468
0.074,-0.26325,0.03225,0.00637825,-0.0021057501,0.038330004,1741839177.275064
0.0935,-0.2385,0.039,0.006668,-0.0020905002,0.039734002,1741839177.291308
0.1005,-0.22625,0.04025,0.0067445002,-0.0014037499,0.041137747,1741839177.3041122
0.10975,-0.21475,0.04075,0.006363,0.0016632499,0.04356375,1741839177.318701
0.134,-0.1935,0.036,0.006256,0.0036315,0.04296875,1741839177.333172
0.14,-0.185,0.02625,0.00720225,0.0058287503,0.037384,1741839177.347799
0.1415,-0.16975,0.002,0.007187,0.0054932497,0.034729,1741839177.363714
0.145,-0.16175,-0.00175,0.0045777503,0.0033570002,0.032516498,1741839177.376797
0.15575,-0.159,0.00225,0.00305175,0.00251775,0.0319825,1741839177.3913002
0.159,-0.161,0.0065,0.0021057501,0.0021057501,0.02911375,1741839177.405757
0.15825,-0.17075,0.00775,0.0026092501,0.0020599999,0.026886,1741839177.420359
0.15675,-0.17725,0.0065,0.00340275,0.00157175,0.02462775,1741839177.434772
0.16025,-0.1795,0.00725,0.00340275,0.0012817499,0.025238002,1741839177.450635
0.16525,-0.17475,0.0095,0.00334175,0.001068,0.026413,1741839177.463861
0.1775,-0.16325,0.013,0.00289925,0.00105275,0.0290985,1741839177.478204
0.1835,-0.159,0.01475,0.0024414998,0.0012817499,0.030181998,1741839177.492717
0.18925,-0.157,0.01575,0.0020295,0.00198375,0.030853251,1741839177.5071738
0.194,-0.1575,0.012,0.0023345,0.00238025,0.030761749,1741839177.52179
0.19225,-0.156,0.0065,0.0033722501,0.0028535,0.03208925,1741839177.536171
0.19325,-0.14525,0.0015,0.00399775,0.00254825,0.033554003,1741839177.550959
0.201,-0.13425,0.008,0.0054932497,0.0022125002,0.03578175,1741839177.5652668
0.21775,-0.11125,0.0185,0.00587475,0.0029907501,0.036209,1741839177.580749
0.22175,-0.103,0.0165,0.004837,0.0059205,0.03712475,1741839177.5941749
0.2265,-0.09475,0.00725,0.0038299998,0.00715625,0.038147,1741839177.608804
0.2295,-0.09625,0.0045,0.00328075,0.008727999,0.04040525,1741839177.6232052
0.2305,-0.09825,0.00275,0.00411975,0.009292499,0.040954497,1741839177.63759
0.22925,-0.09325,0.00175,0.005066,0.00982675,0.04135125,1741839177.6520472
0.22825,-0.08375,0.0,0.0056915004,0.011031999,0.04393,1741839177.666537
0.23025,-0.05375,-0.003,0.0054015,0.011886501,0.04582225,1741839177.681172
0.23175,-0.03625,-0.00325,0.0033722501,0.014495751,0.04916375,1741839177.6955662
0.226,-0.00225,-0.00925,0.0014037499,0.01631175,0.051361,1741839177.710207
0.2215,0.0135,-0.0185,-0.0011445,0.01950075,0.05343625,1741839177.724776
0.21225,0.044,-0.04275,-0.0004425,0.01991275,0.051178,1741839177.7402382
0.2085,0.06225,-0.05275,0.00369275,0.0184785,0.040451,1741839177.75389
0.1955,0.10375,-0.07275,0.006012,0.01725775,0.033554003,1741839177.768235
0.188,0.1265,-0.0815,0.0065307496,0.0148925,0.02029425,1741839177.782781
0.17375,0.187,-0.0925,0.0042725,0.013793999,0.0139770005,1741839177.797211
0.1665,0.228,-0.097,0.00077825,0.012985251,0.0074615004,1741839177.8132858
0.136,0.35475,-0.13,-0.00897225,0.011795,-0.012176501,1741839177.826401
0.1225,0.4155,-0.13775,-0.014679,0.009430001,-0.028473,1741839177.8412511
0.12625,0.4585,-0.1265,-0.027587999,0.00029,-0.07516475,1741839177.8555992
0.102,0.48525,-0.1125,-0.035797,-0.00148,-0.10240175,1741839177.8708549
0.0375,0.49175,-0.145,-0.053283747,0.0010375,-0.1579285,1741839177.884814
-0.15775,0.5035,-0.2295,-0.0626525,-0.0041810004,-0.18565375,1741839177.900841
-0.27825,0.4405,-0.2315,-0.07453925,-0.036331248,-0.231186,1741839177.914291
-0.496,0.16725,-0.0285,-0.075027496,-0.0538025,-0.2429505,1741839177.931187
-0.574,-0.04,0.19025,-0.071869,-0.07406625,-0.239685,1741839177.943795
-0.6275,-0.672,0.63525,-0.06546025,-0.0694275,-0.22448725,1741839177.958682
-0.627,-0.95975,0.65675,-0.045410253,-0.02272025,-0.13848875,1741839177.9734988
-0.49375,-1.0,0.4765,-0.03695675,0.00119025,-0.072052,1741839177.9881659
-0.3755,-0.83925,0.39225,-0.0166625,0.010101249,0.02278125,1741839178.002812
-0.1495,-0.3995,0.11625,-0.007965,0.004303,0.03158575,1741839178.017396
-0.054,-0.28125,-0.01775,0.00419625,-0.0079955,0.00393675,1741839178.032118
0.047,-0.19025,-0.1115,0.0066374997,-0.014663749,-0.008590749,1741839178.0468202
0.056,-0.196,-0.09625,0.0011445,-0.02088925,-0.01026925,1741839178.063756
0.03875,-0.26925,0.00675,-0.0017242499,-0.0203705,-0.008072,1741839178.076173
0.02625,-0.312,0.06375,-0.000946,-0.014068499,-0.00314325,1741839178.0913332
0.01125,-0.362,0.1585,0.000473,-0.0079345,0.0016175,1741839178.1053162
-0.00225,-0.3675,0.1595,0.0025634998,-0.00289925,0.0068512503,1741839178.120901
-0.014,-0.35225,0.13875,0.00717175,0.0026854998,0.016159,1741839178.13433
-0.0165,-0.248,0.0825,0.00801075,0.003891,0.01991275,1741839178.1488051
-0.01525,-0.1895,0.05225,0.00717175,0.00440975,0.01927175,1741839178.163348
-0.011,-0.1425,0.014,0.0059510004,0.00317375,0.0155030005,1741839178.178056
-0.00875,-0.157,0.01325,0.00283825,-0.0005035,0.00891125,1741839178.1926441
0.004,-0.21525,0.04325,0.0013275,-0.00148,0.008484,1741839178.207417
0.01625,-0.23475,0.06475,-0.00027475,-0.00070200005,0.011031999,1741839178.222004
0.026,-0.26425,0.08225,-0.0001525,0.00083925005,0.01222225,1741839178.236496
0.01925,-0.27575,0.07525,0.001068,0.0042115003,0.014938249,1741839178.251005
0.0055,-0.272,0.05625,0.0017395001,0.0050355,0.01628125,1741839178.265426
0.00325,-0.26625,0.05225,0.0026245,0.0045012496,0.01794425,1741839178.281279
0.003,-0.26825,0.05225,0.00270075,0.003952,0.0190735,1741839178.294396
0.00625,-0.26725,0.05325,0.00254825,0.0037079998,0.020934999,1741839178.308909
0.02,-0.255,0.0515,0.0021819999,0.0042572496,0.024658252,1741839178.323413
0.02425,-0.2485,0.04575,0.0022735,0.0046539996,0.025421249,1741839178.338015
0.02825,-0.24075,0.04025,0.002472,0.00428775,0.0251465,1741839178.352521
0.04225,-0.23075,0.037,0.0025634998,0.00331125,0.024108998,1741839178.366983
0.0475,-0.23125,0.03675,0.0025940002,0.00143425,0.02168275,1741839178.3815308
0.05625,-0.237,0.04675,0.00242625,0.00090025004,0.021225,1741839178.39595
0.06125,-0.2435,0.05325,0.0021515,0.0010375,0.02200325,1741839178.4104269
0.0695,-0.25425,0.056,0.0020905002,0.00177,0.0231475,1741839178.4248629
0.0735,-0.252,0.053,0.0022277501,0.003128,0.025512751,1741839178.439426
0.0795,-0.238,0.043,0.0022277501,0.00343325,0.02636725,1741839178.453921
0.08,-0.23425,0.03675,0.00187675,0.00302125,0.0282745,1741839178.4684439
0.08375,-0.2275,0.02825,0.0017242499,0.0024414998,0.0291595,1741839178.4829388
0.09125,-0.22025,0.02925,0.001709,0.0016175,0.02964775,1741839178.4973881
0.10025,-0.21325,0.03175,0.001709,0.0003205,0.029358,1741839178.5136268
0.1195,-0.20225,0.03725,0.0016785001,0.0002135,0.0289155,1741839178.526459
0.1255,-0.1995,0.039,0.00231925,0.0004425,0.027893,1741839178.540976
0.1255,-0.20875,0.03925,0.00267025,0.00064075,0.02810675,1741839178.555409
0.126,-0.215,0.0385,0.00292975,0.001068,0.0298615,1741839178.5710552
0.134,-0.21,0.03675,0.00305175,0.001114,0.03096,1741839178.584424
0.13925,-0.1945,0.0375,0.0029755002,-6.1000002e-05,0.03179925,1741839178.6006742
0.15475,-0.17075,0.0405,0.0029145,-0.00093075,0.030853251,1741839178.61401
0.161,-0.17175,0.043,0.00308225,-0.00068675,0.027740499,1741839178.6280751
0.1605,-0.18175,0.04225,0.0028229998,0.00045775,0.026947001,1741839178.6425788
0.1615,-0.18275,0.04175,0.0022735,0.001831,0.027007999,1741839178.657244
0.16775,-0.179,0.039,0.001526,0.00340275,0.028564502,1741839178.671833
0.171,-0.1745,0.03375,0.0018005001,0.0034790002,0.0292815,1741839178.686264
0.1745,-0.1675,0.02825,0.00320425,0.002472,0.02905275,1741839178.7008798
0.17775,-0.15675,0.02725,0.00369275,0.00160225,0.0283965,1741839178.715273
0.18075,-0.15625,0.02675,0.003662,0.00071725,0.0286255,1741839178.7310588
0.19,-0.151,0.02475,0.0031889998,0.0013885,0.029129,1741839178.744283
0.195,-0.1415,0.022,0.0028074998,0.00283825,0.02886975,1741839178.758759
0.20575,-0.11275,0.01925,0.00302125,0.003006,0.02793875,1741839178.7732081
0.2115,-0.10325,0.02125,0.0027312501,0.0029755002,0.025711,1741839178.7875562
0.22025,-0.105,0.02375,0.0022277501,0.0030365,0.02490225,1741839178.801976
0.222,-0.10725,0.02075,0.00146475,0.0043182503,0.02336125,1741839178.816365
0.2255,-0.10425,0.019,0.00146475,0.0048979996,0.022338752,1741839178.831879
0.22575,-0.10125,0.018,0.0016175,0.004776,0.02153025,1741839178.845354
0.22475,-0.0975,0.0155,0.0012970001,0.0052185003,0.02168275,1741839178.859853
0.2285,-0.083,0.0175,0.0007325,0.006073,0.02183525,1741839178.8741271
0.23,-0.079,0.017,-0.00019825,0.006073,0.02127075,1741839178.888691
0.23,-0.07525,0.00975,-0.00062550005,0.0061950004,0.02079775,1741839178.903271
0.2305,-0.0725,0.00625,0.0,0.00570675,0.01817325,1741839178.9177861
0.23225,-0.07025,0.0065,0.00070200005,0.0049742498,0.01667775,1741839178.9321148
0.23475,-0.0725,0.01025,0.0010375,0.0041044997,0.0167695,1741839178.946569
0.238,-0.07125,0.015,0.0005035,0.00437925,0.01805125,1741839178.9609861
0.23675,-0.0665,0.01375,-0.00024425,0.0055085,0.019317752,1741839178.9755661
0.2285,-0.05975,0.0005,6.1000002e-05,0.0055695,0.01879875,1741839178.9910872
0.22525,-0.05775,-0.00625,0.0007935,0.00511175,0.01805125,1741839179.0045178
0.22525,-0.05475,-0.0095,0.00190725,0.0036010002,0.01753225,1741839179.020267
0.22775,-0.04125,-0.00875,0.00177,0.003128,0.0177765,1741839179.033769
0.22875,-0.03375,-0.00675,0.00071725,0.0026854998,0.018448,1741839179.048269
0.2335,-0.033,0.0,6.1000002e-05,0.00239575,0.019042999,1741839179.063738
0.23575,-0.0365,-0.00025,-0.00083925005,0.001892,0.0204315,1741839179.0775192
0.242,-0.02875,0.00225,-0.000534,0.00213625,0.0204315,1741839179.092059
0.245,-0.0185,0.005,0.0012055,0.001953,0.018753,1741839179.106474
0.243,-0.00925,0.00375,0.0016785001,0.0017395001,0.01808175,1741839179.120955
0.24125,-0.00975,-0.00175,0.0015105,0.001419,0.018035999,1741839179.135473
0.243,-0.0055,-0.0085,0.0016632499,0.00108325,0.01744075,1741839179.150767
0.246,-0.003,-0.00825,0.00325,-3.0500001e-05,0.01425175,1741839179.1645591
0.24875,-0.00175,-0.0045,0.0038757501,-0.00048825,0.012832751,1741839179.180951
0.249,0.00175,-0.00025,0.00381475,-0.00054925,0.01216125,1741839179.19359
0.25,0.00725,0.003,0.00251775,0.00029,0.011673001,1741839179.207959
0.2515,0.01725,0.004,0.0020752498,0.00065625,0.01091,1741839179.2222989
