acc_x,acc_y,acc_z,gyro_x,gyro_y,gyro_z,timestamp
0.24325,0.02625,-0.02,-0.00177,0.00036625,-1.5250001e-05,1741839267.125935
0.242,0.022,-0.023,-0.00160225,-0.00016775,-0.00027475,1741839267.139935
0.24175,0.01875,-0.01975,-0.00112925,-0.00061025,-0.0002135,1741839267.153643
0.24225,0.02125,-0.0165,-0.00086975005,-0.00102225,0.00035100002,1741839267.1683252
0.246,0.0245,-0.0115,-0.00102225,-0.00096125,0.00068675,1741839267.182883
0.24725,0.02425,-0.011,-0.000534,-0.00068675,0.0007325,1741839267.197492
0.24675,0.027,-0.0125,-0.00051875,-0.00059500005,0.00083925005,1741839267.2131178
0.24625,0.02825,-0.01375,-0.00090025004,-0.00059500005,0.00096125,1741839267.226608
0.2445,0.027,-0.01525,-0.000946,-0.00077825,0.00070200005,1741839267.241167
0.246,0.02425,-0.01325,-0.00080875,-0.0012055,0.0001525,1741839267.2560158
0.25025,0.02025,-0.01,-0.00035100002,-0.00125125,-0.000122000005,1741839267.270693
0.252,0.021,-0.00825,0.00024425,-0.00112925,-0.00016775,1741839267.285237
0.254,0.0255,-0.0045,0.0,-0.000946,7.625e-05,1741839267.300235
0.25325,0.024,-0.00525,-0.0003815,-0.00065625,0.00027475,1741839267.314294
0.249,0.0165,-0.01275,-0.00030525,1.5250001e-05,9.15e-05,1741839267.328886
0.2465,0.01475,-0.01675,0.00010675,0.00016775,-1.5250001e-05,1741839267.3433611
0.24525,0.0155,-0.01875,0.000412,9.15e-05,0.0003205,1741839267.3576682
0.245,0.02075,-0.02025,0.000229,1.5250001e-05,0.00062550005,1741839267.372137
0.24525,0.023,-0.02,0.00016775,-0.00013725001,0.00070200005,1741839267.386594
0.24675,0.0265,-0.01825,0.0002595,-0.0002595,0.000473,1741839267.401089
0.24725,0.0265,-0.01725,6.1000002e-05,-0.00030525,0.00024425,1741839267.415504
0.248,0.023,-0.017,6.1000002e-05,-0.0002135,0.0001525,1741839267.4307861
0.24775,0.02175,-0.0185,0.00030525,-0.00027475,6.1000002e-05,1741839267.444489
0.2465,0.02425,-0.0195,0.00033575002,-0.000412,0.0002595,1741839267.458993
0.24625,0.0265,-0.01725,0.00039675,-0.00065625,0.0004425,1741839267.473505
0.24625,0.03025,-0.01225,0.0004425,-0.00071725,0.0003205,1741839267.487992
0.2475,0.03075,-0.011,0.0003815,-0.00065625,0.0001525,1741839267.5024881
0.24875,0.03,-0.01075,0.00024425,-0.00013725001,-3.0500001e-05,1741839267.517091
0.2485,0.03125,-0.01375,0.00029,0.0001525,1.5250001e-05,1741839267.531484
0.24825,0.0345,-0.01225,0.00016775,0.00024425,0.000229,1741839267.545856
0.252,0.0405,0.006,-0.0001525,-1.5250001e-05,0.00042725,1741839267.560362
0.2585,0.04325,0.03225,-7.625e-05,-0.0016632499,0.0004425,1741839267.574848
0.28475,0.0435,0.155,0.00064075,-0.004013,0.00019825,1741839267.589983
0.318,0.03975,0.26425,0.0039825,-0.012985251,-0.00027475,1741839267.603872
0.38,0.04475,0.50425,0.0057525,-0.01651,7.625e-05,1741839267.61817
0.38,0.0525,0.583,0.00428775,-0.00773625,0.00317375,1741839267.6327
0.27525,0.0465,0.566,0.00112925,0.0042725,0.0051269997,1741839267.647116
0.204,0.04325,0.48075,-0.0007935,0.01640325,0.00621025,1741839267.662973
0.14375,0.0545,0.35175,-0.00231925,0.032516498,0.00469975,1741839267.6758652
0.07875,0.088,0.001,-0.00488275,0.03724675,0.00238025,1741839267.691034
0.057,0.08325,-0.1945,-0.005539,0.041153,-0.0070342496,1741839267.704885
0.0265,0.029,-0.513,-0.00108325,0.03689575,-0.01289375,1741839267.720681
0.03925,0.023,-0.58225,0.01083375,0.016143749,-0.019714251,1741839267.7339442
0.10975,0.0475,-0.574,0.01266475,0.004547,-0.0194855,1741839267.7485282
0.1515,0.04525,-0.54125,0.0067597497,-0.008484,-0.0168305,1741839267.76318
0.2185,-0.00375,-0.45425,0.004303,-0.0112,-0.01617425,1741839267.777859
0.24525,-0.03025,-0.3875,0.0037537501,-0.01744075,-0.0136565,1741839267.792475
0.29175,-0.059,-0.1945,0.004486,-0.02079775,-0.012054499,1741839267.807203
0.31125,-0.067,-0.09075,0.0058899997,-0.02034,-0.009613,1741839267.821884
0.3265,-0.09,0.0395,0.005066,-0.0150605,-0.0078125,1741839267.836477
0.3155,-0.0975,0.04825,0.0029449998,-0.00773625,-0.0050812503,1741839267.8510752
0.2785,-0.07275,0.0075,0.00067150005,0.00270075,9.15e-05,1741839267.865452
0.26225,-0.04975,-0.0155,0.00184625,0.003662,0.0012207499,1741839267.8805828
0.2485,-0.0245,-0.033,0.0050355,0.0025634998,0.0015565,1741839267.894776
0.224,0.02325,-0.06175,0.0055237496,0.0018615,0.0013427499,1741839267.909302
0.21775,0.039,-0.0725,0.0042572496,0.000122000005,0.00062550005,1741839267.923821
0.22025,0.05125,-0.0815,0.00343325,-0.000473,0.0,1741839267.938443
0.22575,0.04625,-0.083,0.00181575,-0.0013885,-0.00119025,1741839267.953074
0.23975,0.02675,-0.0815,0.001007,-0.0020295,-0.001175,1741839267.967695
0.24525,0.0205,-0.077,0.00074775,-0.00358575,-0.0012055,1741839267.982291
0.25025,0.006,-0.0675,0.0009765,-0.003952,-0.001419,1741839267.996937
0.24875,-0.003,-0.0655,0.00102225,-0.0031889998,-0.00096125,1741839268.012139
0.23975,-0.01275,-0.06725,0.00064075,-0.002777,-0.00010675,1741839268.026399
0.23575,-0.0165,-0.067,-0.00080875,-0.0033570002,0.0022277501,1741839268.041107
0.23525,-0.0195,-0.05025,-0.00112925,-0.0042572496,0.0033264998,1741839268.0555992
0.23975,-0.0135,-0.03475,0.00027475,-0.0052795,0.00364675,1741839268.070644
0.24575,0.0045,-0.018,0.0013427499,-0.0049590003,0.002777,1741839268.084811
0.244,0.01125,-0.01625,0.00190725,-0.0044250004,0.0019225,1741839268.1003
0.24175,0.0145,-0.01425,0.0005035,-0.0034790002,0.00154125,1741839268.113745
0.236,0.00875,-0.013,-0.001175,-0.0028687501,0.0020295,1741839268.128396
0.232,0.00275,-0.01725,-0.0033570002,-0.0013275,0.0029907501,1741839268.142883
0.222,-0.00275,-0.0375,-0.0031889998,-0.001007,0.003128,1741839268.1576571
0.2185,0.0045,-0.04775,-0.0016785001,-0.00242625,0.0028074998,1741839268.172278
0.2175,0.02075,-0.04875,-0.00105275,-0.00413525,0.0021819999,1741839268.1868632
0.22175,0.019,-0.03775,-0.0008545,-0.0069580004,0.00080875,1741839268.201505
0.235,0.002,-0.009,-0.0009155,-0.00720225,0.0007325,1741839268.216094
0.23925,-0.00475,-0.00075,-0.00071725,-0.00637825,0.0013427499,1741839268.231103
0.2435,-0.015,-0.0005,-0.0002595,-0.006012,0.00177,1741839268.245486
0.24425,-0.0145,-0.0035,0.0012055,-0.0057372497,0.0028687501,1741839268.260181
0.243,0.00825,-0.00225,0.0012817499,-0.00570675,0.003418,1741839268.274865
0.242,0.022,-0.0005,-0.00238025,-0.0056,0.00393675,1741839268.289415
0.24425,0.01575,-0.00275,-0.00413525,-0.00538625,0.00372325,1741839268.304089
0.24225,0.00525,-0.00725,-0.0043182503,-0.0049742498,0.00320425,1741839268.318691
0.23975,0.003,-0.00575,-0.002365,-0.0042725,0.00245675,1741839268.333216
0.24,0.007,-0.004,-0.00131225,-0.0043335,0.0021972498,1741839268.3480818
0.24075,0.009,-0.00225,-0.00019825,-0.005249,0.0017242499,1741839268.36314
0.24525,0.00575,0.006,-0.0003815,-0.0058287503,0.0019225,1741839268.376998
0.24675,0.00325,0.0115,-0.0015105,-0.0056304997,0.003662,1741839268.391449
0.24475,0.01175,0.0105,-0.00184625,-0.00469975,0.0045777503,1741839268.40609
0.24225,0.0195,0.00475,-0.0014037499,-0.0029145,0.004776,1741839268.420956
0.242,0.03375,0.004,-0.00080875,-0.0030669998,0.00402825,1741839268.435165
0.244,0.035,0.00875,-0.0003815,-0.0044707498,0.00198375,1741839268.4506419
0.24925,0.02375,0.021,-0.00086975005,-0.0049590003,0.00148,1741839268.464243
0.25125,0.01525,0.026,-0.0021972498,-0.0048065,0.0023497501,1741839268.4788969
0.25175,0.014,0.0255,-0.00228875,-0.00411975,0.0029907501,1741839268.493369
0.2495,0.02175,0.02075,-0.00105275,-0.0026092501,0.0026245,1741839268.507893
0.2415,0.0305,0.01125,-0.000122000005,-0.0024872501,0.001648,1741839268.522377
0.24025,0.02825,0.0125,0.00067150005,-0.0029755002,0.00059500005,1741839268.536837
0.241,0.02425,0.0195,0.00057975,-0.004776,0.00035100002,1741839268.55116
0.24875,0.01975,0.04875,-0.00045775,-0.00485225,0.00149525,1741839268.565875
0.25325,0.0255,0.064,-0.00099175,-0.0023345,0.002884,1741839268.5811882
0.25025,0.0385,0.0795,1.5250001e-05,-0.0009155,0.00216675,1741839268.594749
0.24925,0.043,0.094,0.001419,-0.00024425,0.00036625,1741839268.60916
0.26175,0.0585,0.1775,0.0020295,-0.00062550005,-0.00036625,1741839268.623691
0.28225,0.062,0.26025,0.003128,0.000183,-0.0017852499,1741839268.638186
0.34,0.078,0.49875,0.0027465,0.0012817499,-0.0032195,1741839268.652742
0.34825,0.0695,0.588,9.15e-05,0.0057677496,-0.009140001,1741839268.66719
0.35675,-0.04275,0.66975,0.0025787498,0.0114744995,-0.01156625,1741839268.681767
0.312,-0.0815,0.626,0.0088805,0.019775499,-0.0119630005,1741839268.696245
0.22975,-0.08025,0.537,0.0064850003,0.0360565,-0.001419,1741839268.710939
0.0835,0.01975,0.34,-0.000534,0.04087825,0.0052337497,1741839268.7254531
0.041,0.072,0.17775,-0.001419,0.045105,0.00057975,1741839268.741212
0.01875,0.04125,-0.2475,0.0031889998,0.04331975,-0.00691225,1741839268.754504
0.02075,0.012,-0.43125,0.011383001,0.03208925,-0.014389,1741839268.769064
0.05625,0.029,-0.61825,0.012634249,0.02430725,-0.0138702495,1741839268.783529
0.0875,0.08,-0.63925,0.011917,0.008545,-0.0100555,1741839268.798144
0.16325,0.157,-0.6025,0.0077210004,0.0026245,-0.00811775,1741839268.813786
0.20575,0.1485,-0.537,0.0012207499,-0.004547,-0.010147001,1741839268.827254
0.27225,0.04175,-0.36,0.002365,-0.0074004997,-0.014068499,1741839268.841961
0.293,-0.02925,-0.25875,0.0038605002,-0.0123595,-0.0161895,1741839268.856609
0.3115,-0.132,-0.0665,0.0029907501,-0.012924249,-0.013031,1741839268.871365
0.3145,-0.14425,-0.00075,0.003662,-0.00564575,-0.0049285004,1741839268.8861692
0.28425,-0.1185,0.0005,0.0045777503,0.00027475,-0.0019989999,1741839268.90082
0.25525,-0.08825,-0.039,0.00469975,0.00517275,0.00035100002,1741839268.915169
0.21425,-0.02775,-0.1025,0.00402825,0.0074920002,0.00263975,1741839268.9313421
0.20075,-0.008,-0.12225,0.0053252503,0.00517275,0.0022125002,1741839268.944153
0.19275,0.009,-0.1345,0.0077210004,-0.0008545,0.0016785001,1741839268.958642
0.19775,0.03975,-0.1335,0.00738525,-0.00314325,0.0020599999,1741839268.973145
0.2055,0.04725,-0.12025,0.0054932497,-0.0060577504,0.0022277501,1741839268.98769
0.2305,0.0435,-0.08,0.00413525,-0.00646975,0.001892,1741839269.002165
0.24275,0.029,-0.0625,0.0023039998,-0.0058899997,0.00074775,1741839269.016639
0.25625,-0.008,-0.0465,0.0017852499,-0.00543225,0.00071725,1741839269.031306
0.255,-0.01975,-0.048,0.0018615,-0.005066,0.00125125,1741839269.04585
0.24675,-0.03225,-0.06125,0.0021819999,-0.0052795,0.00146475,1741839269.06064
0.242,-0.03425,-0.07075,0.002655,-0.00637825,0.0027465,1741839269.075338
0.235,-0.023,-0.0765,0.0021972498,-0.00708,0.0040587503,1741839269.09122
0.238,-0.00975,-0.06375,0.000946,-0.0073242504,0.00590525,1741839269.1045141
0.25,0.01275,-0.032,0.00086975005,-0.0062407497,0.0054780003,1741839269.118983
0.25125,0.0125,-0.03175,0.001175,-0.0045625,0.00437925,1741839269.133455
0.2465,0.00675,-0.0425,0.0013275,-0.00190725,0.003418,1741839269.148009
0.234,0.0035,-0.06675,0.00093075,-0.00193775,0.0040435,1741839269.163588
0.23,0.0115,-0.072,0.00057975,-0.0043944996,0.0051880004,1741839269.176975
0.22375,0.02775,-0.06775,-3.0500001e-05,-0.0061339997,0.00561525,1741839269.191509
0.22025,0.033,-0.06475,-0.00381475,-0.0087585,0.0069274995,1741839269.206177
0.22,0.03325,-0.0555,-0.00511175,-0.009887749,0.0068665,1741839269.2210162
0.22175,0.02575,-0.04375,-0.004242,-0.012054499,0.00531,1741839269.23553
0.23425,0.02625,-0.00625,-0.0027312501,-0.0127105,0.0039825,1741839269.250698
0.238,0.03175,0.00775,-0.0009155,-0.0125275,0.00054925,1741839269.264561
0.2385,0.02325,0.01225,-0.0024872501,-0.0110015,0.0001525,1741839269.279104
0.2355,0.01575,0.00325,-0.0072175004,-0.0073395,0.002243,1741839269.293691
0.23025,0.011,-0.01275,-0.00817875,-0.0065765,0.00302125,1741839269.308254
0.23225,0.0155,-0.012,-0.007904,-0.0068207504,0.00308225,1741839269.322849
0.242,0.02525,0.0045,-0.0053709997,-0.00891125,0.001175,1741839269.337352
0.247,0.0205,0.01575,-0.0043335,-0.009582501,-0.000122000005,1741839269.352062
0.25075,0.009,0.02475,-0.0048979996,-0.0089569995,-0.00039675,1741839269.3666391
0.25075,-0.00325,0.027,-0.00611875,-0.00767525,0.00102225,1741839269.3812869
0.246,0.0015,0.0195,-0.007599,-0.00434875,0.00396725,1741839269.395856
0.22825,0.01875,-0.0055,-0.0076142503,-0.0030669998,0.0043335,1741839269.412589
0.22075,0.024,-0.0155,-0.0065765,-0.00355525,0.00254825,1741839269.425269
0.225,0.01675,-0.00825,-0.00579825,-0.0055847503,0.0014037499,1741839269.4412081
0.23425,0.01075,0.00975,-0.00535575,-0.00962825,0.00143425,1741839269.4544609
0.2505,0.01075,0.055,-0.0058287503,-0.009719751,0.002533,1741839269.468972
0.255,0.0175,0.0685,-0.00631725,-0.0055237496,0.00413525,1741839269.48349
0.2475,0.02575,0.04875,-0.0067445002,-0.00251775,0.004303,1741839269.4979572
0.2395,0.027,0.0265,-0.007309,0.0009765,0.00402825,1741839269.513602
0.22825,0.034,0.00075,-0.00672925,0.0005035,0.00352475,1741839269.526849
0.22825,0.03575,0.00375,-0.00614925,-0.001236,0.0029755002,1741839269.541449
0.23125,0.035,0.01625,-0.0062712496,-0.0050812503,0.00251775,1741839269.556003
0.24025,0.031,0.04475,-0.0063477503,-0.0058899997,0.002533,1741839269.5711539
0.2445,0.02975,0.0525,-0.0050355,-0.005783,0.0021515,1741839269.584969
0.24875,0.02975,0.05675,-0.00367725,-0.0053405,0.0013885,1741839269.600647
0.249,0.031,0.05625,-0.00086975005,-0.0043182503,-0.0007935,1741839269.614177
0.2495,0.02625,0.05475,-0.000824,-0.00408925,-0.001007,1741839269.628864
0.252,0.0205,0.05825,-0.00367725,-0.00325,0.0015105,1741839269.643546
0.257,0.0265,0.0665,-0.0042572496,-0.00238025,0.00283825,1741839269.658261
0.255,0.0375,0.0665,-0.0029907501,-0.00036625,0.00302125,1741839269.672728
0.25475,0.04975,0.07425,-0.002411,0.00029,0.0020752498,1741839269.687127
0.2575,0.047,0.08975,-0.00109875,0.00146475,-0.00077825,1741839269.701657
0.26325,0.0425,0.13675,4.575e-05,0.0021515,-0.00169375,1741839269.716067
0.26925,0.04725,0.1705,0.000534,0.0027160002,-0.00160225,1741839269.731253
0.28225,0.05325,0.22325,-0.0021972498,0.002365,0.000122000005,1741839269.7449899
0.33825,0.0465,0.43825,-0.00228875,0.00086975005,-0.00061025,1741839269.759538
0.37625,0.0195,0.582,0.0058287503,0.00086975005,-0.008346501,1741839269.7739651
0.3785,-0.046,0.746,0.010589501,0.0076295,-0.010314999,1741839269.7884228
0.3235,-0.05425,0.7415,0.0099639995,0.02626025,-0.00131225,1741839269.803038
0.18075,0.0505,0.6065,0.0060577504,0.034134,0.0040587503,1741839269.817558
0.12825,0.1075,0.456,0.00146475,0.046081502,-0.00154125,1741839269.832011
0.07725,0.08225,0.02875,0.00296025,0.047622748,-0.009582501,1741839269.846635
0.0675,0.04175,-0.2,0.0062407497,0.044693,-0.017685,1741839269.8611069
0.03675,0.0635,-0.55175,0.0064850003,0.04049675,-0.0170135,1741839269.8756979
0.0215,0.1115,-0.656,0.00611875,0.025787251,-0.01652525,1741839269.8911738
0.038,0.15325,-0.7505,0.00662225,0.01799,-0.019455,1741839269.904795
0.06325,0.1265,-0.75825,0.00631725,0.01054375,-0.02244575,1741839269.9210181
0.128,0.01675,-0.65675,0.0044250004,-0.006012,-0.02326975,1741839269.93427
0.165,-0.02975,-0.5445,0.0053252503,-0.014434749,-0.02124025,1741839269.950408
0.20325,-0.0695,-0.3965,0.0063325,-0.0255585,-0.01412975,1741839269.963627
0.28725,-0.142,-0.06475,0.0054932497,-0.02592475,-0.009323,1741839269.9782028
0.308,-0.1615,0.03075,0.0028074998,-0.01200875,0.00143425,1741839269.992695
0.30025,-0.15075,0.05575,0.00177,-0.0034637498,0.00611875,1741839270.0072188
0.29175,-0.115,0.04525,0.005783,0.0025025,0.008361749,1741839270.021586
0.26525,-0.0215,0.02675,0.008926501,0.00201425,0.0061339997,1741839270.036084
0.2465,0.01,0.0065,0.0089569995,0.0023039998,0.0027160002,1741839270.050758
0.21425,0.0515,-0.04375,0.0066374997,0.0024872501,0.002533,1741839270.064966
0.208,0.06075,-0.06525,0.0045012496,0.00074775,3.0500001e-05,1741839270.081093
0.20825,0.04675,-0.103,0.00491325,-0.00048825,-0.0022277501,1741839270.0940108
0.21525,0.03175,-0.10825,0.0050355,-0.00169375,-0.00358575,1741839270.108622
0.2365,0.01,-0.08775,0.0029755002,-0.0038757501,-0.00225825,1741839270.12325
0.243,0.005,-0.07525,0.0019685,-0.00453175,-0.0008545,1741839270.137884
0.2445,-0.00025,-0.06725,0.00105275,-0.004013,0.0011445,1741839270.1524632
0.24125,-0.009,-0.061,0.00030525,-0.0035095,0.0021515,1741839270.167134
0.239,-0.01275,-0.06425,-0.0016175,-0.0034942501,0.004074,1741839270.1818602
0.2335,-0.0225,-0.08475,-0.00149525,-0.00393675,0.0044250004,1741839270.1966531
0.2305,-0.02375,-0.09025,0.000534,-0.00668325,0.0045777503,1741839270.212699
0.23375,-0.01825,-0.07125,0.001419,-0.0088805,0.005066,1741839270.225833
0.23975,0.001,-0.054,0.00251775,-0.01098625,0.0050812503,1741839270.241416
0.24875,0.03025,-0.022,0.00283825,-0.01062,0.003769,1741839270.2549078
0.24775,0.02825,-0.01925,0.0003815,-0.008224499,0.00242625,1741839270.270895
0.2385,0.01625,-0.0325,-0.00238025,-0.0068055,0.0033264998,1741839270.2840629
0.23575,0.017,-0.0365,-0.006256,-0.006073,0.00494375,1741839270.298677
0.233,0.01825,-0.0315,-0.0065917503,-0.0066985004,0.0046234997,1741839270.313248
0.23275,0.013,-0.02625,-0.00543225,-0.00833125,0.0028074998,1741839270.327732
0.2355,0.00375,-0.00875,-0.004593,-0.0088805,0.00198375,1741839270.342419
0.23675,0.00525,0.00325,-0.0041504996,-0.008941749,0.00154125,1741839270.35698
0.2375,0.01175,0.012,-0.005539,-0.0076905,0.0017395001,1741839270.371466
0.23225,0.0195,0.00625,-0.0069885002,-0.0069580004,0.0019225,1741839270.386152
0.23075,0.01525,0.00125,-0.00823975,-0.0063934997,0.00181575,1741839270.400785
0.2355,0.0105,0.00325,-0.0076142503,-0.0067902496,0.00112925,1741839270.415429
0.241,0.009,0.0115,-0.0058899997,-0.008667,-0.00067150005,1741839270.431115
0.25175,-0.004,0.03125,-0.0059815003,-0.009094249,-0.00067150005,1741839270.444839
0.2515,-0.008,0.03125,-0.0077972496,-0.00737,0.0017395001,1741839270.459489
0.2415,-0.001,0.014,-0.00874325,-0.00585925,0.00314325,1741839270.474161
0.2355,0.005,0.0055,-0.009292499,-0.00460825,0.0039825,1741839270.488749
0.228,0.00425,-0.002,-0.008865249,-0.0050812503,0.00355525,1741839270.503238
0.229,-0.00125,0.00275,-0.00694275,-0.0068512503,0.003128,1741839270.517903
0.24125,-0.00325,0.03125,-0.00567625,-0.0076295,0.00334175,1741839270.532455
0.24575,0.004,0.0445,-0.0044707498,-0.00738525,0.00411975,1741839270.5469902
0.24675,0.01175,0.04825,-0.004593,-0.0062255003,0.0043639997,1741839270.562807
0.24475,0.01,0.0385,-0.00463875,-0.0047912505,0.0043639997,1741839270.575976
0.23975,0.01,0.0165,-0.0037079998,-0.0029449998,0.0038299998,1741839270.59131
0.23675,0.01425,0.0115,-0.00302125,-0.00292975,0.0034484998,1741839270.604975
0.23575,0.0185,0.01375,-0.0035095,-0.0043639997,0.00328075,1741839270.620492
0.2455,0.02525,0.037,-0.00416575,-0.00531,0.0034790002,1741839270.634057
0.25075,0.0265,0.045,-0.0042725,-0.0054780003,0.0030669998,1741839270.648457
0.25375,0.0185,0.04125,-0.00413525,-0.0048065,0.0026854998,1741839270.663442
0.2535,0.0145,0.03675,-0.003769,-0.003952,0.00238025,1741839270.6774101
0.25775,0.0185,0.036,-0.0031585,-0.0041044997,0.00216675,1741839270.6919968
0.2605,0.0205,0.039,-0.0022125002,-0.0041810004,0.00175475,1741839270.706466
0.265,0.01825,0.0445,-0.00228875,-0.0034790002,0.0020599999,1741839270.721157
0.26325,0.018,0.0415,-0.00296025,-0.0013885,0.003769,1741839270.7354581
0.2565,0.025,0.03475,-0.003296,-0.000885,0.0047150003,1741839270.750516
0.25525,0.03475,0.04175,-0.0033875,-0.001114,0.0054780003,1741839270.764425
0.255,0.0445,0.0585,-0.0036162501,-0.0027160002,0.00617975,1741839270.780658
0.25425,0.05475,0.122,-0.00352475,-0.00328075,0.0062255003,1741839270.7934248
0.251,0.05975,0.168,-0.0022125002,-0.00267025,0.0046539996,1741839270.807959
0.2235,0.06475,0.31525,-0.00201425,-0.00198375,0.0028074998,1741839270.822422
0.20875,0.0685,0.42525,-0.00228875,-0.00096125,-0.0023039998,1741839270.8370402
0.20975,0.04625,0.613,-0.00148,0.00068675,-0.0060577504,1741839270.851595
0.2145,0.00225,0.62275,0.0019225,0.0125275,-0.0093995,1741839270.866028
0.1965,-0.072,0.56675,0.002655,0.02076725,-0.00505075,1741839270.881074
0.1825,-0.0385,0.555,0.00030525,0.027298,0.008026,1741839270.89505
0.166,0.103,0.447,-0.0037385002,0.028991751,0.0095672505,1741839270.909537
0.15725,0.1255,0.31775,-0.0077972496,0.032318,0.005005,1741839270.924054
0.17275,0.0025,-0.04525,-0.0035704998,0.037170503,-0.01640325,1741839270.940296
0.1935,-0.06025,-0.23425,0.0050812503,0.03692625,-0.02418525,1741839270.953233
0.21075,-0.06475,-0.38775,0.0156555,0.03323375,-0.022766002,1741839270.96784
0.21275,0.036,-0.55475,0.012680001,0.0290985,-0.0177155,1741839270.982435
0.20075,0.082,-0.586,0.0074615004,0.02079775,-0.014572251,1741839270.996969
0.18475,0.10675,-0.61725,0.00767525,0.018188499,-0.016739,1741839271.012518
0.179,0.09825,-0.62125,0.006363,0.011398249,-0.01741025,1741839271.0259368
0.179,0.071,-0.55,0.00538625,0.0056609996,-0.01576225,1741839271.0414422
0.18525,0.04625,-0.46975,0.00402825,-0.0076295,-0.01193225,1741839271.055156
0.20225,-0.037,-0.247,0.0030975002,-0.0133667495,-0.010528499,1741839271.071091
0.2205,-0.0885,-0.11925,0.00367725,-0.019012501,-0.007019,1741839271.0845618
0.266,-0.14,0.06475,0.0059510004,-0.01799,-0.0045165,1741839271.100629
0.278,-0.1345,0.099,0.0062712496,-0.00924675,0.0026854998,1741839271.113606
0.27475,-0.08625,0.09125,0.00469975,-0.0046845004,0.0060425,1741839271.1281621
0.262,-0.0515,0.06275,0.0039825,-0.00163275,0.00782775,1741839271.1426198
0.24525,-0.01575,0.0275,0.0048979996,0.0007325,0.00688175,1741839271.157069
0.213,0.03975,-0.03675,0.0047607496,0.00074775,0.0055695,1741839271.171856
0.20475,0.0535,-0.059,0.0026092501,-7.625e-05,0.00328075,1741839271.18652
0.21125,0.056,-0.08625,0.00177,-0.0007325,0.00204475,1741839271.201142
0.22,0.04725,-0.08925,0.00112925,-0.00289925,-0.00048825,1741839271.215849
0.24225,0.02225,-0.0735,0.00099175,-0.00428775,-0.0013580001,1741839271.231443
0.2525,0.0095,-0.061,0.0011445,-0.0064239996,-0.001892,1741839271.2449129
0.2665,-0.0075,-0.033,0.0012207499,-0.00668325,-0.001419,1741839271.2597451
0.269,-0.0105,-0.02075,0.00067150005,-0.00514225,0.0,1741839271.274337
0.2655,-0.01975,-0.01825,0.00030525,-0.0037537501,0.00048825,1741839271.288939
0.26125,-0.02925,-0.028,-7.625e-05,-0.0017242499,0.002121,1741839271.303537
0.25375,-0.03375,-0.049,-0.00036625,-0.0013885,0.003662,1741839271.318219
0.2505,-0.0245,-0.05575,-0.0011445,-0.0017852499,0.00668325,1741839271.332843
0.24575,0.00225,-0.05675,-0.00112925,-0.00213625,0.0072632497,1741839271.347473
0.24425,0.0095,-0.05,-0.00064075,-0.0024414998,0.0068207504,1741839271.363214
0.24425,0.0195,-0.035,-0.00090025004,-0.00190725,0.0065307496,1741839271.376705
0.24325,0.029,-0.03125,-0.00105275,-0.00115975,0.0058287503,1741839271.39131
0.2405,0.02825,-0.031,-0.00042725,-0.00102225,0.00328075,1741839271.405878
0.2335,0.00675,-0.04025,-0.0009155,-0.00149525,0.0030669998,1741839271.420508
0.2305,0.0015,-0.04625,-0.002655,-0.002472,0.00460825,1741839271.43504
0.22825,0.00875,-0.0465,-0.0026245,-0.00292975,0.00491325,1741839271.4505742
0.231,0.01525,-0.0395,-0.0013275,-0.00494375,0.0035095,1741839271.464233
0.24325,0.01825,-0.02425,-0.0007935,-0.00593575,0.00225825,1741839271.478706
0.248,0.0125,-0.0195,3.0500001e-05,-0.0063477503,7.625e-05,1741839271.4930902
0.2485,-0.00275,-0.0175,-0.00080875,-0.00567625,0.00042725,1741839271.5078862
0.2495,-0.00525,-0.016,-0.0042572496,-0.0049742498,0.0029449998,1741839271.522542
0.24775,-0.002,-0.0125,-0.004776,-0.0049742498,0.00372325,1741839271.53724
0.248,0.00275,-0.01025,-0.00305175,-0.00463875,0.00325,1741839271.551735
0.253,0.01125,-0.0015,-0.001648,-0.0047912505,0.002121,1741839271.5662389
0.25625,0.009,0.00425,-0.00039675,-0.0050355,0.00019825,1741839271.580727
0.25775,-0.00225,0.01175,-0.0013885,-0.0043182503,0.00083925005,1741839271.5952399
0.254,-0.0015,0.009,-0.002884,-0.0030365,0.00254825,1741839271.609888
0.24775,0.006,0.00175,-0.0052642496,0.00030525,0.006073,1741839271.624254
0.23475,0.02425,-0.015,-0.00494375,0.00143425,0.0059967497,1741839271.638731
0.22925,0.028,-0.02075,-0.001114,0.0003815,0.001526,1741839271.6531541
0.22875,0.02275,-0.01525,0.000183,-0.0013580001,-0.0005645,1741839271.667734
0.234,0.018,-0.00475,-0.00181575,-0.00364675,0.000183,1741839271.682256
0.243,0.01,0.01225,-0.00413525,-0.003418,0.0024414998,1741839271.696681
0.2425,0.01075,0.0115,-0.00567625,-0.00177,0.00546275,1741839271.711166
0.24025,0.02025,0.00675,-0.004303,-0.001587,0.005005,1741839271.7255838
0.24125,0.0265,0.0065,-0.00148,-0.002243,0.00308225,1741839271.740512
0.2485,0.035,0.0155,-0.0014037499,-0.00245675,0.002777,1741839271.754623
0.256,0.0345,0.0255,-0.0021515,-0.0025940002,0.0029755002,1741839271.769106
0.2645,0.03025,0.0345,-0.004547,-0.0023497501,0.0043944996,1741839271.783625
0.27225,0.029,0.035,-0.0050812503,-0.0015105,0.0050202496,1741839271.798162
0.26925,0.03325,0.027,-0.0042115003,0.000946,0.0048065,1741839271.812613
0.25825,0.04725,0.0095,-0.00358575,0.0017242499,0.004074,1741839271.8270562
0.254,0.055,0.008,-0.00242625,0.0010375,0.00193775,1741839271.841598
0.24575,0.06025,0.01375,-0.00267025,4.575e-05,0.00102225,1741839271.856048
0.24225,0.05225,0.01975,-0.006836,-0.00157175,0.001587,1741839271.870946
0.2385,0.035,0.051,-0.008346501,-0.00216675,0.0027160002,1741839271.885113
0.2445,0.03825,0.08375,-0.00460825,-0.0047150003,0.00289925,1741839271.90027
0.265,0.05575,0.1865,-0.000946,-0.0065612504,0.00143425,1741839271.914109
0.27475,0.0535,0.26375,0.0021057501,-0.008270251,-0.00077825,1741839271.92875
0.266,0.02525,0.44125,0.004593,-0.010604749,-0.0058135,1741839271.9433012
0.27,0.00625,0.51025,0.00384525,-0.0102235,-0.0077667497,1741839271.957802
0.28425,-0.02625,0.53325,0.0022735,-0.0013885,-0.006668,1741839271.9724002
0.2385,-0.04225,0.43575,0.0013885,0.0058135,-0.00131225,1741839271.986964
0.1885,0.0005,0.3905,-0.000885,0.0125885,0.00968925,1741839272.001292
0.1615,0.0625,0.32725,-0.00160225,0.013351499,0.010818499,1741839272.01573
0.19125,0.054,0.2635,0.00308225,0.020904498,0.002777,1741839272.031004
0.23325,0.0255,0.04575,0.0069580004,0.02601625,-0.0020295,1741839272.044616
0.23525,0.0335,-0.06325,0.007599,0.032409754,-0.004242,1741839272.0591629
0.17375,0.07875,-0.244,0.0075225,0.03338625,-0.005844,1741839272.073587
0.131,0.08375,-0.3305,0.010498,0.0312195,-0.013564999,1741839272.088115
0.10975,0.07375,-0.4815,0.012039251,0.0274505,-0.01651,1741839272.102693
0.12425,0.08275,-0.52675,0.012436,0.022338752,-0.01734925,1741839272.117203
0.1345,0.0955,-0.5475,0.008255,0.01165775,-0.014663749,1741839272.1315682
0.141,0.08425,-0.52025,0.0060577504,0.00617975,-0.0136565,1741839272.146134
0.144,0.0635,-0.484,0.0040435,-0.0056,-0.01266475,1741839272.160704
0.168,0.00425,-0.34075,0.003128,-0.012024,-0.011764499,1741839272.175425
0.19375,-0.0335,-0.229,0.00198375,-0.02153025,-0.0081025,1741839272.191353
0.256,-0.0855,-0.01,0.0022735,-0.02174375,-0.00535575,1741839272.204861
0.2765,-0.09475,0.053,0.00054925,-0.013351499,0.00190725,1741839272.220394
0.2815,-0.07625,0.06775,-0.00149525,-0.00788875,0.0056915004,1741839272.2339609
0.2785,-0.0465,0.05125,0.00074775,-0.0029449998,0.0074615004,1741839272.248448
0.277,0.021,0.018,0.004303,-0.00334175,0.00505075,1741839272.263572
0.2735,0.04475,0.0035,0.0062407497,-0.00358575,0.0004425,1741839272.277303
0.259,0.0675,-0.0255,0.00440975,-0.0026245,-0.00029,1741839272.2919428
0.24925,0.071,-0.0415,0.0020295,-0.00143425,-0.0005035,1741839272.3065312
0.2345,0.054,-0.072,-0.0004425,-0.0002595,-0.0020295,1741839272.321366
0.2305,0.03525,-0.0815,-0.00036625,-0.00062550005,-0.0031127501,1741839272.336148
0.2345,0.00525,-0.06775,-9.15e-05,-0.0025634998,-0.00325,1741839272.3509529
0.23825,-0.0015,-0.052,-0.000122000005,-0.0036162501,-0.0024872501,1741839272.3656662
0.241,-0.0055,-0.0375,-0.0016175,-0.0042267498,7.625e-05,1741839272.380856
0.242,-0.00525,-0.026,-0.0024414998,-0.00352475,0.0012817499,1741839272.3949409
0.2405,-0.004,-0.032,-0.0026245,-0.0020599999,0.00228875,1741839272.409607
0.23575,-0.00325,-0.052,-0.0022277501,-0.0019989999,0.00242625,1741839272.424423
0.236,-0.00075,-0.05325,-0.0015565,-0.00325,0.002884,1741839272.439351
0.24175,0.01325,-0.0365,-0.00149525,-0.00408925,0.0031889998,1741839272.453818
0.2445,0.02125,-0.02925,-0.0019225,-0.004486,0.00292975,1741839272.468411
0.242,0.02725,-0.03225,-0.0023345,-0.0040587503,0.00231925,1741839272.482955
0.2395,0.022,-0.039,-0.0041810004,-0.00308225,0.00184625,1741839272.497524
0.23425,0.01,-0.05275,-0.0048674997,-0.0029449998,0.0022735,1741839272.513511
0.23375,0.01425,-0.053,-0.00514225,-0.00390625,0.0029145,1741839272.5268621
0.2375,0.02675,-0.03475,-0.005005,-0.00494375,0.002655,1741839272.541425
0.24225,0.028,-0.021,-0.00463875,-0.0065917503,0.0012970001,1741839272.5560498
0.24475,0.02,-0.0075,-0.004593,-0.00662225,0.00054925,1741839272.5711732
0.24175,0.0125,-0.01025,-0.0056915004,-0.00520325,0.00039675,1741839272.585629
0.23675,-0.0025,-0.02175,-0.00579825,-0.00488275,0.0009155,1741839272.600616
0.2375,-0.00775,-0.0215,-0.005005,-0.0052337497,0.00137325,1741839272.615011
0.248,-0.0065,-0.00425,-0.00216675,-0.0067445002,0.001953,1741839272.631071
0.25275,0.00475,0.00825,-0.000946,-0.0072175004,0.0020599999,1741839272.644508
0.25975,0.02575,0.029,-0.000885,-0.0074004997,0.00160225,1741839272.659138
0.26025,0.02175,0.03025,-0.0026854998,-0.00671375,0.00163275,1741839272.6738272
0.2555,0.01225,0.0235,-0.0054475004,-0.0035095,0.0021972498,1741839272.688288
0.24125,-0.002,0.0005,-0.00541675,-0.002243,0.0023039998,1741839272.702962
0.23775,-0.00225,-0.0065,-0.0034484998,-0.0029755002,0.00239575,1741839272.717667
0.24475,0.0065,0.007,-0.00157175,-0.004837,0.0020752498,1741839272.7322218
0.251,0.0115,0.02125,4.575e-05,-0.0074615004,0.0017852499,1741839272.746586
0.25375,0.01875,0.0385,-0.001526,-0.0070342496,0.0026092501,1741839272.7631192
0.252,0.022,0.039,-0.00491325,-0.0038299998,0.0043182503,1741839272.775796
0.245,0.02625,0.026,-0.0047150003,-0.0023497501,0.00372325,1741839272.790773
0.2405,0.0255,0.0175,-0.0028687501,-0.0022277501,0.00102225,1741839272.80481
0.23625,0.01325,0.014,-0.0024872501,-0.00334175,0.000412,1741839272.820238
0.23975,0.0075,0.02175,-0.00292975,-0.0054015,0.001587,1741839272.833848
0.2485,0.0155,0.0365,-0.0036315,-0.00541675,0.002884,1741839272.848345
0.2465,0.0265,0.03675,-0.00444025,-0.0047302498,0.003952,1741839272.863075
0.24325,0.03425,0.035,-0.0045777503,-0.003006,0.0034484998,1741839272.877373
0.2375,0.033,0.02875,-0.0031585,-0.0027312501,0.00181575,1741839272.891815
0.23425,0.0275,0.02225,-0.00086975005,-0.00331125,-0.00036625,1741839272.9065459
0.22875,0.0225,0.01575,-0.00146475,-0.003891,0.00036625,1741839272.921143
0.22725,0.02375,0.01725,-0.00444025,-0.0047912505,0.0036010002,1741839272.935715
0.226,0.0305,0.02375,-0.0051880004,-0.0050202496,0.00437925,1741839272.950763
0.2245,0.03275,0.0255,-0.003769,-0.00585925,0.0029907501,1741839272.964739
0.22475,0.036,0.03125,-0.00276175,-0.0064239996,0.0019685,1741839272.9810371
0.2265,0.03875,0.03925,-0.0020752498,-0.0075225,0.0014495,1741839272.9936872
0.2305,0.045,0.069,-0.0026245,-0.0079955,0.0022125002,1741839273.008116
0.236,0.04875,0.09025,-0.0036010002,-0.0088195,0.0037537501,1741839273.022701
0.25825,0.06375,0.18,-0.002884,-0.009002751,0.0031889998,1741839273.037345
0.28025,0.085,0.26125,-0.0012055,-0.009094249,0.0012055,1741839273.0518148
0.309,0.09875,0.3635,0.0012055,-0.009079001,-0.0060577504,1741839273.066293
0.40375,0.065,0.634,0.00292975,-0.008194,-0.010162249,1741839273.081286
0.451,0.03125,0.75275,0.011795,0.0047302498,-0.01504525,1741839273.095242
0.416,-0.011,0.76425,0.01408375,0.01741025,-0.01266475,1741839273.109855
0.34,0.00025,0.7045,0.01062,0.03756725,-0.0044707498,1741839273.124191
0.18025,0.0115,0.5715,0.01077275,0.04190075,-0.0050965,1741839273.138727
0.137,0.0055,0.4905,0.0158845,0.0483855,-0.012252751,1741839273.153236
0.06675,0.031,0.1125,0.015854,0.05464175,-0.0139770005,1741839273.167501
0.02225,0.0615,-0.14575,0.01036075,0.059570253,-0.010727,1741839273.182127
-0.0495,0.14675,-0.5605,0.009872501,0.0540925,-0.010253999,1741839273.1968691
-0.07625,0.1915,-0.72,0.010803251,0.045654252,-0.0128785,1741839273.211466
-0.09625,0.19775,-0.92725,0.011734,0.02545175,-0.02171325,1741839273.226151
-0.08225,0.161,-0.9535,0.009842,0.015228249,-0.022812,1741839273.240766
-0.04875,0.108,-0.9095,0.00051875,-0.0057372497,-0.015854,1741839273.255448
0.0505,-0.04225,-0.63125,-0.0012055,-0.017181499,-0.012024,1741839273.270887
0.10675,-0.1205,-0.4035,0.0011445,-0.03489675,-0.0042572496,1741839273.2849479
0.25475,-0.222,0.07575,0.00163275,-0.035492,0.0009155,1741839273.300643
0.31675,-0.22975,0.20775,-0.00093075,-0.0199585,0.0119934995,1741839273.314135
0.38475,-0.14025,0.24575,-0.0002135,-0.010894749,0.014145001,1741839273.328724
0.37775,-0.0715,0.1885,0.00720225,-0.000122000005,0.00846875,1741839273.343235
0.30075,0.04025,0.0245,0.008026,0.00308225,0.00538625,1741839273.357804
0.25775,0.08,-0.046,0.00369275,0.00463875,0.002365,1741839273.372276
0.207,0.10875,-0.12425,0.0030975002,0.0024872501,-0.00036625,1741839273.386774
0.20125,0.0865,-0.1355,0.0063325,-0.003128,-0.007431,1741839273.401591
0.21625,0.01525,-0.10175,0.0065307496,-0.0047455,-0.007965,1741839273.41622
0.22825,-0.011,-0.0705,0.0018005001,-0.005005,-0.00238025,1741839273.431572
0.2415,-0.036,-0.02775,-0.00045775,-0.00393675,0.00086975005,1741839273.4458392
0.2415,-0.03675,-0.02325,-0.0012817499,-1.5250001e-05,0.0045165,1741839273.4605172
0.235,-0.01225,-0.029,-0.00074775,0.00163275,0.00505075,1741839273.4751308
0.2315,0.001,-0.0375,-0.000473,0.0022277501,0.0047912505,1741839273.491316
0.233,0.00275,-0.05625,-0.0013580001,0.00108325,0.00364675,1741839273.5043871
0.23425,0.00125,-0.064,-0.001587,0.0001525,0.0034790002,1741839273.52071
0.23575,0.0015,-0.06825,-0.0013427499,-0.00181575,0.0036010002,1741839273.533707
0.23425,0.00275,-0.0695,-0.00125125,-0.0027160002,0.0036162501,1741839273.5483148
0.23275,0.00575,-0.06275,-0.0011445,-0.0038605002,0.0037079998,1741839273.563568
0.238,0.0195,-0.03375,-0.00105275,-0.0041044997,0.0032347501,1741839273.577496
0.2435,0.0155,-0.02275,-0.00251775,-0.00314325,0.002472,1741839273.592105
0.245,0.009,-0.02525,-0.004013,-0.00177,0.0029907501,1741839273.606689
0.2415,0.01,-0.0325,-0.006302,0.00042725,0.0038299998,1741839273.621192
0.24,0.009,-0.03725,-0.00640875,9.15e-05,0.00367725,1741839273.635714
0.2425,0.011,-0.03075,-0.00381475,-0.003006,0.0017395001,1741839273.650683
0.2445,0.01775,-0.0115,-0.0025634998,-0.0045165,0.000229,1741839273.6650171
0.24775,0.013,0.0015,-0.00325,-0.0053252503,-0.00074775,1741839273.6810591
0.2515,-0.00075,0.00925,-0.0042572496,-0.00419625,-0.00029,1741839273.694327
0.24825,-0.00325,-0.003,-0.00543225,-0.0011445,0.00057975,1741839273.709025
0.241,-0.00375,-0.0295,-0.00585925,-0.00048825,0.00119025,1741839273.723706
0.243,-0.00175,-0.03175,-0.0056,-0.00109875,0.0015565,1741839273.738427
0.2535,0.00525,-0.014,-0.00292975,-0.0050812503,0.00070200005,1741839273.7530382
0.26,0.00575,-0.0015,-0.002533,-0.0065765,0.0004425,1741839273.767613
0.2655,0.00525,0.009,-0.004303,-0.00555425,0.00177,1741839273.782091
0.26025,0.006,0.00525,-0.00505075,-0.0034942501,0.00238025,1741839273.796733
0.25175,0.00425,-0.0085,-0.0050965,-0.0003815,0.0025025,1741839273.812646
0.2395,-0.0005,-0.034,-0.00440975,-0.0002135,0.0024414998,1741839273.826037
0.2365,0.00425,-0.04025,-0.00228875,-0.00245675,0.0022277501,1741839273.841274
0.2375,0.0155,-0.02975,-0.00201425,-0.0042725,0.0019989999,1741839273.8554099
0.2435,0.01075,-0.015,-0.00289925,-0.00617975,0.001709,1741839273.871027
0.25075,-0.0035,0.00125,-0.002777,-0.0056,0.0017395001,1741839273.884577
0.249,-0.00525,-0.0015,-0.0025787498,-0.0032195,0.0029449998,1741839273.9005709
0.23975,0.00675,-0.015,-0.0028535,-0.0026245,0.00396725,1741839273.914191
0.23425,0.016,-0.02075,-0.0029755002,-0.00355525,0.0045777503,1741839273.9289038
0.23,0.02175,-0.0235,-0.00267025,-0.0047912505,0.00381475,1741839273.9435022
0.23125,0.01475,-0.019,-0.0021057501,-0.007431,0.0019989999,1741839273.9580858
0.24,0.0015,0.00525,-0.00204475,-0.008209251,0.001892,1741839273.972579
0.24375,0.007,0.0175,-0.001892,-0.008209251,0.002243,1741839273.9870322
0.24075,0.02175,0.018,-0.0022735,-0.0068055,0.0032347501,1741839274.001591
0.23625,0.01975,0.012,-0.0029907501,-0.00617975,0.0034484998,1741839274.016132
0.23125,0.01275,0.0065,-0.00328075,-0.00640875,0.00308225,1741839274.031407
0.22275,0.0055,0.00175,-0.00320425,-0.00717175,0.0033570002,1741839274.045082
0.22125,0.011,0.0065,-0.0032347501,-0.0084379995,0.00437925,1741839274.0594912
0.23,0.02075,0.0295,-0.0027160002,-0.00883475,0.0039215,1741839274.074144
0.23725,0.01975,0.0425,-0.0013275,-0.00924675,0.0019225,1741839274.088662
0.2455,0.01525,0.0565,-0.001175,-0.009231499,0.00148,1741839274.1034381
0.24925,0.0115,0.059,-0.001526,-0.008651749,0.002243,1741839274.1178901
0.2515,0.0145,0.05675,-0.0014037499,-0.008072,0.003006,1741839274.1324039
0.25075,0.02375,0.05975,-0.0013885,-0.00672925,0.0049590003,1741839274.1468759
0.24975,0.04525,0.075,-0.00181575,-0.0068055,0.0055237496,1741839274.162099
0.252,0.0525,0.085,-0.0020752498,-0.00741575,0.0054015,1741839274.1762052
0.2675,0.061,0.11875,-0.00154125,-0.0081025,0.0035095,1741839274.1911209
0.28125,0.06175,0.149,-0.00102225,-0.00767525,0.0021057501,1741839274.204965
0.29625,0.06325,0.1905,0.001236,-0.0060882503,-0.0019989999,1741839274.220324
0.32925,0.066,0.30675,0.002365,-0.0043182503,-0.0041044997,1741839274.234111
0.347,0.0535,0.36825,0.00334175,0.001587,-0.0085755,1741839274.248551
0.37225,-0.013,0.4845,0.00352475,0.0047302498,-0.011031999,1741839274.264174
0.3845,-0.05575,0.5475,0.00555425,0.01115425,-0.0100555,1741839274.277815
0.3665,-0.091,0.64025,0.0065765,0.017028749,-0.00514225,1741839274.292266
0.32675,-0.06075,0.64525,0.0037537501,0.03273,0.005783,1741839274.306696
0.23625,0.028,0.54425,0.00402825,0.039382998,0.00691225,1741839274.321236
0.1875,0.05325,0.428,0.00833125,0.047592252,0.00146475,1741839274.335351
0.09525,0.0665,0.11175,0.01013175,0.049942,-0.0020599999,1741839274.350685
0.062,0.07175,-0.0595,0.01322925,0.051361,-0.00708,1741839274.364481
0.0385,0.09325,-0.234,0.02064525,0.05043025,-0.01661675,1741839274.38094
-0.02525,0.18675,-0.598,0.0188445,0.0484315,-0.01678475,1741839274.393802
-0.069,0.242,-0.752,0.010589501,0.0385285,-0.016922,1741839274.4083278
-0.11425,0.2775,-0.907,0.006775,0.02835075,-0.0190735,1741839274.4230342
-0.09525,0.21725,-0.886,0.0019989999,0.002243,-0.023773251,1741839274.437679
0.00625,-0.01175,-0.62225,0.0031889998,-0.011184749,-0.02516175,1741839274.452367
0.08375,-0.131,-0.4005,0.00672925,-0.030655,-0.01991275,1741839274.467019
0.235,-0.2935,-0.00875,0.004486,-0.03070075,-0.009948749,1741839274.4818501
0.28775,-0.28175,0.083,-0.00408925,-0.01239025,0.014160249,1741839274.496383
0.33975,-0.12375,0.1005,-0.0034942501,-0.0040587503,0.018875,1741839274.510974
0.33775,-0.0295,0.069,0.00791925,0.000229,0.0104065,1741839274.525422
0.292,0.08175,-0.011,0.01036075,0.000473,0.0045012496,1741839274.5404658
0.26275,0.09625,-0.05375,0.00494375,0.0020295,-0.0002135,1741839274.554506
0.21775,0.0895,-0.11675,0.00201425,0.00099175,-0.0011445,1741839274.569003
0.20875,0.06875,-0.12225,0.0015565,-0.0020295,-0.00340275,1741839274.5835881
0.20925,0.00525,-0.098,0.0047150003,-0.008727999,-0.00880425,1741839274.598201
0.21625,-0.0245,-0.08,0.004837,-0.009887749,-0.008545,1741839274.612853
0.22325,-0.04225,-0.0665,0.00198375,-0.008651749,-0.00263975,1741839274.627674
0.2265,-0.0365,-0.069,-1.5250001e-05,-0.0071105,0.00096125,1741839274.642263
0.225,-0.022,-0.08,-0.00289925,-0.0038605002,0.00567625,1741839274.657022
0.22425,0.00525,-0.10875,-0.00289925,-0.003662,0.0060425,1741839274.671592
0.228,0.01325,-0.1135,-0.001236,-0.007843,0.00463875,1741839274.686208
0.24175,0.008,-0.0855,-0.001175,-0.010299751,0.004547,1741839274.7007942
0.24725,0.0045,-0.0665,-0.00216675,-0.0117035,0.0061339997,1741839274.715394
0.2545,0.012,-0.04,-0.00263975,-0.01142875,0.00665275,1741839274.730925
0.25225,0.0165,-0.03625,-0.0047912505,-0.00817875,0.00712575,1741839274.744589
0.23725,0.01725,-0.04425,-0.0057677496,-0.0059815003,0.007019,1741839274.759181
0.22575,0.01525,-0.055,-0.00614925,-0.0047302498,0.006012,1741839274.773806
0.216,0.02125,-0.06175,-0.00631725,-0.0061035,0.00543225,1741839274.788408
0.22125,0.02375,-0.05025,-0.0060882503,-0.01042175,0.00390625,1741839274.803017
0.24125,0.02225,-0.00125,-0.0050355,-0.01239025,0.00283825,1741839274.81762
0.2505,0.022,0.02475,-0.003891,-0.013778751,0.00163275,1741839274.832052
0.25575,0.02,0.0405,-0.00419625,-0.012756251,0.0004425,1741839274.846539
0.2555,0.0135,0.04025,-0.0052337497,-0.01065075,0.00042725,1741839274.8609998
0.25225,0.0125,0.02925,-0.0060882503,-0.0060425,0.0001525,1741839274.875604
0.2355,0.01225,-0.00075,-0.00617975,-0.0046845004,0.00013725001,1741839274.8911831
0.229,0.0105,-0.00925,-0.007309,-0.0049590003,0.00112925,1741839274.904831
0.225,0.007,-0.0095,-0.0076599997,-0.0063477503,0.00184625,1741839274.921004
0.22625,0.00375,-0.006,-0.008606,-0.009231499,0.0036315,1741839274.93389
0.2345,0.0035,0.0155,-0.008773751,-0.009658749,0.0043639997,1741839274.9484851
0.23875,0.0075,0.02325,-0.00611875,-0.008346501,0.0030669998,1741839274.963289
0.24275,0.01075,0.0215,-0.00437925,-0.0076599997,0.00157175,1741839274.9773922
0.245,0.0085,0.0215,-0.0031585,-0.0075225,0.00042725,1741839274.991881
0.2495,-0.00075,0.02675,-0.00334175,-0.00788875,0.00086975005,1741839275.006656
0.251,-0.00425,0.02875,-0.0037537501,-0.008361749,0.0016632499,1741839275.021296
0.25125,0.0025,0.028,-0.0051880004,-0.009231499,0.00416575,1741839275.035865
0.25125,0.01275,0.029,-0.0059205,-0.009216251,0.005539,1741839275.050925
0.25025,0.02475,0.02975,-0.00590525,-0.008545,0.0054475004,1741839275.06492
0.24475,0.02925,0.03125,-0.00538625,-0.008224499,0.00390625,1741839275.081171
0.246,0.02,0.03575,-0.0048979996,-0.0072937496,0.0022277501,1741839275.094012
0.242,0.00625,0.032,-0.0053709997,-0.006546,0.003006,1741839275.10845
0.238,0.00525,0.02625,-0.0060272496,-0.0053709997,0.00543225,1741839275.1229491
0.23775,0.01625,0.024,-0.00514225,-0.0052642496,0.0057677496,1741839275.1375191
0.2395,0.02775,0.028,-0.0036162501,-0.0057525,0.0054932497,1741839275.151985
0.247,0.0455,0.0435,-0.0040435,-0.006012,0.00555425,1741839275.166611
0.25225,0.05175,0.05075,-0.0053405,-0.0058135,0.00514225,1741839275.1811562
0.259,0.0565,0.059,-0.0060882503,-0.0053252503,0.00453175,1741839275.19564
0.25875,0.052,0.0605,-0.00643925,-0.00505075,0.0034790002,1741839275.210171
0.25075,0.035,0.0595,-0.005005,-0.0049590003,0.0007325,1741839275.224769
0.24525,0.02875,0.06,-0.0043335,-0.0047912505,0.00019825,1741839275.240313
0.2435,0.02825,0.06925,-0.004074,-0.0043335,0.001068,1741839275.253912
0.249,0.03925,0.10825,-0.00355525,-0.0045165,0.0012665,1741839275.26848
0.2515,0.045,0.133,-0.00317375,-0.00463875,0.00148,1741839275.283042
0.2575,0.05625,0.19775,-0.00334175,-0.00428775,0.0015105,1741839275.297608
0.26175,0.06075,0.24975,-0.0019685,-0.0041044997,0.0003205,1741839275.3134751
0.279,0.0695,0.4305,-0.0002595,-0.00469975,-0.00099175,1741839275.3265631
0.284,0.0585,0.544,0.0060882503,-0.0033570002,-0.006775,1741839275.341019
0.29075,-0.00125,0.7295,0.010604749,-0.00027475,-0.01092525,1741839275.355571
0.304,-0.0465,0.78625,0.01646425,0.012054499,-0.012985251,1741839275.37099
0.23625,-0.09675,0.726,0.01419075,0.02336125,-0.00712575,1741839275.384458
0.14325,-0.071,0.5925,0.007843,0.037597753,0.0020752498,1741839275.4005098
0.03275,0.005,0.26175,3.0500001e-05,0.0568695,0.010314999,1741839275.413437
0.045,0.002,0.087,0.0034942501,0.05644225,0.0055847503,1741839275.427679
0.083,-0.007,-0.0915,0.01307675,0.05230725,-0.0049590003,1741839275.442314
0.11525,0.05625,-0.43975,0.015029999,0.05140675,-0.0063934997,1741839275.456893
0.10425,0.1095,-0.5805,0.0122985,0.044875998,-0.00590525,1741839275.471522
0.05075,0.2185,-0.81025,0.01054375,0.039810248,-0.0077210004,1741839275.4860559
0.03025,0.23825,-0.8755,0.00823975,0.02427675,-0.012634249,1741839275.500939
0.04625,0.19175,-0.81775,0.0081025,0.01222225,-0.01412975,1741839275.514936
0.078,0.15525,-0.6995,0.009658749,-0.014068499,-0.01475525,1741839275.531478
0.165,0.06275,-0.34275,0.009262,-0.022796748,-0.013992251,1741839275.5441868
0.216,0.00625,-0.1485,0.00564575,-0.028564502,-0.01098625,1741839275.558767
0.28,-0.111,0.091,0.003128,-0.02563475,-0.0076295,1741839275.573409
0.29875,-0.141,0.1375,0.00102225,-0.01927175,-0.00308225,1741839275.588032
0.31025,-0.1145,0.1485,0.0030669998,-0.005844,0.0012665,1741839275.6025631
0.29725,-0.0815,0.12225,0.0058899997,-0.0038299998,0.00065625,1741839275.617079
0.27725,-0.0485,0.084,0.006302,-0.0017242499,0.001526,1741839275.6315851
0.23425,0.02,-0.0025,0.0037385002,0.00125125,0.0031127501,1741839275.6459782
0.2195,0.0445,-0.0445,-0.00027475,0.00440975,0.003952,1741839275.660506
0.211,0.06275,-0.10525,-0.00042725,0.00402825,0.002472,1741839275.675071
0.213,0.06225,-0.11725,0.00112925,3.0500001e-05,-0.00071725,1741839275.68947
0.231,0.05575,-0.09275,0.001419,-0.002472,-0.00137325,1741839275.7041962
0.24125,0.04675,-0.0765,-4.575e-05,-0.0045625,-0.001236,1741839275.7204978
0.25125,0.02475,-0.059,-0.00148,-0.0042725,-0.00033575002,1741839275.733781
0.252,0.01775,-0.05425,-0.0039825,-0.00328075,0.00193775,1741839275.748379
0.24675,0.0025,-0.054,-0.0042572496,-0.00331125,0.0026245,1741839275.7631009
0.243,0.0035,-0.053,-0.0036315,-0.0047455,0.0030669998,1741839275.7777238
0.24325,0.01325,-0.032,-0.0032347501,-0.0052185003,0.0026245,1741839275.7922602
0.249,0.0105,-0.016,-0.00292975,-0.0052795,0.0020752498,1741839275.806923
0.2625,0.0065,0.00425,-0.00384525,-0.0039215,0.0023039998,1741839275.821397
0.2615,0.01075,-0.00075,-0.00494375,-0.0025787498,0.0029145,1741839275.835998
0.25475,0.0155,-0.0135,-0.0064545004,-0.00061025,0.00340275,1741839275.850985
0.23775,0.0145,-0.04425,-0.00637825,-0.0002135,0.0031127501,1741839275.865181
0.232,0.01425,-0.056,-0.0051269997,-0.00146475,0.0020295,1741839275.881471
0.23225,0.018,-0.05075,-0.00440975,-0.00328075,0.00146475,1741839275.8943849
0.2365,0.02025,-0.0345,-0.004776,-0.00631725,0.0013275,1741839275.9089642
0.24675,0.02075,-0.00575,-0.0060425,-0.0062407497,0.00187675,1741839275.923747
0.24775,0.02125,-0.0035,-0.008590749,-0.0037537501,0.00267025,1741839275.938398
0.23825,0.008,-0.0275,-0.008926501,-0.002655,0.0024414998,1741839275.952998
0.232,0.001,-0.043,-0.0071409997,-0.0033722501,0.0018005001,1741839275.967585
0.23,0.0065,-0.04625,-0.00596625,-0.00520325,0.00157175,1741839275.982165
0.23325,0.01075,-0.0345,-0.0049590003,-0.009002751,0.0011445,1741839275.996789
0.24475,0.01425,0.0065,-0.0050965,-0.009613,0.00125125,1741839276.011271
0.2535,0.0155,0.02725,-0.0052185003,-0.009002751,0.00146475,1741839276.025752
0.2595,0.01,0.0285,-0.0044250004,-0.0057525,0.0013275,1741839276.0414872
0.25425,0.0035,0.0115,-0.0046234997,-0.0042572496,0.00177,1741839276.0548391
0.25025,0.00125,-0.004,-0.0054475004,-0.0033722501,0.00440975,1741839276.070751
0.24625,0.027,-0.012,-0.00511175,-0.003662,0.00535575,1741839276.084023
0.2425,0.04125,-0.0115,-0.0061339997,-0.0034790002,0.0052795,1741839276.098563
0.21875,0.03725,-0.0285,-0.00770575,-0.0029907501,0.00505075,1741839276.11342
0.20775,0.02675,-0.03325,-0.008926501,-0.0039825,0.00413525,1741839276.127861
0.21375,0.00525,-0.006,-0.0069274995,-0.006256,0.00254825,1741839276.142493
0.228,-0.00375,0.0225,-0.00090025004,-0.010742251,-0.000229,1741839276.1572611
0.255,-0.01025,0.069,0.0004425,-0.010894749,4.575e-05,1741839276.171701
0.2615,-0.00725,0.0755,-0.00154125,-0.0070647504,0.00393675,1741839276.186422
0.2575,0.016,0.0615,-0.0037537501,-0.004776,0.0065307496,1741839276.200924
0.25175,0.0285,0.04875,-0.006836,-0.0021819999,0.0090485,1741839276.215416
0.24175,0.03425,0.022,-0.00614925,-0.00216675,0.0080415,1741839276.231234
0.23875,0.03225,0.0145,-0.0045777503,-0.0030975002,0.0062712496,1741839276.2446132
0.24925,0.03725,0.036,-0.002365,-0.0062712496,0.00334175,1741839276.259052
0.262,0.0445,0.0595,-0.00169375,-0.00708,0.0023345,1741839276.273664
0.27175,0.0515,0.074,-0.001236,-0.0047150003,0.00109875,1741839276.288207
0.264,0.05,0.058,-0.00254825,-0.00245675,0.0011445,1741839276.3027918
0.2535,0.04075,0.04175,-0.0061645,0.00077825,0.0021057501,1741839276.317187
0.2355,0.025,0.01125,-0.00643925,0.00108325,0.00231925,1741839276.3316638
0.231,0.02425,0.0025,-0.0053709997,-0.000946,0.00276175,1741839276.3461251
0.22825,0.04175,0.01125,-0.005783,-0.0025025,0.00381475,1741839276.36072
0.23025,0.05725,0.028,-0.0073242504,-0.00411975,0.0055695,1741839276.375131
0.23475,0.0765,0.0645,-0.0072632497,-0.00390625,0.0047150003,1741839276.39104
0.233,0.0755,0.081,-0.0058287503,-0.0032195,0.00096125,1741839276.404182
0.2385,0.0695,0.15475,-0.0050812503,-0.0034484998,-0.00045775,1741839276.4188092
0.24825,0.07725,0.22475,-0.0046845004,-0.0042725,-0.00105275,1741839276.433554
0.27475,0.1025,0.43275,-0.0051269997,-0.00744625,-0.00048825,1741839276.448169
0.2865,0.11025,0.54025,-0.0047302498,-0.00770575,-0.0009155,1741839276.463317
0.2975,0.08375,0.61725,-0.0016785001,0.00019825,-0.0059510004,1741839276.477449
0.26825,-0.00475,0.646,0.0013885,0.008712751,-0.00720225,1741839276.49203
0.23025,-0.00325,0.6095,0.00393675,0.024658252,-0.00181575,1741839276.5066948
0.16375,0.04,0.4435,0.00369275,0.029953,0.00125125,1741839276.5211241
0.14675,0.0485,0.29625,0.010238751,0.03538525,-0.00469975,1741839276.5353558
0.17075,0.02775,-0.07425,0.014358499,0.03648375,-0.010024999,1741839276.5507112
0.17425,0.03525,-0.25175,0.01367175,0.037445,-0.0099639995,1741839276.56449
0.1195,0.1145,-0.52875,0.01115425,0.03575125,-0.0073395,1741839276.5811589
0.091,0.1565,-0.62275,0.011078,0.02796925,-0.012085,1741839276.593803
0.0745,0.16325,-0.74125,0.011764499,0.021026501,-0.01708975,1741839276.608332
0.09325,0.118,-0.73675,0.007599,0.0024872501,-0.01832575,1741839276.622925
0.15125,0.03975,-0.57,0.0053709997,-0.007431,-0.014923001,1741839276.637471
0.18075,0.0115,-0.43175,0.003296,-0.0153807495,-0.01104725,1741839276.652066
0.2535,-0.0605,-0.12025,0.001953,-0.02227775,-0.0054780003,1741839276.666783
0.286,-0.09475,0.01175,0.0013885,-0.02064525,-0.0027312501,1741839276.6814148
0.30625,-0.115,0.098,-0.0028074998,-0.007782,0.0049285004,1741839276.696005
0.316,-0.095,0.13225,-0.00279225,-0.00086975005,0.0068969997,1741839276.710547
0.31125,-0.06175,0.1105,0.0047302498,0.00546275,0.003296,1741839276.725002
0.278,0.01375,0.0385,0.00741575,0.0064850003,0.00062550005,1741839276.739285
0.257,0.03925,-0.002,0.0054015,0.008224499,-0.00061025,1741839276.753883
0.216,0.072,-0.086,0.00372325,0.0080567505,-0.00074775,1741839276.768415
0.20375,0.0785,-0.1195,0.0038299998,0.003952,-0.0037537501,1741839276.78319
0.2055,0.0565,-0.14225,0.0047302498,0.0011445,-0.0057525,1741839276.797746
0.213,0.03725,-0.13025,0.0047607496,-0.00314325,-0.006607,1741839276.813598
0.23175,0.00475,-0.08775,0.0042725,-0.0042267498,-0.00567625,1741839276.826931
0.24,-0.0085,-0.07175,0.0037537501,-0.00408925,-0.0030975002,1741839276.8417978
0.2405,-0.0125,-0.0615,0.00320425,-0.00343325,-0.0013885,1741839276.856353
0.23575,-0.00475,-0.063,0.0017852499,-0.0029755002,0.00051875,1741839276.871097
0.22725,-0.00275,-0.0745,-0.00201425,-0.00331125,0.00325,1741839276.885709
0.22525,-0.008,-0.0795,-0.00254825,-0.004303,0.0037385002,1741839276.900862
0.22825,-0.0125,-0.07575,-0.00086975005,-0.00833125,0.00453175,1741839276.9151769
0.2485,0.008,-0.03925,0.0002135,-0.0106355,0.004837,1741839276.931416
0.25975,0.02425,-0.015,0.0013427499,-0.01266475,0.00354,1741839276.944282
0.27025,0.04,0.02025,0.00096125,-0.011398249,0.00245675,1741839276.958699
0.264,0.04075,0.01575,-0.00251775,-0.0057677496,0.0015105,1741839276.973269
0.2405,0.028,-0.02025,-0.00463875,-0.0031585,0.001892,1741839276.987892
0.23225,0.027,-0.0325,-0.004776,-0.0026092501,0.00177,1741839277.002496
0.22775,0.03225,-0.02675,-0.0035704998,-0.00428775,0.001007,1741839277.017175
0.22875,0.03225,-0.01525,-0.00369275,-0.0075835,0.00068675,1741839277.031907
0.23825,0.021,0.0125,-0.0055237496,-0.00817875,0.0013275,1741839277.046405
0.24175,0.01275,0.01775,-0.0076142503,-0.006256,0.002411,1741839277.060898
0.2405,0.00575,0.009,-0.0070647504,-0.0043639997,0.0025025,1741839277.075393
0.23625,0.0125,-0.00175,-0.0055695,-0.0027312501,0.0021819999,1741839277.0909839
0.23225,0.03075,-0.01725,-0.0020752498,-0.003006,0.00086975005,1741839277.104567
0.2345,0.02875,-0.01225,-0.00187675,-0.0049742498,0.00061025,1741839277.120636
0.24,0.022,-0.002,-0.0037079998,-0.008316,0.00108325,1741839277.1337779
0.2495,0.006,0.022,-0.0045165,-0.008773751,0.00148,1741839277.148297
0.2505,-0.00075,0.0285,-0.00485225,-0.0074615004,0.00231925,1741839277.162842
0.2485,0.0025,0.03075,-0.00416575,-0.00621025,0.002655,1741839277.177369
0.24825,0.01325,0.03,-0.00181575,-0.0044707498,0.00238025,1741839277.1918652
0.247,0.0255,0.02425,-0.0016632499,-0.00437925,0.0019225,1741839277.206391
0.247,0.02,0.02075,-0.00485225,-0.0050812503,0.0028229998,1741839277.221142
0.244,0.01375,0.01525,-0.0062712496,-0.00543225,0.00396725,1741839277.23549
0.2405,0.021,0.01225,-0.0064545004,-0.0057220003,0.0049285004,1741839277.250685
0.241,0.03925,0.0235,-0.0047607496,-0.0059205,0.0036010002,1741839277.264586
0.2405,0.044,0.029,-0.00080875,-0.0067902496,-0.0019685,1741839277.280979
0.24125,0.03375,0.037,-0.00163275,-0.0074004997,-0.0034942501,1741839277.293901
0.2435,0.017,0.03725,-0.00444025,-0.0077210004,-0.0027160002,1741839277.3084748
0.24075,0.01125,0.02675,-0.0090485,-0.00694275,0.00364675,1741839277.3230941
0.236,0.031,0.02325,-0.00889575,-0.006546,0.0060577504,1741839277.337575
0.231,0.05425,0.02325,-0.0065612504,-0.00697325,0.00505075,1741839277.3521001
0.22425,0.06375,0.02725,-0.00538625,-0.00738525,0.00270075,1741839277.3666508
0.226,0.05275,0.03325,-0.0025634998,-0.0076599997,-0.001236,1741839277.3812559
0.23275,0.036,0.05375,-0.0018005001,-0.00788875,-0.00177,1741839277.395892
0.23675,0.03675,0.06975,-0.00334175,-0.008224499,-0.00019825,1741839277.41044
0.2465,0.05575,0.1175,-0.00413525,-0.0077210004,0.00033575002,1741839277.4249978
0.25225,0.06525,0.14725,-0.0035704998,-0.0049895,-0.001587,1741839277.439532
0.274,0.07425,0.229,-0.002243,-0.00343325,-0.0038299998,1741839277.4541519
0.2925,0.0715,0.2845,0.002655,-0.001648,-0.009277251,1741839277.468695
0.32675,0.049,0.4085,0.0053405,-0.00086975005,-0.01156625,1741839277.483257
0.33675,0.0325,0.46275,0.006775,0.0060425,-0.012054499,1741839277.497729
0.31175,0.0305,0.49975,0.0057677496,0.01272575,-0.010513251,1741839277.513812
0.2765,0.03725,0.4805,0.0047912505,0.019622749,-0.0088805,1741839277.5265532
0.2405,0.0375,0.4505,0.0076599997,0.027176,-0.00918575,1741839277.541408
0.185,0.006,0.376,0.01156625,0.02775575,-0.011673001,1741839277.555439
0.16625,-0.023,0.32825,0.0177155,0.0309295,-0.01567075,1741839277.5706282
0.14075,-0.08875,0.13275,0.018310498,0.03598025,-0.0150605,1741839277.58465
0.1235,-0.11175,-0.02175,0.0138702495,0.0468445,-0.0065765,1741839277.6007628
0.09575,-0.0415,-0.31125,0.01187125,0.047881998,-0.00201425,1741839277.613937
0.09475,0.05125,-0.4055,0.01086425,0.037460253,-0.00059500005,1741839277.6284502
0.098,0.2045,-0.5045,0.01095575,0.029846251,-0.00396725,1741839277.642936
0.11225,0.21125,-0.52375,0.0135955,0.0157775,-0.0158845,1741839277.6574662
0.1545,0.12225,-0.5055,0.01408375,0.009506251,-0.01965325,1741839277.672072
0.1715,0.06975,-0.4645,0.009384249,-0.00068675,-0.015854,1741839277.686835
0.19475,0.00825,-0.3265,0.00640875,-0.0046234997,-0.011245751,1741839277.701329
0.21175,-0.00925,-0.2355,0.0045012496,-0.0075377496,-0.00764475,1741839277.716268
0.252,-0.06325,-0.08525,0.00013725001,-0.008712751,-0.00279225,1741839277.731573
0.259,-0.0905,-0.04775,-0.0033570002,-0.00640875,0.00051875,1741839277.745721
0.2555,-0.10025,-0.03375,-0.0059205,-0.000229,0.00541675,1741839277.7604659
0.233,-0.07775,-0.0505,-0.0041504996,0.00108325,0.00546275,1741839277.775009
0.225,-0.05675,-0.06,0.001007,-0.00090025004,0.0033570002,1741839277.791422
0.2275,-0.00625,-0.05975,0.002411,-0.00279225,0.0024414998,1741839277.804273
0.23325,0.012,-0.0565,0.0022277501,-0.0051269997,0.0010375,1741839277.818742
0.2415,0.0245,-0.05775,0.00143425,-0.0052185003,0.00029,1741839277.83326
0.24075,0.019,-0.06325,-0.00108325,-0.0037079998,-0.000473,1741839277.847981
0.236,-0.00475,-0.07375,-0.0023039998,-0.002777,-0.000229,1741839277.8633668
0.2325,-0.01575,-0.07675,-0.0026854998,-0.00177,0.00033575002,1741839277.877248
0.22675,-0.03225,-0.08125,-0.0020905002,-0.00190725,0.000534,1741839277.892034
0.2245,-0.0365,-0.08275,-0.001587,-0.0036162501,0.0024414998,1741839277.906805
0.2225,-0.03275,-0.0785,-0.0018005001,-0.0047150003,0.0038757501,1741839277.9215229
0.2235,-0.02675,-0.0715,-0.00160225,-0.0064545004,0.0056609996,1741839277.936275
0.2325,-0.01325,-0.0485,-0.0007935,-0.00688175,0.0054780003,1741839277.950971
0.237,-0.01,-0.0415,0.00074775,-0.00665275,0.004013,1741839277.9655612
0.24425,-0.006,-0.03275,0.00093075,-0.0063934997,0.00372325,1741839277.980756
0.2485,-0.0035,-0.0285,0.00059500005,-0.00617975,0.0039825,1741839277.994862
0.2485,0.00325,-0.031,-0.0012055,-0.0055847503,0.0052337497,1741839278.009485
0.24375,0.00475,-0.038,-0.002365,-0.00531,0.00585925,1741839278.024008
0.2375,0.00775,-0.04575,-0.003769,-0.0054475004,0.00631725,1741839278.03876
0.23175,0.01625,-0.046,-0.003952,-0.0059205,0.0059510004,1741839278.0533938
0.23225,0.015,-0.03925,-0.0032655,-0.0072480002,0.0045165,1741839278.067966
0.235,0.0035,-0.0305,-0.0030975002,-0.0078735,0.004242,1741839278.082567
0.23525,0.0005,-0.031,-0.0032347501,-0.008194,0.0047150003,1741839278.097152
0.234,0.00425,-0.03425,-0.0028687501,-0.008590749,0.004547,1741839278.1135519
0.23625,0.00475,-0.032,-0.00148,-0.010559,0.0033875,1741839278.126454
0.2395,0.001,-0.02375,-0.00074775,-0.011123749,0.00302125,1741839278.141061
0.24125,0.004,-0.0175,-0.000763,-0.01071175,0.00358575,1741839278.155701
0.2475,0.01575,-0.00525,-0.0017852499,-0.01020825,0.0042267498,1741839278.1708002
0.2465,0.01375,-0.0075,-0.0042572496,-0.00862125,0.00564575,1741839278.184949
0.2415,0.009,-0.01625,-0.0047455,-0.0080415,0.006012,1741839278.200438
0.2435,0.00575,-0.01675,-0.0029145,-0.0086975,0.0052642496,1741839278.2139258
0.2475,0.0075,-0.0155,-0.0012970001,-0.009552,0.0047302498,1741839278.228513
0.2465,0.01725,-0.014,-0.00061025,-0.01042175,0.00466925,1741839278.2429929
0.247,0.0235,-0.0075,-0.0029755002,-0.0114135,0.006012,1741839278.25765
0.25225,0.02575,0.015,-0.0039825,-0.010849,0.00643925,1741839278.2720482
0.253,0.02875,0.02025,-0.00283825,-0.00817875,0.00514225,1741839278.2866812
0.24775,0.03375,0.01375,-0.0025025,-0.0070037497,0.0043182503,1741839278.3012638
0.24775,0.02975,0.0125,-0.0033264998,-0.0068969997,0.0040435,1741839278.315745
0.25,0.018,0.01625,-0.00334175,-0.00747675,0.00428775,1741839278.3313978
0.25,0.01875,0.017,-0.00355525,-0.00839225,0.0053709997,1741839278.344883
0.2515,0.034,0.02725,-0.0036162501,-0.008545,0.00561525,1741839278.359309
0.25,0.04375,0.0325,-0.00242625,-0.008270251,0.0037995,1741839278.373954
0.247,0.04325,0.0435,-0.00225825,-0.00785825,0.00270075,1741839278.388393
0.25,0.0325,0.053,-0.00328075,-0.0076905,0.0024872501,1741839278.402891
0.25475,0.02275,0.0665,-0.0034484998,-0.0076295,0.0030975002,1741839278.417333
0.25225,0.02975,0.0665,-0.00334175,-0.00720225,0.0037385002,1741839278.431794
0.247,0.03925,0.06225,-0.0040435,-0.0059967497,0.00488275,1741839278.446367
0.23675,0.04775,0.05375,-0.004242,-0.0058135,0.0048979996,1741839278.460875
0.2315,0.04825,0.0575,-0.00231925,-0.007019,0.00320425,1741839278.475363
0.2255,0.0545,0.096,-0.0015565,-0.00794975,0.002243,1741839278.4912598
0.228,0.05825,0.127,-0.001526,-0.00880425,0.00029,1741839278.504425
0.247,0.05175,0.1975,-0.0018615,-0.008270251,-0.00059500005,1741839278.520232
0.25925,0.05075,0.246,-0.001236,-0.0061950004,-0.00276175,1741839278.5334551
0.27425,0.05325,0.411,0.00071725,-0.00593575,-0.00411975,1741839278.548052
0.2815,0.0475,0.54275,0.00665275,-0.005005,-0.0062407497,1741839278.563144
0.27975,0.03075,0.77525,0.00941475,-0.00027475,-0.008407501,1741839278.577352
0.248,-0.00075,0.7905,0.012802,0.0164795,-0.00976575,1741839278.591962
0.12125,-0.01175,0.69,0.01145925,0.023376498,-0.0060882503,1741839278.606349
0.07525,0.03925,0.64375,0.00845325,0.02796925,-0.0013580001,1741839278.620887
0.065,0.078,0.575,0.0036162501,0.03668225,-0.0008545,1741839278.635263
0.08375,0.07375,0.2285,0.0046234997,0.042297248,-0.0057677496,1741839278.650392
0.09625,0.04775,-0.02275,0.0049285004,0.0477905,-0.013122501,1741839278.664294
0.1695,0.058,-0.4485,0.0046234997,0.04695125,-0.014557,1741839278.678884
0.19325,0.121,-0.611,0.008072,0.0398255,-0.018402,1741839278.693354
0.1615,0.2255,-0.81725,0.00788875,0.033722,-0.020996,1741839278.707874
0.137,0.20075,-0.87175,0.0032347501,0.01857,-0.02601625,1741839278.7223082
0.11925,0.054,-0.83225,9.15e-05,0.00991825,-0.02439875,1741839278.73698
0.13,-0.01525,-0.704,-0.002411,-0.008773751,-0.0148772495,1741839278.751758
0.1775,-0.14475,-0.3465,3.0500001e-05,-0.01617425,-0.01156625,1741839278.7666519
0.197,-0.2245,-0.1855,0.0028535,-0.020049999,-0.0020752498,1741839278.781352
0.234,-0.27425,0.06075,0.0028535,-0.017883249,0.0060882503,1741839278.7958632
0.26525,-0.2105,0.14025,0.0043182503,-0.014587499,0.01257325,1741839278.810366
0.28675,-0.05825,0.1385,0.01083375,-0.0062865,0.012375,1741839278.8248389
0.27625,-0.005,0.08825,0.01148975,-0.0023039998,0.0101775,1741839278.839416
0.262,0.03575,0.0345,0.0042267498,0.00108325,0.009811499,1741839278.8538501
0.22025,0.099,-0.0805,0.0021057501,-0.00070200005,0.008346501,1741839278.8683279
0.205,0.1085,-0.12625,0.0030365,-0.00535575,0.0019685,1741839278.882894
0.20975,0.0755,-0.144,0.0027465,-0.00579825,-0.00045775,1741839278.897413
0.22,0.05575,-0.13275,0.00251775,-0.00737,-0.0031127501,1741839278.9133818
0.2385,0.0195,-0.1015,0.002243,-0.00767525,-0.00305175,1741839278.9264472
0.2455,-0.00525,-0.0815,-0.0015565,-0.0062255003,0.00059500005,1741839278.941113
0.24775,-0.03125,-0.05375,-0.0037995,-0.00561525,0.0032195,1741839278.955904
0.2395,-0.02825,-0.053,-0.00637825,-0.0061645,0.0081025,1741839278.971172
0.22625,-0.0135,-0.04375,-0.0062865,-0.0073547503,0.00962825,1741839278.985247
0.23025,0.00125,-0.02,-0.00331125,-0.010437001,0.009643501,1741839279.0007539
0.2505,0.041,0.03775,-0.00213625,-0.011245751,0.008255,1741839279.014345
0.25925,0.047,0.0585,-0.0025940002,-0.010818499,0.0070342496,1741839279.028863
0.255,0.03875,0.05125,-0.00747675,-0.0061339997,0.007019,1741839279.043324
0.2455,0.0345,0.03125,-0.00982675,-0.00381475,0.0077667497,1741839279.0578618
0.236,0.03425,0.013,-0.01062,-0.00355525,0.00823975,1741839279.0723379
0.226,0.041,0.00725,-0.009369001,-0.00538625,0.00747675,1741839279.087017
0.234,0.047,0.027,-0.005066,-0.0095672505,0.0035095,1741839279.101588
0.2595,0.05375,0.09075,-0.0027465,-0.010391249,0.0005035,1741839279.116161
0.2665,0.05025,0.10925,-0.0027465,-0.00738525,-0.0033264998,1741839279.1313689
0.25175,0.02475,0.07425,-0.00419625,-0.0037995,-0.0036315,1741839279.145428
0.23575,0.01325,0.0395,-0.00593575,0.000824,-0.00254825,1741839279.15994
0.212,0.00725,-0.00575,-0.0067902496,-0.000122000005,-0.001068,1741839279.1746519
0.21125,0.009,-0.00675,-0.0077210004,-0.0057372497,0.001709,1741839279.190614
0.226,0.01575,0.026,-0.0070495,-0.008499251,0.00204475,1741839279.203839
0.23775,0.016,0.0495,-0.0054780003,-0.00982675,0.0016785001,1741839279.218341
0.254,0.01825,0.0755,-0.0043944996,-0.008285499,0.001114,1741839279.233027
0.253,0.01725,0.0665,-0.0033570002,-0.0059205,0.0003815,1741839279.2476742
0.242,0.01125,0.034,-0.0029755002,-0.0023497501,-3.0500001e-05,1741839279.263525
0.2375,0.00625,0.0235,-0.00296025,-0.00245675,0.00030525,1741839279.2768168
0.2335,0.0015,0.015,-0.003006,-0.0046539996,0.0024414998,1741839279.291568
0.2395,0.01275,0.01875,-0.0036010002,-0.0055085,0.0040435,1741839279.305886
0.244,0.026,0.02325,-0.002884,-0.00697325,0.0042725,1741839279.320812
0.2455,0.04575,0.02925,-0.00204475,-0.00747675,0.002884,1741839279.334847
0.249,0.04325,0.03575,-0.002533,-0.0075377496,0.000946,1741839279.350519
0.2575,0.0235,0.053,-0.00296025,-0.0069885002,0.000824,1741839279.363884
0.2585,0.017,0.061,-0.00292975,-0.0058899997,0.00131225,1741839279.378376
0.25475,0.0165,0.06475,-0.003006,-0.00570675,0.00169375,1741839279.3928561
0.24875,0.02125,0.06,-0.0038605002,-0.00570675,0.00279225,1741839279.407352
0.23575,0.0315,0.056,-0.00390625,-0.0059815003,0.00302125,1741839279.421834
0.23275,0.03225,0.06175,-0.0036162501,-0.0063934997,0.00283825,1741839279.436321
0.2335,0.03225,0.0765,-0.0023039998,-0.006836,0.0022125002,1741839279.450952
0.23875,0.03825,0.11375,-0.0015105,-0.0065307496,0.001831,1741839279.465442
0.2385,0.04175,0.1275,-0.001114,-0.0052795,0.0014495,1741839279.480923
0.237,0.0455,0.14325,-0.00137325,-0.004593,0.00149525,1741839279.494337
0.23675,0.04575,0.15325,-0.00204475,-0.00331125,0.00169375,1741839279.5088441
0.24025,0.049,0.1965,-0.00177,-0.0024414998,0.00125125,1741839279.52332
0.2445,0.05125,0.2305,0.0018615,0.00035100002,-0.00263975,1741839279.5377479
0.267,0.04925,0.31375,0.00413525,0.0020599999,-0.0055847503,1741839279.552237
0.279,0.034,0.33875,0.00617975,0.00543225,-0.0097045,1741839279.5667078
0.273,-0.01425,0.3755,0.0070342496,0.0070342496,-0.009521499,1741839279.581334
0.273,-0.031,0.4335,0.009445249,0.0077667497,-0.008636501,1741839279.595878
0.28375,-0.03225,0.6115,0.01867675,0.0100707505,-0.0075225,1741839279.610337
0.27475,-0.03,0.65325,0.021026501,0.0151215,-0.00546275,1741839279.624848
0.24475,-0.035,0.63125,0.012924249,0.02977,0.0057525,1741839279.6392572
0.15975,0.0,0.47025,0.0064239996,0.036514252,0.010849,1741839279.653558
0.126,0.0365,0.34925,0.0022735,0.048446752,0.00889575,1741839279.6679838
0.07175,0.035,-0.00625,0.0047150003,0.054077253,0.00146475,1741839279.6823308
0.047,0.0215,-0.2445,0.01474,0.056945752,-0.012557999,1741839279.696841
0.0095,0.1085,-0.71425,0.017807,0.05160525,-0.015533499,1741839279.711343
0.005,0.203,-0.8655,0.0166625,0.03114325,-0.01708975,1741839279.7258072
0.004,0.346,-0.99425,0.01200875,0.01879875,-0.01756275,1741839279.740916
0.02525,0.31675,-0.95375,0.0057525,0.0071105,-0.01876825,1741839279.754792
0.12475,0.0755,-0.6255,0.00125125,-0.01800525,-0.02326975,1741839279.770732
0.179,-0.07075,-0.395,0.00302125,-0.03094475,-0.0225525,1741839279.78401
0.234,-0.1975,-0.15175,0.0025025,-0.037048247,-0.0075225,1741839279.8006048
0.368,-0.281,0.24725,0.0036162501,-0.02943425,0.0012817499,1741839279.813303
0.39825,-0.2505,0.3085,0.00823975,-0.0079345,0.00975025,1741839279.8277602
0.33975,-0.12575,0.20925,0.007965,0.00254825,0.01197825,1741839279.842317
0.29375,-0.04375,0.12275,0.004837,0.0167695,0.014389,1741839279.8568041
0.20425,0.096,-0.03875,0.0027312501,0.01652525,0.0128632495,1741839279.8715498
0.16975,0.134,-0.11575,0.0017395001,0.00801075,0.00408925,1741839279.8857942
0.15775,0.13525,-0.1765,0.00238025,0.00416575,-0.0001525,1741839279.900964
0.17475,0.1085,-0.15675,0.00213625,-0.006256,-0.004486,1741839279.91505
0.2215,0.052,-0.08675,0.000946,-0.009811499,-0.0047912505,1741839279.93103
0.24525,0.029,-0.05625,-0.002411,-0.008727999,-0.0027160002,1741839279.944486
0.26975,-0.012,-0.026,-0.0045777503,-0.006668,-0.0005645,1741839279.9593961
0.26525,-0.019,-0.031,-0.0066985004,-0.0046234997,0.00193775,1741839279.974017
0.23825,-0.01075,-0.06025,-0.00930775,-0.00231925,0.0057220003,1741839279.988744
0.22025,-0.01025,-0.0815,-0.009658749,-0.00358575,0.0068207504,1741839280.003558
0.208,-0.003,-0.096,-0.010376001,-0.0078125,0.01013175,1741839280.01824
0.21825,0.0165,-0.0765,-0.01026925,-0.010513251,0.010849,1741839280.032793
0.237,0.03275,-0.04175,-0.00694275,-0.01504525,0.0070037497,1741839280.0474381
0.26425,0.043,0.0105,-0.0052947504,-0.0150605,0.00434875,1741839280.0634172
0.26575,0.0405,0.0155,-0.0073547503,-0.00985725,0.0031889998,1741839280.076303
0.254,0.02725,-0.00225,-0.010147001,-0.00717175,0.0044555003,1741839280.0916522
0.2425,0.0185,-0.0195,-0.013046251,-0.0062865,0.0070037497,1741839280.105736
0.22675,0.0095,-0.03525,-0.01239025,-0.008224499,0.007187,1741839280.121506
0.2285,0.0125,-0.02325,-0.007782,-0.0142365,0.0050812503,1741839280.13516
0.24975,0.034,0.04325,-0.00485225,-0.0159455,0.00305175,1741839280.1507268
0.26825,0.04375,0.08175,-0.0025634998,-0.013382,-0.0014037499,1741839280.164491
0.27725,0.02675,0.09075,-0.0049895,-0.00991825,-0.0013885,1741839280.1810281
0.26525,0.00925,0.06775,-0.012695249,-0.003128,0.0036162501,1741839280.1937459
0.237,-0.0025,0.0195,-0.01396175,-0.00090025004,0.00543225,1741839280.2084339
0.22625,0.0075,0.0025,-0.0100707505,-0.0016632499,0.00511175,1741839280.223058
0.23175,0.03,0.01525,-0.0076905,-0.00399775,0.00416575,1741839280.237569
0.246,0.03675,0.04175,-0.0058287503,-0.006607,0.0030365,1741839280.252078
0.27025,0.03325,0.089,-0.0033722501,-0.009079001,0.00062550005,1741839280.2665641
0.26975,0.0255,0.09,-0.00384525,-0.00801075,0.00057975,1741839280.281246
0.2605,0.01825,0.07425,-0.00747675,-0.00305175,0.00390625,1741839280.295541
0.229,0.02025,0.024,-0.008636501,-0.00077825,0.0054780003,1741839280.31004
0.21725,0.025,0.0055,-0.0073395,-0.0005035,0.0055237496,1741839280.3245142
0.217,0.03475,0.0085,-0.0049742498,-0.0029449998,0.00434875,1741839280.3390038
0.227,0.0395,0.029,-0.0009155,-0.008545,0.0017395001,1741839280.3536131
0.25475,0.04225,0.07825,-0.00071725,-0.00918575,0.0013885,1741839280.368084
0.26025,0.04025,0.0865,-0.00354,-0.00637825,0.0031585,1741839280.382664
0.24575,0.034,0.0565,-0.00511175,-0.004486,0.0045012496,1741839280.397123
0.2355,0.03825,0.038,-0.00408925,-0.0029449998,0.004303,1741839280.413554
0.22775,0.053,0.02875,-0.002365,-0.00396725,0.0027465,1741839280.4260008
0.23175,0.051,0.03725,-0.00146475,-0.005844,0.00148,1741839280.4413471
0.2395,0.04575,0.04925,-0.002365,-0.0078125,0.00148,1741839280.455195
0.2475,0.04075,0.06175,-0.002777,-0.00717175,0.0019685,1741839280.4707148
0.24625,0.041,0.06275,-0.004013,-0.00378425,0.0032347501,1741839280.484373
0.23925,0.04475,0.0555,-0.0045625,-0.00201425,0.003891,1741839280.500715
0.2335,0.05075,0.047,-0.00428775,-0.000946,0.0043944996,1741839280.513419
0.23225,0.06425,0.04725,-0.004547,-0.0018615,0.004593,1741839280.527992
0.23675,0.06825,0.053,-0.0042725,-0.00399775,0.00408925,1741839280.5426571
0.24325,0.0665,0.05375,-0.004013,-0.00419625,0.00340275,1741839280.557132
0.244,0.06325,0.05525,-0.0053405,-0.002655,0.00343325,1741839280.571562
0.23875,0.0585,0.06025,-0.00596625,-0.00146475,0.00396725,1741839280.585997
0.23225,0.06175,0.06125,-0.0054780003,-0.00057975,0.00444025,1741839280.600739
0.22425,0.081,0.0845,-0.00485225,-0.00137325,0.003952,1741839280.615448
0.22675,0.08825,0.1085,-0.0045012496,-0.0026092501,0.0030975002,1741839280.631118
0.238,0.0875,0.17575,-0.0040587503,-0.00402825,0.0016632499,1741839280.644545
0.24675,0.088,0.2245,-0.002884,-0.0037385002,0.00093075,1741839280.659029
0.25525,0.08675,0.2865,0.00193775,-0.0030975002,-0.00112925,1741839280.6736572
0.2755,0.089,0.49375,0.006012,-0.0029449998,-0.0029907501,1741839280.688094
0.2915,0.08175,0.607,0.01498425,0.0029449998,-0.00941475,1741839280.702643
0.3035,0.016,0.73525,0.017334,0.009140001,-0.010757499,1741839280.717097
0.27575,-0.00425,0.74675,0.013931249,0.024505502,-0.0029145,1741839280.731649
0.2065,0.04475,0.70125,0.009597749,0.03344725,0.00317375,1741839280.745983
0.168,0.09475,0.6235,0.00975025,0.050003,0.00408925,1741839280.7603781
0.067,0.1135,0.29175,0.01187125,0.056274503,-0.00042725,1741839280.7747881
0.02825,0.09125,0.0665,0.014099,0.060257,-0.0050965,1741839280.7906828
0.015,0.1105,-0.38675,0.01481625,0.062194753,-0.01004025,1741839280.803864
0.0085,0.15125,-0.6105,0.013931249,0.06044,-0.01197825,1741839280.818343
-0.008,0.187,-0.7985,0.01496875,0.04429625,-0.01940925,1741839280.8329349
-0.043,0.188,-0.972,0.01564025,0.031570498,-0.023650998,1741839280.84755
-0.0355,0.156,-0.95325,0.013778751,0.0044250004,-0.025833251,1741839280.863366
0.0365,0.07275,-0.7365,0.010101249,-0.007599,-0.02238475,1741839280.876619
0.1005,0.0125,-0.553,0.00160225,-0.023056,-0.0119934995,1741839280.8915389
0.236,-0.14375,-0.1485,-0.0005035,-0.0253295,-0.0068969997,1741839280.905971
0.29,-0.20525,0.0215,0.00035100002,-0.019927999,0.00396725,1741839280.921292
0.3645,-0.17175,0.23175,0.0033722501,-0.0135345,0.0079345,1741839280.935023
0.367,-0.1,0.2365,0.0077515002,0.0019989999,0.009002751,1741839280.9508321
0.2975,0.03375,0.08475,0.0072785,0.00897225,0.00823975,1741839280.963826
0.245,0.08475,-0.0095,0.004837,0.01408375,0.00785825,1741839280.978328
0.17875,0.13475,-0.1425,-0.00033575002,0.01210025,0.0040435,1741839280.9930172
0.1695,0.1275,-0.1725,0.001114,0.0055695,-0.00090025004,1741839281.0075321
0.17575,0.10625,-0.17275,0.00535575,-0.0062255003,-0.00798025,1741839281.022128
0.2185,0.05675,-0.102,0.0047607496,-0.009597749,-0.0079345,1741839281.036781
0.24225,0.0325,-0.05825,0.0015565,-0.009887749,-0.00511175,1741839281.051557
0.26175,-0.00725,-0.01625,0.00013725001,-0.0073242504,-0.00334175,1741839281.0662458
0.2595,-0.01925,-0.01925,-0.0031585,-0.00074775,0.0017242499,1741839281.0813491
0.24875,-0.0245,-0.0465,-0.0036315,0.00157175,0.00381475,1741839281.095783
0.2405,-0.01375,-0.06175,-0.002533,0.00198375,0.00585925,1741839281.110315
0.23525,0.01525,-0.072,-0.00242625,0.0001525,0.0065307496,1741839281.124841
0.2335,0.0285,-0.07475,-0.00216675,-0.00555425,0.0062865,1741839281.140794
0.22975,0.0495,-0.075,-0.002411,-0.0061950004,0.00585925,1741839281.154123
0.22575,0.05325,-0.07725,-0.00408925,-0.0043944996,0.00535575,1741839281.1687381
0.2165,0.048,-0.079,-0.0048217503,-0.004013,0.00517275,1741839281.1833222
0.21625,0.0455,-0.072,-0.0042572496,-0.00538625,0.004013,1741839281.197918
0.227,0.04375,-0.04475,-0.00320425,-0.0068969997,0.0030365,1741839281.21345
0.23925,0.0455,-0.0235,-0.0021972498,-0.010589501,0.0012207499,1741839281.227366
0.2605,0.04275,0.0095,-0.00276175,-0.010940501,0.00102225,1741839281.241951
0.25775,0.039,0.009,-0.0038605002,-0.00976575,0.0013275,1741839281.256536
0.234,0.02625,-0.021,-0.0069885002,-0.00579825,0.00276175,1741839281.271193
0.222,0.02,-0.03975,-0.00801075,-0.0045012496,0.00340275,1741839281.2856362
0.2155,0.0175,-0.0515,-0.006668,-0.00564575,0.0034484998,1741839281.301253
0.2215,0.02025,-0.03475,-0.00514225,-0.0081025,0.00340275,1741839281.315031
0.22925,0.02725,-0.0125,-0.00494375,-0.01197825,0.0049590003,1741839281.331029
0.241,0.04625,0.02025,-0.00579825,-0.01194775,0.005539,1741839281.3442419
0.24,0.04225,0.01825,-0.0059815003,-0.008773751,0.003952,1741839281.358714
0.229,0.01125,-0.00925,-0.005539,-0.007187,0.0032655,1741839281.3733308
0.22325,0.00225,-0.02375,-0.00384525,-0.0072937496,0.0047455,1741839281.387962
0.222,0.01825,-0.02225,-0.0030975002,-0.0091705,0.006302,1741839281.402718
0.22975,0.03125,-0.00575,-0.00198375,-0.01367175,0.00801075,1741839281.4173288
0.24425,0.053,0.0295,-0.00213625,-0.014282251,0.008133001,1741839281.432024
0.24775,0.0645,0.04125,-0.00340275,-0.01115425,0.0068512503,1741839281.4467251
0.24275,0.06775,0.03275,-0.0028687501,-0.00918575,0.00531,1741839281.4612951
0.23875,0.06325,0.026,-7.625e-05,-0.008667,0.0020752498,1741839281.4759538
0.24175,0.0585,0.0385,0.0010375,-0.010024999,0.0011445,1741839281.4914181
0.24925,0.05775,0.0525,0.00137325,-0.0114440005,0.00071725,1741839281.504931
0.25475,0.055,0.061,0.00045775,-0.0116425,0.0009765,1741839281.5211809
0.25425,0.05075,0.055,-0.00074775,-0.010757499,0.0018005001,1741839281.534101
0.25275,0.0515,0.05225,-0.00308225,-0.0091705,0.00364675,1741839281.5485492
0.249,0.0615,0.04875,-0.0030669998,-0.00845325,0.003662,1741839281.563523
0.247,0.06825,0.04425,-0.002365,-0.006668,0.0020599999,1741839281.577705
0.24775,0.067,0.02925,-0.0025634998,-0.006073,0.0012817499,1741839281.592345
0.2495,0.06075,0.0235,-0.00302125,-0.0052337497,0.00083925005,1741839281.6069498
0.25125,0.0505,0.0345,-0.0032655,-0.00579825,0.00137325,1741839281.621614
0.24825,0.05075,0.0365,-0.00354,-0.009079001,0.0026092501,1741839281.636064
0.2415,0.0625,0.03725,-0.0033570002,-0.009643501,0.0029145,1741839281.650694
0.23775,0.0675,0.04025,-0.0034790002,-0.008712751,0.00239575,1741839281.6650062
0.24075,0.0755,0.07175,-0.0034942501,-0.008209251,0.0018005001,1741839281.6810539
0.24375,0.08,0.08925,-0.0034790002,-0.0080872495,0.0015105,1741839281.694017
0.249,0.082,0.12,-0.00372325,-0.0080415,0.001648,1741839281.708499
0.246,0.0805,0.13175,-0.00367725,-0.0074615004,0.0012817499,1741839281.723009
0.24225,0.076,0.152,-0.0037385002,-0.00517275,0.00029,1741839281.737663
0.24275,0.08425,0.23275,-0.0029145,-0.0037079998,-0.00035100002,1741839281.752322
0.24575,0.0955,0.29675,0.0003815,-0.0013580001,-0.0025025,1741839281.7668831
0.25025,0.082,0.46675,0.0013275,-0.00051875,-0.00378425,1741839281.781472
0.25025,0.06575,0.56925,0.0055847503,0.0043335,-0.008727999,1741839281.79592
0.2635,-0.0055,0.7195,0.010162249,0.0090637505,-0.011734,1741839281.812494
0.2365,-0.045,0.72275,0.015335,0.020782499,-0.008545,1741839281.8250182
0.114,0.0,0.64575,0.01187125,0.027435249,-0.00216675,1741839281.839513
0.077,0.02925,0.5465,0.00355525,0.040527247,0.00225825,1741839281.8538291
0.06825,0.0325,0.1945,0.00637825,0.04502875,-0.0008545,1741839281.868235
0.08125,0.05675,-0.034,0.0099639995,0.0489045,-0.00334175,1741839281.8827689
0.1005,0.1055,-0.2465,0.008377,0.054901,-0.00614925,1741839281.897218
0.12275,0.1915,-0.575,0.0079955,0.051361,-0.0088195,1741839281.913706
0.12625,0.21475,-0.67275,0.01216125,0.03607175,-0.017501751,1741839281.9262562
0.1735,0.2145,-0.714,0.0141755,0.027709998,-0.02165225,1741839281.9416199
0.1995,0.18925,-0.675,0.008316,0.01525875,-0.021362249,1741839281.955721
0.2125,0.11025,-0.5255,0.0030669998,0.0114440005,-0.01791375,1741839281.9712791
0.211,0.06825,-0.41775,0.00057975,0.00317375,-0.01307675,1741839281.9847538
0.2365,-0.037,-0.163,0.002884,-0.00157175,-0.012802,1741839282.000822
0.25,-0.09275,-0.05725,0.004593,-0.0047302498,-0.010513251,1741839282.014199
0.233,-0.14725,0.0515,0.0024414998,-0.002411,-0.0063934997,1741839282.028825
0.21375,-0.12875,0.06025,-0.00010675,0.0045012496,0.00163275,1741839282.043224
0.1795,-0.048,0.01025,0.00148,0.0065155,0.00270075,1741839282.05761
0.16725,-0.009,-0.02875,0.00384525,0.0068207504,0.002243,1741839282.072064
0.159,0.0565,-0.0885,0.00444025,0.00384525,0.001526,1741839282.086399
0.16925,0.0745,-0.1,0.0030365,0.00119025,0.0012665,1741839282.100993
0.185,0.08025,-0.1035,0.0011445,-0.004242,-0.00061025,1741839282.1156101
0.21925,0.06725,-0.09875,0.0005035,-0.00561525,-0.001648,1741839282.131791
0.2355,0.054,-0.0885,-0.00051875,-0.00631725,-0.0023497501,1741839282.145026
0.26125,0.02475,-0.06775,-0.00065625,-0.0063934997,-0.001831,1741839282.159796
0.27075,0.0125,-0.05725,-4.575e-05,-0.0054780003,3.0500001e-05,1741839282.174357
0.281,0.0105,-0.0385,0.000412,-0.0049285004,0.0008545,1741839282.189058
0.27975,0.017,-0.03575,-0.00016775,-0.0039215,0.0012970001,1741839282.203706
0.27075,0.0125,-0.039,-0.0009155,-0.0032195,0.0009765,1741839282.218318
0.26325,0.004,-0.04425,-0.00125125,-0.00181575,0.000885,1741839282.232903
0.24125,0.002,-0.055,-0.00148,-0.001236,0.0016632499,1741839282.247731
0.232,0.00775,-0.05975,-0.0022125002,-0.000473,0.00354,1741839282.263436
0.2205,0.0265,-0.069,-0.0022125002,-0.0004425,0.00378425,1741839282.2768981
0.22075,0.04075,-0.07025,-0.001114,-0.0021057501,0.0017395001,1741839282.291668
0.23125,0.04425,-0.05825,0.0001525,-0.00372325,-0.00042725,1741839282.3063061
0.2365,0.033,-0.049,0.0012970001,-0.0052337497,-0.0023497501,1741839282.3211021
0.238,0.01,-0.0385,0.000946,-0.0056304997,-0.0028074998,1741839282.335395
0.23225,0.00525,-0.04325,-0.00070200005,-0.00494375,-0.0013427499,1741839282.350731
0.22575,0.00775,-0.05325,-0.0042725,-0.0045012496,0.0023497501,1741839282.364833
0.2205,0.02725,-0.06675,-0.0048065,-0.0052947504,0.00317375,1741839282.380644
0.2265,0.0345,-0.06125,-0.0032347501,-0.0089569995,0.00125125,1741839282.394026
0.241,0.01925,-0.0395,-0.0022277501,-0.010803251,0.0001525,1741839282.4087229
0.2425,0.00775,-0.02975,-0.00146475,-0.012557999,0.0007325,1741839282.4232802
0.237,0.0075,-0.0165,-0.0012055,-0.012695249,0.00177,1741839282.437838
0.2365,0.01325,-0.01025,0.00077825,-0.012130749,0.0023039998,1741839282.452309
0.23825,0.01125,-0.0105,0.0032347501,-0.01145925,0.0010375,1741839282.466729
0.2395,0.00575,-0.01225,0.008636501,-0.01071175,-0.00204475,1741839282.4814131
0.24825,0.006,-0.004,0.0088195,-0.010940501,-0.0021515,1741839282.496094
0.2535,0.01375,0.0,0.00317375,-0.011139,0.00119025,1741839282.510439
0.25375,0.03075,0.0025,0.0003205,-0.0111085,0.00239575,1741839282.524907
0.251,0.0325,0.002,-0.00163275,-0.010681249,0.00263975,1741839282.5403168
0.24375,0.028,-0.0015,-0.00411975,-0.00889575,0.0018005001,1741839282.5540638
0.239,0.02425,-0.0015,-0.004776,-0.008499251,0.0014037499,1741839282.568616
0.237,0.019,0.0035,-0.0058287503,-0.009140001,0.00175475,1741839282.5831091
0.24075,0.014,0.024,-0.0059205,-0.0093995,0.0020599999,1741839282.597524
0.24375,0.01425,0.03425,-0.0047607496,-0.00953675,0.00177,1741839282.6121018
0.2445,0.01425,0.0385,-0.0050202496,-0.00912475,0.0020599999,1741839282.626579
0.245,0.01525,0.0445,-0.0069274995,-0.0091095,0.0033570002,1741839282.641425
0.246,0.01975,0.04475,-0.00631725,-0.009948749,0.0031585,1741839282.655725
0.242,0.02425,0.0375,-0.0044555003,-0.010681249,0.0020905002,1741839282.6711721
0.2355,0.03025,0.02675,-0.0047302498,-0.01013175,0.0020599999,1741839282.684717
0.235,0.03175,0.02275,-0.00514225,-0.009491,0.0022735,1741839282.700361
0.23725,0.03625,0.029,-0.00466925,-0.010024999,0.00187675,1741839282.713689
0.24375,0.041,0.0465,-0.00393675,-0.011031999,0.00099175,1741839282.728279
0.26525,0.05,0.08825,-0.00292975,-0.01200875,-0.00115975,1741839282.74281
0.272,0.0485,0.0915,-0.00292975,-0.011016751,-0.0016175,1741839282.757355
0.26925,0.048,0.07925,-0.004242,-0.00671375,-0.00109875,1741839282.772074
0.24075,0.04575,0.036,-0.00469975,-0.0049285004,-0.0012817499,1741839282.7866912
0.2235,0.037,0.01925,-0.00352475,-0.0048217503,-0.004013,1741839282.8012958
0.2145,0.01525,0.044,-0.00242625,-0.0065765,-0.0050355,1741839282.815827
0.22675,0.01725,0.08275,-0.000824,-0.01033025,-0.00413525,1741839282.831069
0.2525,0.05,0.16675,-0.0008545,-0.01091,-0.00292975,1741839282.845205
0.262,0.06125,0.215,-0.0040587503,-0.009155249,-0.0015105,1741839282.859775
0.29025,0.04175,0.35675,-0.00434875,-0.0075377496,-0.00225825,1741839282.8743548
0.30875,0.02525,0.44275,0.00411975,-0.004074,-0.0078125,1741839282.888899
0.34075,-0.00175,0.62425,0.009719751,-0.0012055,-0.0110015,1741839282.903659
0.32325,-0.0105,0.68775,0.01649475,0.010559,-0.01042175,1741839282.9183118
0.2285,-0.01375,0.718,0.017501751,0.017929,-0.0070952503,1741839282.9329731
0.176,-0.0065,0.6905,0.02085875,0.02822875,-0.0039825,1741839282.947693
0.089,0.00875,0.53275,0.020324752,0.03318775,-0.00372325,1741839282.963546
0.0665,0.008,0.399,0.01731875,0.039032,-0.00340275,1741839282.976444
0.0585,-0.016,0.21975,0.012741,0.047287,-0.00320425,1741839282.9913962
0.07775,-0.07175,-0.15775,0.01419075,0.046997003,-0.0031585,1741839283.005589
0.09125,-0.02925,-0.313,0.026291,0.03822325,-0.006302,1741839283.0206232
0.10225,0.16125,-0.577,0.02934275,0.033370998,-0.008255,1741839283.034752
0.1165,0.2475,-0.6855,0.026184,0.0232085,-0.013427749,1741839283.0507572
0.1495,0.29825,-0.769,0.0212555,0.016296498,-0.0155030005,1741839283.0637639
0.17125,0.2635,-0.70925,0.010238751,-0.0001525,-0.0164795,1741839283.07825
0.201,0.10325,-0.45825,0.00770575,-0.0077667497,-0.017425502,1741839283.092823
0.21375,-0.009,-0.29775,0.0019685,-0.01463325,-0.013916001,1741839283.107579
0.24375,-0.19775,-0.0325,-0.0014495,-0.012542751,-0.0073395,1741839283.1222882
0.257,-0.22225,0.039,-0.0052947504,-0.00201425,0.008361749,1741839283.1368508
0.265,-0.1415,0.08025,-0.0042267498,0.00163275,0.012771499,1741839283.151316
0.264,-0.075,0.07925,-0.00096125,0.0028229998,0.013549751,1741839283.1658251
0.2515,0.035,0.03725,0.00485225,0.0028687501,0.008636501,1741839283.180827
0.2375,0.06525,-0.00425,0.0045625,0.0036315,0.00596625,1741839283.194575
0.2205,0.0815,-0.045,0.0013427499,0.00279225,0.0017852499,1741839283.208908
0.205,0.07775,-0.07625,-3.0500001e-05,0.00059500005,-0.0004425,1741839283.223711
0.21125,0.05825,-0.06975,1.5250001e-05,-0.00393675,-0.0057372497,1741839283.238314
0.2305,-0.00725,-0.04175,0.0001525,-0.00491325,-0.00672925,1741839283.252907
0.2385,-0.035,-0.027,-0.0012055,-0.0047455,-0.0033570002,1741839283.2677069
0.24775,-0.05575,-0.00975,-0.0016175,-0.0039215,-0.00068675,1741839283.2825332
0.2485,-0.0455,-0.01225,-0.0017395001,-0.0005645,0.00396725,1741839283.297193
0.24225,-0.00325,-0.033,-0.002472,0.000946,0.0056,1741839283.312959
0.242,0.012,-0.0415,-0.00469975,0.00119025,0.00691225,1741839283.326575
0.24325,0.02275,-0.0485,-0.0042267498,-0.00030525,0.006012,1741839283.341085
0.24325,0.0225,-0.04975,-0.0017395001,-0.0045012496,0.00270075,1741839283.3557491
0.2505,0.01075,-0.0375,-0.00131225,-0.0058287503,0.00187675,1741839283.371136
0.2545,0.0055,-0.025,-0.0014037499,-0.0061950004,0.001709,1741839283.3847911
0.2535,0.00775,-0.00175,-0.0023345,-0.0047150003,0.0020599999,1741839283.400568
0.25175,0.0095,0.00075,-0.0030975002,-0.0033570002,0.0021972498,1741839283.413665
0.2475,0.01,-0.00725,-0.0043639997,-0.000824,0.00228875,1741839283.428351
0.23375,0.009,-0.03725,-0.0048979996,-0.00019825,0.00228875,1741839283.442851
0.22775,0.0075,-0.05,-0.0072632497,-0.0005645,0.0029755002,1741839283.4576159
0.22425,0.00725,-0.05175,-0.00839225,-0.0018615,0.0033722501,1741839283.4722528
0.22975,0.00575,-0.0385,-0.0072937496,-0.00662225,0.0023039998,1741839283.4868228
0.243,-0.00325,-0.0045,-0.0053709997,-0.008606,0.00125125,1741839283.501486
0.24825,-0.0035,0.01125,-0.003006,-0.008636501,0.00057975,1741839283.516099
0.25,-0.0035,0.01425,-0.00367725,-0.00694275,0.001175,1741839283.5316942
0.2475,-0.006,0.00225,-0.0061950004,-0.003128,0.0031585,1741839283.5452821
0.2425,-0.0015,-0.026,-0.00662225,-0.002777,0.0038299998,1741839283.559923
0.24225,0.002,-0.03475,-0.0059510004,-0.00564575,0.003891,1741839283.574513
0.24525,0.00975,-0.0315,-0.0053252503,-0.007553,0.0034484998,1741839283.590529
0.251,0.014,-0.0235,-0.00541675,-0.00947575,0.00331125,1741839283.603682
0.254,0.01825,-0.009,-0.0077515002,-0.012085,0.00453175,1741839283.618303
0.24925,0.0185,-0.0015,-0.00903325,-0.012557999,0.00541675,1741839283.6328151
0.24575,0.0205,0.0085,-0.01020825,-0.01171875,0.0056304997,1741839283.6472719
0.247,0.01475,0.02775,-0.009216251,-0.01091,0.0045012496,1741839283.66362
0.2475,0.0055,0.0325,-0.0061950004,-0.010376001,0.0029449998,1741839283.676286
0.2435,-0.00325,0.03325,-0.0060272496,-0.010452249,0.00367725,1741839283.6913412
0.2415,-0.00025,0.03025,-0.008850001,-0.00985725,0.0069885002,1741839283.705526
0.23625,0.0125,0.017,-0.009658749,-0.009140001,0.008026,1741839283.720712
0.23175,0.021,0.00725,-0.00811775,-0.009277251,0.0076905,1741839283.73472
0.22625,0.04075,0.001,-0.00720225,-0.01048275,0.00697325,1741839283.750527
0.22975,0.0475,0.0125,-0.00614925,-0.0129700005,0.0048217503,1741839283.763702
0.2485,0.04925,0.07175,-0.0060272496,-0.013549751,0.0035095,1741839283.778154
0.254,0.0425,0.09325,-0.0050812503,-0.0147705,0.0011445,1741839283.7928169
0.2525,0.02225,0.0925,-0.0042572496,-0.01351925,0.00093075,1741839283.807352
0.24575,0.016,0.07825,-0.003891,-0.0110932505,0.00160225,1741839283.822004
0.242,0.01625,0.06775,-0.0050965,-0.0065612504,0.00408925,1741839283.836577
0.2415,0.03375,0.063,-0.00517275,-0.0065155,0.00460825,1741839283.8511019
0.23975,0.04125,0.065,-0.0058899997,-0.009887749,0.00463875,1741839283.865658
0.24525,0.0365,0.0915,-0.006607,-0.0112,0.0047302498,1741839283.8813179
0.252,0.033,0.117,-0.00444025,-0.009292499,0.00317375,1741839283.894624
0.25375,0.0455,0.148,-0.0036315,-0.0068969997,0.002411,1741839283.909188
0.24875,0.05675,0.16075,-0.00637825,-0.0024872501,0.00245675,1741839283.923703
0.24425,0.066,0.20925,-0.0077210004,-0.00108325,0.001648,1741839283.938196
0.24125,0.05275,0.2445,-0.00770575,-0.0005035,-0.0016785001,1741839283.952744
0.2345,0.00875,0.40625,-0.006668,-0.00169375,-0.00239575,1741839283.967436
0.23375,-0.0025,0.53625,-0.00045775,-0.0027312501,-0.00485225,1741839283.982225
0.247,-0.02325,0.7725,0.0051880004,0.00093075,-0.00791925,1741839283.996696
0.24875,-0.06125,0.81775,0.012252751,0.008667,-0.010604749,1741839284.011151
0.1665,-0.0585,0.7535,0.0185395,0.031036502,-0.00434875,1741839284.025645
0.118,-0.003,0.6955,0.01260375,0.04002375,0.0049742498,1741839284.041406
0.09625,0.0745,0.61325,0.0033264998,0.052597,0.0123595,1741839284.054556
0.11825,0.18725,0.2815,0.00514225,0.05776975,0.0052795,1741839284.0688682
0.147,0.1765,0.051,0.01358025,0.06062325,-0.017303498,1741839284.0832908
0.1465,0.1005,-0.398,0.01605225,0.059967,-0.02424625,1741839284.097871
0.121,0.10725,-0.552,0.017120251,0.05325325,-0.0252075,1741839284.113587
0.06975,0.18175,-0.75275,0.01763925,0.04574575,-0.02433775,1741839284.126904
0.045,0.198,-0.82,0.014267,0.03108225,-0.02363575,1741839284.141396
0.00725,0.158,-0.837,0.01077275,0.022232,-0.022049,1741839284.155972
0.01325,0.104,-0.762,0.0076295,0.010559,-0.019027751,1741839284.171031
0.0945,-0.019,-0.43775,0.0072937496,-0.011901749,-0.013702501,1741839284.185369
0.145,-0.09175,-0.2495,0.00720225,-0.018020751,-0.01115425,1741839284.200726
0.214,-0.20325,0.01275,-0.00064075,-0.01586925,0.00201425,1741839284.21468
0.24275,-0.1915,0.0855,-0.00320425,-0.010391249,0.009369001,1741839284.231342
0.27525,-0.14775,0.133,0.00355525,-0.00416575,0.01091,1741839284.2439969
0.301,-0.04375,0.127,0.0079955,-0.0030669998,0.0073547503,1741839284.258563
0.28875,0.00825,0.0855,0.0073242504,0.001175,0.0043182503,1741839284.273078
0.25375,0.08875,-0.0085,0.00411975,0.00340275,0.004074,1741839284.287487
0.238,0.1005,-0.05625,0.0004425,0.0029145,-0.00070200005,1741839284.302006
0.2225,0.071,-0.12325,0.00061025,0.00013725001,-0.004013,1741839284.3166971
0.226,0.04725,-0.1225,0.0021057501,-0.00514225,-0.00643925,1741839284.331478
0.2485,0.01175,-0.0685,0.001892,-0.0059205,-0.0055695,1741839284.3459651
0.2585,0.00025,-0.042,-0.00016775,-0.0034637498,-0.0023497501,1741839284.3606951
0.2685,-0.01725,-0.019,-0.0015105,-0.0012055,-0.00030525,1741839284.3754518
0.26925,-0.02375,-0.01675,-0.003006,0.00296025,0.00325,1741839284.390923
0.2605,-0.02575,-0.0225,-0.002533,0.00396725,0.00378425,1741839284.404742
0.25275,-0.02525,-0.03025,-0.00198375,0.0041504996,0.004242,1741839284.420688
0.2335,-0.0175,-0.05525,-0.002472,0.0037385002,0.0049285004,1741839284.433923
0.22525,-0.00575,-0.0655,-0.00289925,0.00292975,0.005539,1741839284.448529
0.22225,0.009,-0.0665,-0.0020599999,0.00090025004,0.0046845004,1741839284.46331
0.2255,0.02725,-0.06275,-0.0012970001,0.00059500005,0.0032347501,1741839284.4774919
0.22425,0.02275,-0.068,-0.0023497501,0.00109875,0.0019989999,1741839284.491957
0.22475,0.008,-0.067,-0.0031585,0.0009155,0.002365,1741839284.506516
0.228,0.00875,-0.0585,-0.00331125,-0.00062550005,0.0026854998,1741839284.521253
0.23325,0.01425,-0.04175,-0.003662,-0.00105275,0.0027312501,1741839284.535688
0.233,0.01375,-0.03875,-0.0052185003,0.000122000005,0.00320425,1741839284.550702
0.226,0.0065,-0.04525,-0.0057677496,0.0009765,0.0034637498,1741839284.564656
0.22225,0.0025,-0.05075,-0.0066985004,0.00090025004,0.00402825,1741839284.581106
0.2265,0.0,-0.0545,-0.0068969997,-6.1000002e-05,0.00444025,1741839284.593874
0.23175,0.004,-0.05325,-0.0069580004,-0.0017242499,0.0047302498,1741839284.608494
0.24175,0.00875,-0.04475,-0.00688175,-0.002121,0.0044707498,1741839284.6230452
0.24775,0.00725,-0.03875,-0.006668,-0.00239575,0.00416575,1741839284.63771
0.25225,0.00925,-0.033,-0.00662225,-0.00177,0.0042267498,1741839284.65227
0.24925,0.01175,-0.03675,-0.0070495,-0.00074775,0.00460825,1741839284.666846
0.24425,0.013,-0.04375,-0.0080872495,0.00149525,0.00543225,1741839284.6813812
0.2355,0.01525,-0.05625,-0.0078735,0.00169375,0.00538625,1741839284.695986
0.23675,0.015,-0.056,-0.0058287503,-0.0003205,0.00372325,1741839284.710619
0.24325,0.0085,-0.04625,-0.00460825,-0.0015565,0.00279225,1741839284.7252018
0.24525,0.00825,-0.0395,-0.00378425,-0.002777,0.0028074998,1741839284.7411551
0.24975,0.016,-0.02925,-0.00428775,-0.0027160002,0.0034484998,1741839284.754297
0.2505,0.02075,-0.0285,-0.0055237496,-0.0009765,0.00399775,1741839284.768882
0.24175,0.026,-0.04,-0.0058899997,3.0500001e-05,0.003891,1741839284.7835
0.23625,0.0285,-0.048,-0.0061339997,0.00036625,0.003662,1741839284.798037
0.23625,0.02325,-0.053,-0.0055695,-0.00061025,0.0034790002,1741839284.813473
0.23975,0.01975,-0.05025,-0.0042267498,-0.00354,0.00314325,1741839284.8274
0.249,0.0215,-0.0325,-0.00411975,-0.0044250004,0.0030365,1741839284.841975
0.25325,0.0225,-0.0235,-0.004242,-0.0045012496,0.00289925,1741839284.8566139
0.25025,0.02625,-0.02425,-0.00367725,-0.00331125,0.002411,1741839284.871423
0.244,0.02825,-0.0325,-0.00328075,-0.002777,0.0023039998,1741839284.885972
0.23775,0.02875,-0.0425,-0.00369275,-0.0025940002,0.0027465,1741839284.9007418
0.232,0.02675,-0.05175,-0.004242,-0.0031585,0.00302125,1741839284.91537
0.23475,0.0285,-0.044,-0.00331125,-0.00561525,0.0021972498,1741839284.931502
0.25075,0.034,-0.00975,-0.00181575,-0.0064239996,0.0008545,1741839284.944535
0.25575,0.03225,0.00325,-0.0002595,-0.0055085,-0.0013885,1741839284.959139
0.25525,0.02325,0.0045,-0.00080875,-0.0042115003,-0.0011445,1741839284.973739
0.25025,0.021,-0.00475,-0.00263975,-0.0020599999,0.000824,1741839284.988395
0.237,0.02125,-0.03,-0.0031889998,-0.0017395001,0.00175475,1741839285.003049
0.23075,0.022,-0.03875,-0.00283825,-0.0024872501,0.0021057501,1741839285.01771
0.2265,0.02675,-0.0385,-0.0022277501,-0.00343325,0.0018005001,1741839285.032219
0.231,0.03025,-0.02775,-0.00125125,-0.00511175,0.0013885,1741839285.046806
0.24575,0.03425,-0.0005,-0.00115975,-0.00535575,0.001236,1741839285.0631528
0.24775,0.0315,0.001,-0.00228875,-0.0054780003,0.001587,1741839285.0760472
0.2455,0.02425,-0.0075,-0.00251775,-0.0050812503,0.0019225,1741839285.0913181
0.2435,0.02425,-0.00875,-0.0020752498,-0.0043639997,0.00190725,1741839285.105165
0.24325,0.03075,-0.002,-0.001068,-0.0028687501,0.0013885,1741839285.121006
0.243,0.03425,0.0005,-0.00105275,-0.0024414998,0.0013580001,1741839285.1343958
0.24275,0.035,0.00125,-0.001831,-0.00238025,0.0018005001,1741839285.150502
