acc_x,acc_y,acc_z,gyro_x,gyro_y,gyro_z,timestamp
-0.02125,0.004,0.25275,-0.00514225,0.00035100002,-0.002533,1741839697.356917
-0.02075,0.00775,0.25425,-0.00440975,0.0007325,-0.0021972498,1741839697.370789
-0.01975,0.01575,0.252,-0.00390625,0.00112925,-0.0021057501,1741839697.386463
-0.02,0.017,0.25025,-0.0037537501,0.00149525,-0.0020752498,1741839697.39995
-0.0205,0.01625,0.248,-0.004547,0.0017852499,-0.0021972498,1741839697.4161658
-0.02,0.013,0.24375,-0.0045777503,0.00157175,-0.0022735,1741839697.429288
-0.01925,0.0115,0.24275,-0.0028074998,0.000885,-0.001831,1741839697.4439192
-0.01725,0.01425,0.24725,-0.0015565,0.00059500005,-0.00143425,1741839697.458616
-0.0165,0.0185,0.25225,-0.000122000005,0.00054925,-0.00131225,1741839697.4731991
-0.015,0.01875,0.25825,-0.000183,0.000824,-0.0016175,1741839697.487809
-0.01475,0.01525,0.258,-0.0007935,0.00146475,-0.0021972498,1741839697.5024178
-0.01475,0.008,0.253,-0.0008545,0.001648,-0.0022735,1741839697.516981
-0.01475,0.00675,0.25,-0.00024425,0.0014037499,-0.00181575,1741839697.5317068
-0.01325,0.00975,0.2475,-6.1000002e-05,0.0011445,-0.00143425,1741839697.546276
-0.0125,0.01275,0.249,-0.00051875,0.00070200005,-0.0010375,1741839697.560809
-0.01125,0.0165,0.25325,-0.00054925,0.00070200005,-0.00105275,1741839697.575489
-0.012,0.0175,0.25125,-0.00010675,0.00109875,-0.001175,1741839697.590027
-0.01325,0.018,0.2425,-0.000122000005,0.0011445,-0.0012207499,1741839697.604693
-0.01225,0.01725,0.24125,-0.00042725,0.0009765,-0.0012055,1741839697.619285
-0.01075,0.01475,0.2415,-0.000885,0.00035100002,-0.0011445,1741839697.6339169
-0.0115,0.013,0.2415,-0.000824,-3.0500001e-05,-0.001175,1741839697.6487198
-0.0125,0.01125,0.244,-0.0012207499,-0.000824,-0.001007,1741839697.663399
-0.0145,0.00925,0.255,-0.00137325,-0.00096125,-0.00077825,1741839697.678879
-0.0155,0.01,0.2585,-0.0009155,-0.00048825,-0.0003815,1741839697.6927848
-0.01825,0.01625,0.25625,-0.000763,-9.15e-05,-0.0003815,1741839697.7076008
-0.0185,0.018,0.25275,-0.00112925,0.0005035,-0.00059500005,1741839697.722176
-0.017,0.0185,0.245,-0.001419,0.00057975,-0.00068675,1741839697.736814
-0.01625,0.01825,0.24125,-0.00119025,0.00035100002,-0.00065625,1741839697.7514172
-0.0165,0.02075,0.237,-0.00083925005,6.1000002e-05,-0.00061025,1741839697.765981
-0.017,0.02175,0.23775,-0.0005645,-0.0005645,-0.00059500005,1741839697.780606
-0.017,0.02125,0.2445,-0.00068675,-0.00077825,-0.00065625,1741839697.7962382
-0.01675,0.01975,0.249,-0.0007325,-0.00086975005,-0.00083925005,1741839697.810039
-0.01825,0.019,0.252,-0.0005645,-0.00068675,-0.00083925005,1741839697.824828
-0.019,0.01975,0.25025,-0.00024425,-0.0003815,-0.0008545,1741839697.839605
-0.01825,0.02175,0.24625,-7.625e-05,-0.00035100002,-0.000946,1741839697.854284
-0.0175,0.023,0.24475,0.00019825,-0.000412,-0.001175,1741839697.8688772
-0.017,0.0235,0.24375,0.000183,-0.000473,-0.00131225,1741839697.883512
-0.017,0.0215,0.2435,0.00019825,-0.00065625,-0.00137325,1741839697.898088
-0.017,0.017,0.24425,0.00033575002,-0.0007935,-0.0012055,1741839697.91269
-0.018,0.01725,0.2465,0.000473,-0.00096125,-0.00090025004,1741839697.929086
-0.02025,0.02125,0.25225,0.0005645,-0.00115975,-0.00068675,1741839697.941927
-0.0205,0.01925,0.254,0.000473,-0.00112925,-0.00090025004,1741839697.956597
-0.02025,0.01625,0.2545,0.00024425,-0.00093075,-0.00109875,1741839697.971195
-0.021,0.01475,0.25325,0.0003205,-0.000824,-0.00108325,1741839697.986048
-0.0225,0.01425,0.25225,0.00039675,-0.0007935,-0.00108325,1741839698.0004952
-0.01875,0.01475,0.254,0.00016775,-0.0007935,-0.00086975005,1741839698.015965
-0.01475,0.01925,0.2525,0.00027475,-0.0005645,-0.00074775,1741839698.029737
-0.018,0.02025,0.2455,0.000473,-0.0005645,-0.001068,1741839698.0442839
-0.022,0.0155,0.2475,-0.00048825,-0.00105275,-0.0012665,1741839698.058989
-0.02525,0.00975,0.25925,-0.0011445,-0.00125125,-0.0009765,1741839698.073557
-0.02425,0.011,0.2625,-0.00077825,-0.00096125,-0.00039675,1741839698.0882611
-0.0215,0.0185,0.2585,-3.0500001e-05,-0.00061025,-0.00035100002,1741839698.102902
-0.02125,0.02125,0.253,0.0003205,-3.0500001e-05,-0.0005645,1741839698.117522
-0.02,0.024,0.2445,-0.0002135,6.1000002e-05,-0.00071725,1741839698.132187
-0.01925,0.02375,0.241,-0.00096125,-1.5250001e-05,-0.0010375,1741839698.1467788
-0.01825,0.02,0.23575,-0.00090025004,-0.00019825,-0.00109875,1741839698.161497
-0.0185,0.01925,0.236,-0.00068675,-0.00051875,-0.001007,1741839698.1761558
-0.0195,0.02075,0.242,-0.00035100002,-0.00108325,-0.00051875,1741839698.190814
-0.02,0.02325,0.24475,-0.0002135,-0.001175,-0.00036625,1741839698.206443
-0.0205,0.0255,0.24625,6.1000002e-05,-0.001114,-0.00051875,1741839698.220057
-0.02225,0.02375,0.246,-0.00010675,-0.001068,-0.00067150005,1741839698.234766
-0.0225,0.0225,0.246,-0.00036625,-0.00099175,-0.00070200005,1741839698.249486
-0.02225,0.024,0.2455,-9.15e-05,-0.00102225,-0.00062550005,1741839698.2640798
-0.02175,0.02575,0.24575,0.000534,-0.0012207499,-0.00070200005,1741839698.279006
-0.0205,0.027,0.24775,0.00045775,-0.0012665,-0.00083925005,1741839698.293262
-0.01975,0.026,0.24875,7.625e-05,-0.00112925,-0.001175,1741839698.307879
-0.01925,0.02275,0.249,0.00024425,-0.00099175,-0.0013427499,1741839698.3225
-0.01975,0.02075,0.2475,0.00099175,-0.000824,-0.001587,1741839698.3370838
-0.02075,0.0195,0.2425,0.0012055,-0.0009155,-0.0016175,1741839698.351686
-0.0205,0.0205,0.24325,0.00143425,-0.00143425,-0.00148,1741839698.36622
-0.02075,0.0205,0.24975,0.0016632499,-0.001587,-0.0014495,1741839698.380727
-0.02125,0.0195,0.25175,0.0023039998,-0.00149525,-0.001526,1741839698.396054
-0.02175,0.0175,0.2565,0.0028074998,-0.0013275,-0.00160225,1741839698.409858
-0.0215,0.0185,0.26075,0.0034484998,-0.001007,-0.0017395001,1741839698.424489
-0.022,0.02,0.25925,0.00535575,0.00010675,-0.00238025,1741839698.438991
-0.02325,0.01825,0.2545,0.0061950004,0.0005035,-0.0027312501,1741839698.453494
-0.024,0.01425,0.25025,0.0071409997,0.00057975,-0.0030975002,1741839698.4679942
-0.02525,0.00675,0.24725,0.0075225,0.00045775,-0.00320425,1741839698.482524
-0.025,0.00475,0.24875,0.008346501,0.00024425,-0.00317375,1741839698.4970849
-0.025,0.0025,0.25175,0.0086975,0.0003205,-0.0030365,1741839698.511671
-0.02375,0.003,0.2555,0.009887749,0.001114,-0.003006,1741839698.5261838
-0.02075,0.00075,0.26525,0.012176501,0.00216675,-0.00308225,1741839698.540647
-0.0225,-0.00275,0.263,0.0178375,0.00393675,-0.0034942501,1741839698.556182
-0.02575,-0.01425,0.2455,0.0188445,0.0038757501,-0.0036315,1741839698.569833
-0.0245,-0.01825,0.24125,0.01747125,0.0029907501,-0.00317375,1741839698.58447
-0.021,-0.02325,0.24525,0.016159,0.002533,-0.0029145,1741839698.5991502
-0.0195,-0.0245,0.247,0.015228249,0.002411,-0.00270075,1741839698.613684
-0.014,-0.02525,0.2435,0.01690675,0.0033264998,-0.00239575,1741839698.628852
-0.0115,-0.026,0.242,0.0208435,0.004242,-0.00225825,1741839698.6428642
-0.01175,-0.03,0.24575,0.033462502,0.0057525,-0.00270075,1741839698.6575732
-0.0175,-0.04575,0.2515,0.038025003,0.0057372497,-0.0033264998,1741839698.67231
-0.01875,-0.05775,0.251,0.038849,0.0048217503,-0.00453175,1741839698.6869051
-0.01425,-0.0825,0.2485,0.03518675,0.0038605002,-0.00453175,1741839698.7014909
-0.01325,-0.08675,0.251,0.0259095,0.00302125,-0.0028687501,1741839698.7161112
-0.0125,-0.086,0.24675,0.0242005,0.00411975,-0.00193775,1741839698.730714
-0.01225,-0.0865,0.23975,0.02680975,0.0056609996,-0.0013885,1741839698.746166
-0.00975,-0.094,0.23325,0.028289748,0.00517275,-0.0013885,1741839698.760077
-0.00875,-0.096,0.23075,0.030075,0.0044707498,-0.00077825,1741839698.774753
-0.00625,-0.102,0.2225,0.0314025,0.00463875,-0.00065625,1741839698.789419
-0.00425,-0.1085,0.219,0.034057498,0.0037537501,-0.00070200005,1741839698.804116
-0.00025,-0.12425,0.218,0.0358125,0.00292975,-0.0003205,1741839698.818728
-0.00125,-0.13125,0.213,0.038314752,0.0009155,0.00077825,1741839698.8331861
-0.0025,-0.13125,0.2195,0.038269002,0.0002135,0.001068,1741839698.847711
-0.00375,-0.135,0.2185,0.03872675,0.00039675,0.00093075,1741839698.86216
-0.00375,-0.1525,0.20225,0.0405425,0.0019989999,-0.0002595,1741839698.876802
-0.00275,-0.1545,0.19975,0.03984075,0.0021972498,-0.00059500005,1741839698.891408
-0.0025,-0.15575,0.1965,0.037857,0.00242625,-9.15e-05,1741839698.906591
-0.00275,-0.16675,0.177,0.037155252,0.0025940002,0.00024425,1741839698.9205601
-0.0015,-0.17125,0.17725,0.0375825,0.00254825,-0.0003815,1741839698.936173
-0.00125,-0.18175,0.1785,0.039367747,0.0029145,-0.000946,1741839698.9497511
-0.003,-0.184,0.169,0.041092,0.00343325,-0.00169375,1741839698.964434
-0.00375,-0.18675,0.15375,0.0392915,0.003128,-0.0019225,1741839698.979008
-0.003,-0.19275,0.1485,0.034606997,0.0026245,-0.0015105,1741839698.993578
-0.00075,-0.20775,0.13275,0.0326995,0.00254825,-0.000885,1741839699.008157
-0.0025,-0.211,0.128,0.03164675,0.0021819999,3.0500001e-05,1741839699.022729
-0.00625,-0.2065,0.11975,0.033615,0.0019685,-0.00013725001,1741839699.0373938
-0.00425,-0.2075,0.11625,0.035873502,0.00154125,-0.00137325,1741839699.0519218
-0.0,-0.218,0.111,0.0347595,0.00169375,-0.00177,1741839699.066592
0.00025,-0.22475,0.1055,0.0329285,0.0021057501,-0.0018005001,1741839699.081193
-0.0025,-0.23,0.08975,0.0301055,0.0030365,-0.00105275,1741839699.096533
-0.00325,-0.229,0.08175,0.029663,0.0029907501,-0.000824,1741839699.1104052
-0.0035,-0.22975,0.0755,0.02746575,0.0021057501,-0.0009155,1741839699.125092
-0.003,-0.237,0.0665,0.025085501,0.00175475,-0.00086975005,1741839699.139662
-0.00275,-0.23725,0.0655,0.02073675,0.00137325,-0.00068675,1741839699.155377
-0.00275,-0.23625,0.074,0.02101125,0.001648,-0.00080875,1741839699.1688588
-0.00075,-0.24275,0.0715,0.022369498,0.003128,-0.0001525,1741839699.183391
0.003,-0.258,0.058,0.02127075,0.00411975,0.001114,1741839699.197824
0.001,-0.25125,0.04375,0.017334,0.0051269997,0.003296,1741839699.212242
0.00375,-0.24125,0.03075,0.014160249,0.00437925,0.0030365,1741839699.226806
0.006,-0.241,0.03225,0.008361749,0.0013580001,0.002472,1741839699.2412028
0.002,-0.24925,0.033,0.0079345,-1.5250001e-05,0.0025787498,1741839699.256554
-0.0,-0.25525,0.03125,0.01148975,0.00061025,0.001236,1741839699.270196
-0.00025,-0.256,0.03175,0.0142365,0.0020599999,0.00036625,1741839699.2855291
-0.00325,-0.25,0.029,0.0157165,0.00331125,4.575e-05,1741839699.2991118
-0.00275,-0.24825,0.02475,0.014862,0.0041810004,-0.00029,1741839699.3136482
0.00325,-0.257,0.01325,0.013992251,0.0038299998,-0.00048825,1741839699.328256
0.003,-0.25725,0.01225,0.012252751,0.00267025,-0.00071725,1741839699.342767
0.002,-0.25175,0.015,0.011550999,0.00204475,-0.00077825,1741839699.357269
0.00225,-0.25375,0.01275,0.00976575,0.001114,-0.001007,1741839699.37181
0.0035,-0.25575,0.01125,0.008407501,0.00080875,-0.00099175,1741839699.3863811
0.00325,-0.25625,0.01275,0.0062865,0.0010375,-0.00061025,1741839699.4009001
0.002,-0.25225,0.01025,0.005539,0.00177,-0.00051875,1741839699.4162712
0.00075,-0.251,0.005,0.0034942501,0.00267025,-0.00048825,1741839699.429889
0.0005,-0.24825,0.0005,0.0019989999,0.00245675,-0.00061025,1741839699.444501
0.0015,-0.24625,0.00275,-0.00029,0.0014495,-0.000824,1741839699.4591
0.00275,-0.24825,0.0075,-0.00057975,0.0012207499,-0.00086975005,1741839699.473672
0.00375,-0.251,0.00725,-0.00065625,0.00131225,-0.00093075,1741839699.4882429
0.00425,-0.253,0.006,-0.00030525,0.0012665,-0.000763,1741839699.5028858
0.00325,-0.25425,0.00525,0.00010675,0.00080875,-0.0005645,1741839699.517483
0.00275,-0.254,0.006,-0.0005645,6.1000002e-05,-0.00030525,1741839699.532166
0.00325,-0.255,0.004,-0.00216675,3.0500001e-05,-0.0003815,1741839699.54679
0.003,-0.2565,0.0025,-0.0070342496,-0.0003815,-0.000183,1741839699.561526
-0.00125,-0.25125,0.00525,-0.00823975,-0.0009765,0.00033575002,1741839699.5762932
-0.00125,-0.25,0.00925,-0.0080415,-0.001648,0.00096125,1741839699.590973
0.00075,-0.2495,0.01375,-0.008346501,-0.00148,0.00099175,1741839699.6067462
0.00125,-0.24725,0.01175,-0.0079345,-0.0010375,0.00105275,1741839699.620269
0.00275,-0.246,0.0035,-0.008148249,-0.00148,0.001068,1741839699.6360252
0.003,-0.248,0.0055,-0.011535751,-0.00358575,0.00090025004,1741839699.649538
0.00325,-0.25075,0.019,-0.01330575,-0.0043639997,0.000763,1741839699.6643279
0.0025,-0.25025,0.02725,-0.01586925,-0.0043182503,0.0001525,1741839699.67932
0.003,-0.25025,0.04075,-0.0172425,-0.003769,6.1000002e-05,1741839699.6934688
0.004,-0.25025,0.0425,-0.02105725,-0.00283825,0.00074775,1741839699.708253
0.00325,-0.2475,0.0415,-0.023834249,-0.00267025,0.00096125,1741839699.722917
0.0025,-0.2455,0.0405,-0.031188998,-0.003769,0.0011445,1741839699.737559
0.0075,-0.24475,0.0595,-0.035324,-0.0049895,0.001419,1741839699.752151
0.00625,-0.24375,0.081,-0.038742002,-0.0054932497,0.0018005001,1741839699.766804
0.00325,-0.23925,0.10175,-0.0419465,-0.00201425,0.003128,1741839699.781491
0.0045,-0.2325,0.10775,-0.042633,0.00093075,0.0038605002,1741839699.796463
0.00675,-0.23025,0.1015,-0.043045,0.00372325,0.0043639997,1741839699.8105521
0.00875,-0.2225,0.10525,-0.04243475,0.0036010002,0.0043639997,1741839699.825074
0.009,-0.21875,0.11225,-0.0401765,0.0030365,0.0042725,1741839699.839584
0.0095,-0.2135,0.1225,-0.038498,0.0030365,0.0039825,1741839699.854076
0.01,-0.21225,0.125,-0.036728002,0.00242625,0.0037385002,1741839699.868662
0.0145,-0.20575,0.13525,-0.03752125,0.0015105,0.00381475,1741839699.8832462
0.0135,-0.20175,0.1445,-0.03752125,0.0002135,0.0033264998,1741839699.897821
0.011,-0.19025,0.15625,-0.0351105,0.00013725001,0.0027312501,1741839699.9122849
0.014,-0.186,0.16175,-0.0310975,-0.00071725,0.00198375,1741839699.926878
0.01575,-0.18075,0.171,-0.03141775,-0.0012665,0.0019989999,1741839699.941528
0.01525,-0.17875,0.1775,-0.032897998,-0.00146475,0.00216675,1741839699.956657
0.013,-0.1745,0.18725,-0.0355835,-0.00024425,0.00251775,1741839699.970787
0.0125,-0.171,0.188,-0.036255002,0.00062550005,0.0028535,1741839699.985844
0.01075,-0.16075,0.1845,-0.0364075,0.0012055,0.00372325,1741839699.999876
0.0145,-0.14075,0.188,-0.035949748,0.00067150005,0.00340275,1741839700.014534
0.01725,-0.1365,0.19725,-0.0372925,-0.00059500005,0.0024414998,1741839700.029162
0.0185,-0.1355,0.212,-0.038437,-0.0004425,0.00238025,1741839700.043854
0.0165,-0.1375,0.2145,-0.03878775,0.00051875,0.0031585,1741839700.058391
0.01375,-0.1265,0.2175,-0.03742975,0.0005645,0.00378425,1741839700.072913
0.01525,-0.113,0.226,-0.03668225,-0.00077825,0.00369275,1741839700.08771
0.0175,-0.101,0.2415,-0.039672747,-0.0013427499,0.0030975002,1741839700.102379
0.01875,-0.1035,0.22975,-0.04739375,-0.0015565,0.0031585,1741839700.116991
0.01575,-0.09775,0.207,-0.046752997,-0.00354,0.003891,1741839700.1315892
0.00975,-0.086,0.2155,-0.03762825,-0.008667,0.0045165,1741839700.1461692
0.006,-0.06125,0.2345,-0.031540003,-0.0090485,0.003952,1741839700.160774
0.00775,-0.05575,0.245,-0.02339175,-0.00535575,0.00238025,1741839700.175352
0.00925,-0.0565,0.251,-0.02342225,-0.00381475,0.0018615,1741839700.189913
0.0095,-0.05725,0.24825,-0.02528375,-0.0035095,0.0017852499,1741839700.204638
0.00875,-0.0545,0.24325,-0.028061,-0.00358575,0.00328075,1741839700.2193742
0.00775,-0.04675,0.24175,-0.027740499,-0.0032655,0.0045625,1741839700.2339468
0.00675,-0.0355,0.24075,-0.024932751,-0.0030669998,0.0064239996,1741839700.248682
0.0075,-0.01375,0.24575,-0.023650998,-0.00325,0.006546,1741839700.2633479
0.008,-0.00525,0.25075,-0.02316275,-0.003006,0.0058135,1741839700.279194
0.0065,-0.00025,0.25475,-0.023650998,-0.0025025,0.0051880004,1741839700.292573
0.00575,-0.00275,0.25225,-0.023803748,-0.00157175,0.00466925,1741839700.307086
0.00625,-0.001,0.246,-0.02247625,-0.00148,0.005066,1741839700.3216598
0.00625,0.0075,0.24575,-0.01994325,-0.0020295,0.00593575,1741839700.336512
0.0045,0.02075,0.24925,-0.0206605,-0.0020905002,0.0059815003,1741839700.350761
0.00375,0.025,0.25375,-0.02430725,-0.0015105,0.00555425,1741839700.36623
0.0015,0.0325,0.25675,-0.02565,-0.00109875,0.0052185003,1741839700.379796
0.001,0.03775,0.25475,-0.026000999,-0.0004425,0.00440975,1741839700.394287
0.004,0.049,0.25125,-0.02519225,-9.15e-05,0.0040587503,1741839700.408813
0.00375,0.055,0.2515,-0.0240325,0.00027475,0.00378425,1741839700.423133
0.00125,0.06,0.24875,-0.02253725,0.0007325,0.0032347501,1741839700.437668
0.00025,0.0655,0.2395,-0.02253725,0.00061025,0.00292975,1741839700.4521759
0.0015,0.062,0.2395,-0.02085875,0.0,0.0028229998,1741839700.46666
0.0045,0.0605,0.23925,-0.0180665,-0.0003205,0.0032655,1741839700.4813042
0.00375,0.067,0.2365,-0.01222225,-0.00064075,0.00419625,1741839700.4963992
0.003,0.08175,0.231,-0.011260999,-0.0008545,0.00402825,1741839700.5103009
0.00325,0.08475,0.23275,-0.012924249,-0.00108325,0.003296,1741839700.524769
0.00225,0.08575,0.23625,-0.014297499,-0.00080875,0.0029755002,1741839700.539308
-0.00025,0.0855,0.2345,-0.015518251,-0.00029,0.00267025,1741839700.553885
-0.003,0.086,0.2275,-0.0149995005,-0.00062550005,0.0025787498,1741839700.5685928
-0.003,0.0895,0.2265,-0.012680001,-0.0018005001,0.0024872501,1741839700.5831869
-0.003,0.098,0.229,-0.01145925,-0.002121,0.00239575,1741839700.597888
-0.00275,0.10425,0.229,-0.010681249,-0.002121,0.00225825,1741839700.61258
-0.0055,0.10325,0.22275,-0.013702501,-0.00154125,0.0021972498,1741839700.6271412
-0.00425,0.10175,0.2225,-0.016983,-0.00177,0.00225825,1741839700.641812
-0.0035,0.102,0.22325,-0.02012625,-0.0025940002,0.0020752498,1741839700.656351
-0.006,0.10775,0.22,-0.0197295,-0.00305175,0.002121,1741839700.670955
-0.00675,0.1115,0.21725,-0.019439751,-0.00369275,0.002777,1741839700.685664
-0.00825,0.11775,0.2165,-0.02034,-0.0035095,0.0030975002,1741839700.700403
-0.00975,0.1185,0.21675,-0.022949249,-0.00305175,0.00289925,1741839700.7161531
-0.01325,0.12675,0.215,-0.023285,-0.002884,0.002655,1741839700.72964
-0.0145,0.1325,0.2135,-0.020996,-0.0033875,0.00254825,1741839700.74428
-0.0105,0.13425,0.21075,-0.019638,-0.00381475,0.0025025,1741839700.758816
-0.01175,0.1375,0.21025,-0.019134501,-0.00393675,0.0028229998,1741839700.773504
-0.01425,0.1505,0.2055,-0.0193635,-0.003128,0.0031127501,1741839700.78807
-0.016,0.1555,0.2005,-0.02073675,-0.00198375,0.0031889998,1741839700.802649
-0.01675,0.15925,0.191,-0.021179251,-0.0021819999,0.0029907501,1741839700.817368
-0.017,0.1615,0.1885,-0.02127075,-0.0029907501,0.00302125,1741839700.831958
-0.0185,0.171,0.1895,-0.021286,-0.00308225,0.00279225,1741839700.8466501
-0.01825,0.16925,0.19125,-0.019516,-0.0034942501,0.001648,1741839700.861342
-0.02125,0.163,0.18975,-0.01776125,-0.0033875,0.001953,1741839700.875844
-0.02225,0.17,0.1885,-0.016265752,-0.003006,0.0025787498,1741839700.890545
-0.02275,0.17825,0.18825,-0.014785751,-0.00181575,0.0029755002,1741839700.906532
-0.023,0.186,0.18425,-0.01490775,-0.001114,0.002655,1741839700.91979
-0.0225,0.18625,0.18125,-0.01573175,4.575e-05,0.0020295,1741839700.93427
-0.02325,0.18375,0.1755,-0.01531975,0.0005035,0.0017242499,1741839700.9487948
-0.02425,0.18375,0.17125,-0.0138245,0.00083925005,0.0015105,1741839700.9632761
-0.02525,0.18125,0.166,-0.01330575,0.00067150005,0.0017242499,1741839700.979159
-0.026,0.179,0.16375,-0.0115205,0.00065625,0.002121,1741839700.9922502
-0.026,0.19775,0.15525,-0.01065075,0.00071725,0.002365,1741839701.006882
-0.02575,0.1995,0.1525,-0.0104065,-0.000122000005,0.0014495,1741839701.0213592
-0.02625,0.185,0.14875,-0.011123749,-0.00096125,0.0009765,1741839701.036167
-0.0275,0.1915,0.149,-0.012680001,-0.001709,0.0012817499,1741839701.050588
-0.0255,0.1945,0.151,-0.012680001,-0.00193775,0.0012817499,1741839701.066303
-0.02575,0.189,0.1495,-0.012329,-0.00225825,0.0014037499,1741839701.079851
-0.0265,0.18725,0.1445,-0.011321999,-0.0022125002,0.002121,1741839701.0944588
-0.02625,0.18925,0.14075,-0.010803251,-0.0020752498,0.00267025,1741839701.109161
-0.0265,0.19925,0.138,-0.0104065,-0.002533,0.0033722501,1741839701.123938
-0.03175,0.22025,0.13475,-0.01095575,-0.0026854998,0.0029755002,1741839701.1386409
-0.03275,0.2205,0.13325,-0.015304499,-0.00254825,0.0019685,1741839701.1533492
-0.03275,0.21125,0.12825,-0.01753225,-0.00276175,0.002121,1741839701.16792
-0.034,0.20525,0.1235,-0.0172425,-0.0033722501,0.0023039998,1741839701.182522
-0.0365,0.20875,0.109,-0.015808,-0.0037385002,0.0023345,1741839701.197126
-0.03825,0.21475,0.099,-0.01681525,-0.00541675,0.00305175,1741839701.211893
-0.03575,0.20975,0.10825,-0.01841725,-0.0066985004,0.0031889998,1741839701.226569
-0.03425,0.20425,0.11975,-0.01655575,-0.0068207504,0.002884,1741839701.24117
-0.03525,0.2165,0.1185,-0.013488751,-0.0058135,0.00289925,1741839701.2567391
-0.03875,0.22875,0.109,-0.01193225,-0.00402825,0.00245675,1741839701.270399
-0.0405,0.232,0.108,-0.01412975,-0.0037385002,0.0017852499,1741839701.285873
-0.0405,0.22975,0.11025,-0.01501475,-0.0025634998,7.625e-05,1741839701.299635
-0.0455,0.22425,0.10375,-0.014038,-0.001587,-0.00045775,1741839701.315642
-0.0455,0.22225,0.0995,-0.014328,-0.00029,-7.625e-05,1741839701.329335
-0.04325,0.227,0.08525,-0.015335,-0.00030525,0.00024425,1741839701.343864
-0.042,0.22725,0.082,-0.01525875,-0.0012055,0.00086975005,1741839701.358539
-0.0405,0.21925,0.0915,-0.014389,-0.00112925,0.001007,1741839701.373064
-0.039,0.22125,0.0925,-0.01361075,-0.000412,0.00119025,1741839701.387676
-0.03875,0.226,0.089,-0.01077275,0.001236,0.00187675,1741839701.402167
-0.03925,0.22925,0.08025,-0.008209251,0.001648,0.0016785001,1741839701.416773
-0.039,0.22775,0.07775,-0.00225825,0.0022735,0.00071725,1741839701.4312692
-0.0385,0.235,0.075,0.000229,0.0027160002,0.000473,1741839701.446403
-0.0415,0.2405,0.07475,0.00367725,0.00302125,-0.0002135,1741839701.4602082
-0.0485,0.24125,0.078,0.00437925,0.003418,-0.00045775,1741839701.474779
-0.0465,0.2395,0.0765,0.00340275,0.0041810004,-0.0005035,1741839701.4892852
-0.04425,0.23725,0.07225,0.00238025,0.00372325,-0.00065625,1741839701.503763
-0.04325,0.2305,0.07675,0.00074775,0.00225825,-0.0009765,1741839701.518275
-0.04225,0.22075,0.08325,0.00096125,0.0020295,-0.00062550005,1741839701.532779
-0.04225,0.221,0.081,0.00169375,0.0021515,1.5250001e-05,1741839701.5471659
-0.042,0.23525,0.07075,0.00175475,0.00201425,0.00064075,1741839701.561716
-0.0405,0.23475,0.0735,0.0001525,0.0014037499,0.00054925,1741839701.576162
-0.03875,0.23075,0.08,-0.0009155,0.00042725,1.5250001e-05,1741839701.590702
-0.04175,0.233,0.0765,7.625e-05,0.0004425,-0.000229,1741839701.606626
-0.0425,0.23225,0.0775,-0.00093075,0.000122000005,-0.00042725,1741839701.6199198
-0.03925,0.22575,0.09725,-0.001007,0.0002135,-0.00024425,1741839701.634578
-0.03825,0.22925,0.1015,0.0041504996,0.00213625,0.000229,1741839701.648962
-0.04025,0.242,0.07975,0.0071105,0.003006,0.000229,1741839701.663378
-0.0405,0.244,0.07,0.009734999,0.00190725,-0.00093075,1741839701.678997
-0.0355,0.23175,0.08175,0.01092525,0.00065625,-0.0014495,1741839701.692554
-0.03475,0.2315,0.08775,0.0163575,0.0005035,-0.00198375,1741839701.707005
-0.0395,0.229,0.0815,0.0170745,0.00112925,-0.002365,1741839701.721536
-0.03875,0.21975,0.08325,0.015289251,0.00102225,-0.0026245,1741839701.736428
-0.0365,0.2135,0.089,0.012267999,0.00030525,-0.00190725,1741839701.75052
-0.03425,0.221,0.0955,0.012619001,0.0002595,-0.00148,1741839701.7662232
-0.0355,0.22725,0.0985,0.014099,-0.0002135,-0.00190725,1741839701.779567
-0.0365,0.21475,0.11225,0.014663749,-0.00024425,-0.00231925,1741839701.794145
-0.03475,0.20725,0.12075,0.019867001,0.00048825,-0.0022735,1741839701.808757
-0.033,0.205,0.125,0.024765,0.000824,-0.001831,1741839701.823296
-0.0355,0.2105,0.12125,0.031952,0.001648,-0.0009765,1741839701.837775
-0.03875,0.209,0.119,0.031570498,0.00201425,-0.00074775,1741839701.852288
-0.0355,0.20525,0.126,0.026855499,0.001114,-0.001068,1741839701.866752
-0.029,0.1945,0.143,0.026550248,0.00064075,-0.001236,1741839701.881278
-0.02975,0.19875,0.14625,0.02981575,0.000183,-0.0012817499,1741839701.896084
-0.031,0.20075,0.162,0.03227225,0.00016775,-0.0017395001,1741839701.910235
-0.0325,0.19725,0.166,0.03509525,0.0004425,-0.00239575,1741839701.924696
-0.034,0.19125,0.16675,0.03739925,0.000763,-0.0032347501,1741839701.939201
-0.0335,0.184,0.17575,0.03518675,0.00086975005,-0.0033722501,1741839701.953751
-0.03225,0.17975,0.1835,0.02708425,0.00093075,-0.0039825,1741839701.96824
-0.03125,0.15825,0.18575,0.02421575,0.00065625,-0.0042725,1741839701.982723
-0.031,0.1525,0.1835,0.02474975,-0.000183,-0.00384525,1741839701.9973671
-0.029,0.15175,0.18375,0.0265045,-0.00039675,-0.00352475,1741839702.0120509
-0.028,0.15075,0.18825,0.028991751,-0.0005645,-0.0032195,1741839702.026668
-0.02375,0.14225,0.20075,0.02967825,-0.00036625,-0.00302125,1741839702.041298
-0.02425,0.14125,0.20625,0.029998751,0.00057975,-0.00245675,1741839702.0565069
-0.027,0.14125,0.21725,0.028747499,0.0009765,-0.0025787498,1741839702.070233
-0.026,0.13275,0.2195,0.02439875,0.00149525,-0.0031889998,1741839702.086153
-0.0265,0.118,0.21425,0.0239715,0.001709,-0.00325,1741839702.0992692
-0.025,0.11175,0.20975,0.025665252,0.001709,-0.00325,1741839702.113716
-0.0245,0.10425,0.209,0.033141997,0.00077825,-0.00263975,1741839702.1288042
-0.02375,0.09775,0.22025,0.036376998,0.00030525,-0.0022277501,1741839702.142817
-0.024,0.09825,0.227,0.03752125,-0.000122000005,-0.0023039998,1741839702.157423
-0.024,0.09025,0.23975,0.035278253,-9.15e-05,-0.00270075,1741839702.172053
-0.02325,0.0845,0.246,0.02845775,0.000824,-0.0034790002,1741839702.1866739
-0.02175,0.06875,0.24875,0.027252251,0.0016175,-0.0036162501,1741839702.201165
-0.0235,0.05975,0.24125,0.032348752,0.0028535,-0.0033264998,1741839702.21622
-0.02525,0.055,0.22825,0.03572075,0.0028229998,-0.0032655,1741839702.230135
-0.023,0.05475,0.2285,0.036163248,0.001831,-0.0036010002,1741839702.2463832
-0.019,0.04225,0.2415,0.034423754,0.0015105,-0.003952,1741839702.259338
-0.01925,0.03375,0.24175,0.034073003,0.000885,-0.0044555003,1741839702.273931
-0.02125,0.02325,0.233,0.036193747,0.00048825,-0.0044707498,1741839702.28847
-0.02325,0.02225,0.234,0.03933725,7.625e-05,-0.0045012496,1741839702.303015
-0.023,0.00025,0.25375,0.047348,-0.0009765,-0.00637825,1741839702.317555
-0.0175,-0.02275,0.264,0.04898075,-0.0013885,-0.0076142503,1741839702.332267
-0.01225,-0.04175,0.26975,0.042099,-0.0011445,-0.0064850003,1741839702.347044
-0.01225,-0.055,0.255,0.03500375,-0.0003815,-0.0043639997,1741839702.361682
-0.01675,-0.0545,0.246,0.023056,0.000473,-0.001068,1741839702.376339
-0.01975,-0.04975,0.236,0.02012625,0.00013725001,-0.00054925,1741839702.391017
-0.0185,-0.0555,0.2445,0.01882925,-0.0012970001,-0.00019825,1741839702.4065962
-0.0165,-0.05325,0.256,0.017303498,-0.0013275,0.00048825,1741839702.420317
-0.017,-0.05075,0.25375,0.01374825,-0.001648,0.001953,1741839702.436149
-0.0195,-0.056,0.24475,0.01251225,-0.00177,0.00201425,1741839702.4495602
-0.01775,-0.05925,0.24225,0.008651749,-0.0019989999,0.0019685,1741839702.464066
-0.017,-0.06525,0.24075,0.00720225,-0.0025940002,0.00254825,1741839702.4792051
-0.0195,-0.07075,0.23825,0.00614925,-0.0034637498,0.004013,1741839702.493254
-0.0235,-0.075,0.234,0.0054932497,-0.0028229998,0.00444025,1741839702.5078368
-0.02525,-0.07375,0.23625,0.0054015,-0.0003815,0.0042725,1741839702.5225348
-0.027,-0.06875,0.241,0.005005,0.0004425,0.0037385002,1741839702.536949
-0.0245,-0.07025,0.242,0.00396725,0.000885,0.003006,1741839702.551438
-0.022,-0.074,0.24175,0.00070200005,0.00102225,0.0019989999,1741839702.566283
-0.02275,-0.07325,0.2435,0.00019825,0.001114,0.001892,1741839702.580451
-0.02275,-0.07175,0.24125,0.00027475,0.001953,0.00213625,1741839702.596555
-0.02225,-0.064,0.23825,-0.0003815,0.0021819999,0.0022735,1741839702.609501
-0.01925,-0.0645,0.2395,-0.00444025,0.0016632499,0.00242625,1741839702.624009
-0.017,-0.06975,0.23625,-0.0066374997,0.001175,0.0023345,1741839702.638676
-0.01875,-0.067,0.2355,-0.0073242504,0.00030525,0.001892,1741839702.653245
-0.02,-0.05625,0.24275,-0.00662225,1.5250001e-05,0.001587,1741839702.6678479
-0.01975,-0.05525,0.2445,-0.0043944996,-0.000183,0.00064075,1741839702.6826618
-0.0175,-0.06225,0.244,-0.00289925,-6.1000002e-05,0.0001525,1741839702.697334
-0.016,-0.06625,0.2435,0.001007,0.000473,7.625e-05,1741839702.711912
-0.01775,-0.0635,0.24675,0.00228875,0.00045775,0.000473,1741839702.726464
-0.0195,-0.05875,0.24925,0.00154125,0.00045775,0.000824,1741839702.7409
-0.02025,-0.06025,0.245,0.00181575,0.00065625,0.00030525,1741839702.7565582
-0.01975,-0.06675,0.239,0.00408925,0.00096125,-0.000534,1741839702.770002
-0.019,-0.0745,0.234,0.0123595,0.001175,-0.00175475,1741839702.785735
-0.02025,-0.07775,0.2375,0.015579251,0.0007935,-0.0017852499,1741839702.799131
-0.02,-0.077,0.243,0.0190735,0.0005035,-0.00193775,1741839702.813765
-0.0145,-0.09,0.24475,0.020111,0.0002595,-0.001587,1741839702.8283489
-0.016,-0.09425,0.2375,0.02456675,-0.00086975005,-0.00036625,1741839702.843097
-0.01975,-0.09875,0.2245,0.027526751,-0.00137325,-7.625e-05,1741839702.857773
-0.02,-0.10225,0.22375,0.031601,-0.001175,9.15e-05,1741839702.872376
-0.01875,-0.1125,0.2305,0.0331725,-0.00099175,0.00024425,1741839702.886935
-0.01925,-0.115,0.23225,0.035736,-0.001068,0.00061025,1741839702.901532
-0.02275,-0.12025,0.22525,0.036728002,-0.00108325,0.0004425,1741839702.916221
-0.0225,-0.12675,0.22175,0.0375825,-0.000412,-0.00033575002,1741839702.9308429
-0.0195,-0.1405,0.218,0.036849998,0.000122000005,-0.00033575002,1741839702.945976
-0.02,-0.1435,0.2145,0.035446253,0.0015565,-0.0002595,1741839702.960243
-0.02075,-0.148,0.2025,0.03536975,0.00216675,-0.000473,1741839702.974911
-0.01975,-0.151,0.19525,0.034484748,0.0025787498,-0.00064075,1741839702.989596
-0.01875,-0.15675,0.183,0.033508252,0.0025787498,-0.00062550005,1741839703.004312
-0.01825,-0.16475,0.1795,0.032256998,0.0024872501,-0.0007325,1741839703.018976
-0.019,-0.181,0.17425,0.03070075,0.0026245,-0.0012055,1741839703.0336142
-0.019,-0.1875,0.17075,0.03158575,0.0028687501,-0.0013275,1741839703.0482528
-0.01725,-0.19625,0.1695,0.035263002,0.00292975,-0.000885,1741839703.062958
-0.02175,-0.191,0.15725,0.036743253,0.0026092501,-0.000412,1741839703.077635
-0.02475,-0.18125,0.147,0.03604125,0.00177,-0.00019825,1741839703.092258
-0.0175,-0.18925,0.134,0.03367625,0.0015565,-0.000763,1741839703.106943
-0.0135,-0.201,0.13475,0.029541,0.001175,-0.001526,1741839703.121561
-0.0145,-0.21275,0.134,0.028686501,0.00115975,-0.0015105,1741839703.13629
-0.01525,-0.216,0.12975,0.02719125,0.0018005001,-0.0013275,1741839703.1509829
-0.0175,-0.2125,0.11675,0.026092501,0.0021057501,-0.00109875,1741839703.1665
-0.01875,-0.21125,0.11125,0.023224002,0.0020295,-0.00137325,1741839703.1802409
-0.0165,-0.2155,0.10725,0.02142325,0.00184625,-0.00163275,1741839703.196251
-0.01575,-0.21925,0.1035,0.0170745,0.001419,-0.001587,1741839703.209485
-0.0155,-0.2275,0.0965,0.014846751,0.00112925,-0.001419,1741839703.223948
-0.01625,-0.2315,0.09525,0.01316825,0.000885,-0.00109875,1741839703.238508
-0.01975,-0.232,0.0885,0.013702501,0.00090025004,-0.0010375,1741839703.253011
-0.02,-0.2305,0.08525,0.014099,0.00086975005,-0.00112925,1741839703.267571
-0.02,-0.227,0.079,0.013183501,0.00068675,-0.001587,1741839703.282259
-0.0175,-0.23,0.079,0.012130749,0.00068675,-0.00190725,1741839703.296742
-0.01775,-0.2355,0.07925,0.0102845,0.00019825,-0.00225825,1741839703.311286
-0.019,-0.24775,0.0825,0.01054375,-1.5250001e-05,-0.0021057501,1741839703.326116
-0.01925,-0.25075,0.0845,0.01278675,0.0002135,-0.000946,1741839703.340779
-0.021,-0.24525,0.08,0.01367175,0.000534,-0.0003815,1741839703.356297
-0.02075,-0.24025,0.07375,0.01206975,0.0011445,7.625e-05,1741839703.3699808
-0.02025,-0.235,0.06175,0.0104674995,0.00119025,0.0,1741839703.384444
-0.0215,-0.23225,0.0575,0.00833125,0.00057975,-0.00064075,1741839703.399008
-0.0185,-0.23175,0.05775,0.0081635,0.00016775,-0.0012207499,1741839703.413611
-0.01725,-0.237,0.05975,0.008072,-0.00061025,-0.0020295,1741839703.4286752
-0.0185,-0.2515,0.062,0.0075682504,-0.00054925,-0.001953,1741839703.44313
-0.02,-0.2635,0.066,0.0059205,6.1000002e-05,-0.00074775,1741839703.457715
-0.025,-0.26125,0.0715,0.0049895,0.00051875,0.0002135,1741839703.472229
-0.0245,-0.25225,0.06375,0.0042267498,0.0014495,0.000824,1741839703.486685
-0.02075,-0.23975,0.04575,0.004303,0.0013275,0.00057975,1741839703.501208
-0.01925,-0.23825,0.04775,0.00381475,0.00083925005,0.000229,1741839703.516216
-0.01875,-0.24125,0.0515,0.00238025,0.000183,-0.000229,1741839703.5302222
-0.01975,-0.246,0.055,0.0027312501,0.000229,-0.000183,1741839703.546473
-0.02025,-0.2445,0.0535,0.0032655,0.00057975,-3.0500001e-05,1741839703.559372
-0.021,-0.2425,0.04725,0.00276175,0.00061025,-7.625e-05,1741839703.573962
-0.021,-0.244,0.04675,0.00102225,0.00039675,-0.00024425,1741839703.5885718
-0.02075,-0.24675,0.04825,0.00070200005,0.0003205,-0.000183,1741839703.6032891
-0.02075,-0.246,0.04925,0.001114,0.0002135,7.625e-05,1741839703.617745
-0.021,-0.24425,0.04775,0.00074775,0.00029,0.0001525,1741839703.632205
-0.02125,-0.24375,0.04825,-0.00019825,0.0002595,3.0500001e-05,1741839703.646754
-0.021,-0.24425,0.05025,-0.00051875,0.000229,-7.625e-05,1741839703.6614091
-0.02125,-0.245,0.051,-0.00070200005,0.00035100002,-0.00010675,1741839703.6761138
-0.02125,-0.24475,0.05225,-0.00045775,0.000412,-1.5250001e-05,1741839703.690836
-0.0215,-0.2435,0.052,0.0008545,0.00030525,6.1000002e-05,1741839703.706505
-0.02125,-0.24025,0.0525,0.00169375,0.0002595,-9.15e-05,1741839703.719977
-0.02075,-0.24,0.052,0.00216675,0.00029,-0.00027475,1741839703.7345731
-0.02075,-0.24075,0.05125,0.00254825,0.00029,-0.00045775,1741839703.7492921
-0.02125,-0.244,0.04975,0.0031127501,0.000229,-0.00045775,1741839703.76388
-0.0215,-0.24525,0.048,0.0028229998,0.00030525,-0.00042725,1741839703.7791622
-0.02225,-0.24675,0.04725,0.00198375,0.00033575002,-0.00030525,1741839703.793034
-0.0225,-0.24625,0.048,0.00071725,0.00039675,-1.5250001e-05,1741839703.807616
-0.02225,-0.24675,0.04425,-0.0003205,0.00051875,4.575e-05,1741839703.8222249
-0.02225,-0.24625,0.0445,-0.00276175,0.0004425,0.000229,1741839703.836809
-0.0225,-0.24475,0.04975,-0.00358575,0.00042725,0.000229,1741839703.8513951
-0.022,-0.24725,0.05075,-0.00637825,0.00061025,0.000412,1741839703.8663082
-0.0195,-0.251,0.0515,-0.0091705,0.000534,0.0009155,1741839703.880631
-0.01725,-0.24975,0.0505,-0.01705925,-0.00010675,0.00204475,1741839703.895364
-0.018,-0.241,0.05225,-0.02142325,-0.00071725,0.0020295,1741839703.9101021
-0.01975,-0.239,0.06075,-0.02778625,-0.001419,0.00108325,1741839703.924822
-0.0205,-0.23575,0.07475,-0.029739501,-0.0012970001,0.00093075,1741839703.93958
-0.021,-0.22875,0.07825,-0.032318,-0.0013427499,0.00059500005,1741839703.954335
-0.0215,-0.22075,0.08675,-0.0327605,-0.001831,-0.0001525,1741839703.969173
-0.0185,-0.223,0.09325,-0.03253175,-0.002365,-0.00112925,1741839703.983938
-0.01675,-0.2285,0.104,-0.02864075,-0.0022735,-0.001953,1741839703.9987571
-0.01725,-0.23125,0.10725,-0.025055,-0.00177,-0.0016785001,1741839704.0134919
-0.02025,-0.22925,0.1095,-0.01658625,-0.00090025004,-0.000534,1741839704.029419
-0.02125,-0.22525,0.109,-0.0128785,-0.00086975005,0.0,1741839704.0428731
-0.02125,-0.221,0.11,-0.009292499,-0.00148,0.00054925,1741839704.05776
-0.021,-0.217,0.11425,-0.00924675,-0.0017852499,0.00065625,1741839704.072334
-0.02075,-0.21475,0.12025,-0.011886501,-0.0019685,0.00080875,1741839704.0871308
-0.01875,-0.21275,0.1345,-0.014663749,-0.0016175,0.000946,1741839704.1018019
-0.01575,-0.2135,0.13675,-0.02398675,-0.0005035,0.00154125,1741839704.1164548
-0.01775,-0.2145,0.1385,-0.02905275,-0.00019825,0.0019225,1741839704.131166
-0.02,-0.21275,0.139,-0.0353545,0.00042725,0.003006,1741839704.146057
-0.021,-0.2085,0.1425,-0.035553,0.00064075,0.0033722501,1741839704.160276
-0.021,-0.20375,0.1475,-0.031158501,0.00068675,0.00396725,1741839704.1749601
-0.02025,-0.186,0.162,-0.028656,0.000824,0.0042572496,1741839704.189525
-0.0185,-0.1815,0.174,-0.02807625,0.0012665,0.00358575,1741839704.20413
-0.01325,-0.182,0.19075,-0.03059375,0.0016785001,0.0035095,1741839704.218697
-0.01225,-0.18125,0.18875,-0.037384,0.002411,0.0049285004,1741839704.233333
-0.01325,-0.17175,0.1805,-0.039627,0.0020905002,0.0058899997,1741839704.247952
-0.01475,-0.16325,0.179,-0.038849,0.00016775,0.0065155,1741839704.2625222
-0.01475,-0.14275,0.18525,-0.036620997,-0.00099175,0.006073,1741839704.277211
-0.0165,-0.1285,0.18875,-0.03395075,-0.0019225,0.0052185003,1741839704.2918348
-0.01075,-0.12325,0.2055,-0.026291,-0.0026092501,0.0018615,1741839704.306599
-0.008,-0.1275,0.21475,-0.02339175,-0.0027465,0.00061025,1741839704.321343
-0.0075,-0.12825,0.22225,-0.02241525,-0.00279225,0.00074775,1741839704.336365
-0.01,-0.118,0.23225,-0.023376498,-0.0026092501,0.0011445,1741839704.3507462
-0.01025,-0.11375,0.233,-0.0281525,-0.002777,0.00096125,1741839704.366136
-0.01275,-0.1095,0.23,-0.03152475,-0.0034484998,0.0007935,1741839704.380121
-0.0155,-0.106,0.227,-0.034179747,-0.00434875,0.00057975,1741839704.396061
-0.02125,-0.09625,0.2235,-0.03144825,-0.00369275,1.5250001e-05,1741839704.409431
-0.0195,-0.09325,0.22575,-0.02124025,-0.001007,-0.00105275,1741839704.424173
-0.016,-0.08825,0.229,-0.016540501,-0.0001525,-0.000885,1741839704.438945
-0.016,-0.082,0.232,-0.01194775,-0.00024425,-0.00029,1741839704.453729
-0.017,-0.072,0.24225,-0.012909001,-0.00083925005,-0.000763,1741839704.468459
-0.017,-0.071,0.2455,-0.01968375,-0.00169375,-0.0021515,1741839704.4832
-0.02025,-0.077,0.23525,-0.02278125,-0.00198375,-0.002121,1741839704.497925
-0.02325,-0.073,0.228,-0.024947999,-0.00372325,-0.00181575,1741839704.512674
-0.01925,-0.0585,0.23725,-0.0237275,-0.0042725,-0.0017852499,1741839704.527411
-0.0195,-0.052,0.24175,-0.0194855,-0.00354,-0.0009155,1741839704.542145
-0.0215,-0.04175,0.2485,-0.01817325,-0.0022277501,-0.00061025,1741839704.556915
-0.0225,-0.04375,0.248,-0.0180665,0.00010675,-0.00051875,1741839704.571611
-0.022,-0.048,0.245,-0.01832575,0.00019825,-0.0002595,1741839704.586306
-0.02125,-0.04425,0.243,-0.01655575,-0.000412,0.0009155,1741839704.601113
-0.02175,-0.0275,0.245,-0.01510625,-0.000473,0.0013275,1741839704.6162271
-0.0225,-0.01875,0.24875,-0.01361075,0.000763,0.000885,1741839704.6303658
-0.02425,-0.01,0.2585,-0.014099,0.0017395001,1.5250001e-05,1741839704.646368
-0.024,-0.01075,0.2635,-0.0156555,0.00193775,-0.001175,1741839704.659607
-0.023,-0.0155,0.26625,-0.0194245,0.0018005001,-0.0028687501,1741839704.674305
-0.02075,-0.02175,0.2575,-0.019439751,0.0025634998,-0.00289925,1741839704.689112
-0.01975,-0.021,0.252,-0.015075751,0.00419625,-0.0022125002,1741839704.7037811
-0.016,-0.00925,0.2495,-0.012191749,0.0045777503,-0.0020599999,1741839704.718533
-0.014,-0.00225,0.252,-0.008377,0.004837,-0.0021515,1741839704.7332191
-0.01425,0.003,0.25925,-0.00833125,0.005066,-0.0021972498,1741839704.747776
-0.016,0.002,0.25925,-0.010727,0.006363,-0.0022277501,1741839704.762421
-0.01575,-0.003,0.25825,-0.010788,0.00712575,-0.0023497501,1741839704.778409
-0.01125,-0.001,0.2605,-0.00596625,0.0088805,-0.002533,1741839704.791723
-0.009,0.00675,0.25725,-0.002884,0.009842,-0.00239575,1741839704.8063219
-0.00675,0.009,0.24975,-0.00024425,0.011031999,-0.00193775,1741839704.820981
0.00025,0.0115,0.248,-0.0017395001,0.0106965,-0.0016785001,1741839704.8363578
0.0025,0.01075,0.252,-0.0047455,0.009734999,-0.00157175,1741839704.849874
0.0065,0.0105,0.25975,-0.00453175,0.009643501,-0.0016632499,1741839704.864394
0.00725,0.0125,0.26175,-0.001953,0.01091,-0.001892,1741839704.879272
0.00925,0.01075,0.256,-0.00070200005,0.011795,-0.002243,1741839704.8933802
0.01425,0.0115,0.25925,-0.00029,0.012146,-0.0026245,1741839704.907848
0.01825,0.01375,0.2655,0.000763,0.011535751,-0.00331125,1741839704.92226
0.0175,0.01025,0.256,0.002411,0.01095575,-0.0037995,1741839704.936714
0.01775,0.0065,0.24575,0.0037079998,0.009002751,-0.0043182503,1741839704.9510741
0.024,0.0025,0.2455,0.0029449998,0.0080872495,-0.00402825,1741839704.9662
0.02475,0.0015,0.2465,0.00108325,0.0080415,-0.00302125,1741839704.979851
0.0265,0.00375,0.24175,0.000763,0.0084379995,-0.0026245,1741839704.994299
0.0275,0.00725,0.241,0.00099175,0.0089569995,-0.0021515,1741839705.008735
0.03025,0.0105,0.24475,0.000885,0.0089569995,-0.00204475,1741839705.0231419
0.032,0.008,0.24775,0.000946,0.00883475,-0.0020752498,1741839705.037552
0.03425,0.00275,0.24925,0.001892,0.0085602505,-0.0023039998,1741839705.0520132
0.03875,-0.00475,0.24825,0.00143425,0.00811775,-0.0021515,1741839705.066606
0.0395,-0.00375,0.247,-0.0005035,0.0066374997,-0.00149525,1741839705.081221
0.0395,0.00475,0.24425,-0.0005035,0.0059205,-0.0015105,1741839705.096181
0.04075,0.00725,0.247,0.00074775,0.0049895,-0.0023497501,1741839705.110095
0.0435,0.009,0.25275,0.00059500005,0.0048979996,-0.002533,1741839705.124466
0.04425,0.00975,0.25525,-0.000229,0.0055085,-0.00254825,1741839705.138923
0.0465,0.008,0.2525,-0.000183,0.0061339997,-0.0026245,1741839705.153429
0.0475,0.00675,0.24825,-0.0002595,0.00697325,-0.0028074998,1741839705.167888
0.05,0.0025,0.24575,-0.00033575002,0.0070647504,-0.0028229998,1741839705.182328
0.0525,0.0,0.24925,0.0,0.0071105,-0.0028687501,1741839705.196738
0.058,-0.00525,0.2525,0.0018615,0.00738525,-0.0025940002,1741839705.2112541
0.05575,-0.00025,0.24475,0.00276175,0.007843,-0.00190725,1741839705.225897
0.0535,0.00825,0.235,0.00378425,0.00842275,-0.001114,1741839705.240312
0.0585,0.00525,0.233,0.00364675,0.00830075,-0.001114,1741839705.254803
0.061,-0.0005,0.2335,0.00239575,0.0072632497,-0.0012817499,1741839705.26933
0.06275,-0.0025,0.22775,0.00177,0.0062865,-0.00137325,1741839705.283882
0.06425,-0.00175,0.2315,0.000824,0.004013,-0.0013427499,1741839705.29844
0.065,0.001,0.2365,0.00033575002,0.003418,-0.00115975,1741839705.312809
0.063,0.00175,0.2295,-0.00013725001,0.0027160002,-0.001114,1741839705.32905
0.0635,-0.004,0.22125,7.625e-05,0.00213625,-0.00149525,1741839705.341826
0.06625,-0.00575,0.22425,0.00061025,0.00061025,-0.0016785001,1741839705.356411
0.06775,-0.002,0.23225,0.00071725,-9.15e-05,-0.0013427499,1741839705.3709812
0.06675,-0.0,0.23625,0.00086975005,-0.00039675,-0.001007,1741839705.3862898
0.06625,-0.0,0.239,0.0017852499,0.0002135,-0.00080875,1741839705.400119
0.06375,-0.00275,0.23575,0.00204475,0.00051875,-0.0009155,1741839705.4161
0.06325,-0.00375,0.2315,0.00157175,-0.000183,-0.0012207499,1741839705.4292622
0.06425,-0.006,0.22725,0.0012207499,-0.00102225,-0.00125125,1741839705.443715
0.06475,-0.0075,0.2265,0.00093075,-0.00296025,-0.00068675,1741839705.458406
0.063,-0.00475,0.23375,0.00071725,-0.00369275,-0.0003205,1741839705.47298
0.06225,-0.002,0.2355,0.00108325,-0.00402825,-9.15e-05,1741839705.4875798
0.061,-0.00575,0.233,0.00177,-0.0040435,-9.15e-05,1741839705.502224
0.05975,-0.00975,0.224,0.000122000005,-0.007309,0.0002595,1741839705.516661
0.059,-0.00625,0.23275,-0.0019989999,-0.0102845,0.00045775,1741839705.531252
0.05625,-0.0065,0.2415,-0.0013275,-0.01150525,0.00065625,1741839705.546506
0.0505,-0.00425,0.24725,-0.000824,-0.010604749,0.0007325,1741839705.5604632
0.04875,-0.00325,0.2465,-0.0007325,-0.009323,0.000763,1741839705.574959
0.04575,-0.00375,0.246,-0.000885,-0.00830075,0.0005035,1741839705.589566
0.04425,-0.00275,0.247,-0.0007935,-0.008514499,0.0001525,1741839705.604191
0.042,-0.00275,0.2465,0.00016775,-0.008316,-0.00080875,1741839705.61877
0.0405,-0.004,0.24175,0.00029,-0.0080415,-0.000946,1741839705.6334221
0.04,-0.0055,0.243,4.575e-05,-0.008072,-0.00048825,1741839705.647943
0.0385,-0.00425,0.24925,0.0003205,-0.00833125,-0.000122000005,1741839705.6625931
0.0365,-0.003,0.2525,0.00143425,-0.009002751,0.000122000005,1741839705.6771321
0.034,-0.002,0.2515,0.00125125,-0.00930775,9.15e-05,1741839705.69161
0.03125,-0.00325,0.2485,-0.0003205,-0.009887749,-0.00035100002,1741839705.7066162
0.02675,-0.00575,0.25025,-0.00070200005,-0.0097045,-0.00057975,1741839705.720993
0.02725,-0.005,0.25275,0.00024425,-0.008346501,-0.00071725,1741839705.736355
0.0265,-0.00375,0.25625,0.000885,-0.00770575,-0.00061025,1741839705.7502139
0.02475,-0.00425,0.25625,0.00062550005,-0.00646975,-0.0003205,1741839705.7660742
0.018,-0.00275,0.251,0.000122000005,-0.005783,-0.0003815,1741839705.77937
0.018,-0.004,0.25,-0.00029,-0.0050202496,-0.00070200005,1741839705.794069
0.0205,-0.007,0.256,-0.0004425,-0.0054780003,-0.00070200005,1741839705.808705
0.0185,-0.00475,0.25925,-0.00065625,-0.0063477503,-0.00057975,1741839705.823414
0.01475,-0.004,0.2585,-0.000824,-0.00744625,-0.00067150005,1741839705.838119
0.01425,-0.0055,0.2565,-0.00080875,-0.0070952503,-0.0007325,1741839705.852764
0.01375,-0.00625,0.25425,-0.0012970001,-0.00561525,-0.000534,1741839705.8674529
0.0095,-0.004,0.24525,-0.0017242499,-0.0054475004,-0.00045775,1741839705.882112
0.0075,-0.003,0.24275,-0.0028535,-0.00662225,-0.00067150005,1741839705.896769
0.00525,-0.0005,0.24375,-0.00354,-0.0075377496,-0.00083925005,1741839705.9114509
0.004,0.00125,0.2455,-0.004776,-0.009155249,-0.0012817499,1741839705.926102
0.001,0.004,0.24875,-0.00517275,-0.009597749,-0.00137325,1741839705.940649
-0.001,0.00425,0.24825,-0.0059815003,-0.010589501,-0.001526,1741839705.956613
-0.0045,0.009,0.24975,-0.00738525,-0.011260999,-0.0017242499,1741839705.969978
-0.005,0.009,0.2505,-0.0103455,-0.0114440005,-0.00160225,1741839705.9846752
-0.0065,0.009,0.25075,-0.01071175,-0.010849,-0.0011445,1741839705.999306
-0.009,0.0105,0.25075,-0.0081635,-0.009521499,-0.00054925,1741839706.013994
-0.01275,0.0105,0.25225,-0.0061339997,-0.009017999,-0.00051875,1741839706.029105
-0.01475,0.009,0.251,-0.00254825,-0.008072,-0.0002135,1741839706.043357
-0.01825,0.00625,0.25325,-0.0012207499,-0.00770575,0.000229,1741839706.058017
-0.0205,0.008,0.255,-1.5250001e-05,-0.00717175,0.000824,1741839706.072613
-0.02525,0.0135,0.25425,-0.00019825,-0.00691225,0.0007935,1741839706.087219
-0.02525,0.01625,0.254,-0.00061025,-0.0066374997,0.00065625,1741839706.101758
-0.02625,0.016,0.25275,0.00027475,-0.00611875,0.00045775,1741839706.116269
-0.02675,0.01075,0.254,0.0015565,-0.0059815003,0.00039675,1741839706.130796
-0.028,0.0075,0.25425,0.00308225,-0.00564575,0.00048825,1741839706.145886
-0.033,0.01025,0.24725,0.00334175,-0.00579825,0.00042725,1741839706.1598258
-0.03425,0.013,0.2435,0.00367725,-0.0072785,-0.0004425,1741839706.17447
-0.034,0.0085,0.24775,0.00399775,-0.0080567505,-0.0007325,1741839706.189099
-0.03525,0.00475,0.24925,0.003952,-0.00830075,-0.000473,1741839706.2036932
-0.0395,0.0065,0.2475,0.00328075,-0.008407501,-0.00013725001,1741839706.2183082
-0.03925,0.00775,0.253,0.00198375,-0.0085602505,0.00062550005,1741839706.23282
-0.043,0.0085,0.2595,0.001831,-0.007965,0.0007325,1741839706.247353
-0.044,0.00875,0.25725,0.00137325,-0.0068207504,0.0003815,1741839706.261935
-0.0455,0.00675,0.25,0.00071725,-0.0064545004,0.00027475,1741839706.276385
-0.04675,0.0065,0.246,0.0002135,-0.0063477503,0.0002595,1741839706.290842
-0.0505,0.00925,0.24225,0.0013885,-0.00671375,6.1000002e-05,1741839706.305773
-0.05125,0.00775,0.2415,0.0020295,-0.0070495,4.575e-05,1741839706.3198779
-0.04975,0.0065,0.2435,0.00029,-0.00764475,0.0002595,1741839706.3343759
-0.05225,0.00725,0.251,-0.00065625,-0.0074615004,0.0003815,1741839706.34896
-0.05425,0.00625,0.25275,-0.0021972498,-0.00646975,0.00080875,1741839706.363592
-0.05575,0.007,0.254,-0.0031127501,-0.0057372497,0.001007,1741839706.3784351
-0.05725,0.009,0.25275,-0.0052337497,-0.00434875,0.00093075,1741839706.392863
-0.06,0.0125,0.25025,-0.0066985004,-0.0038605002,0.000824,1741839706.4074721
-0.0615,0.01225,0.24775,-0.00962825,-0.0033875,0.00074775,1741839706.422105
-0.062,0.0105,0.24225,-0.010818499,-0.00343325,0.000824,1741839706.4367108
-0.061,0.01275,0.243,-0.011688249,-0.00317375,0.001175,1741839706.451364
-0.05975,0.021,0.24875,-0.011810251,-0.0025940002,0.00148,1741839706.4664378
-0.061,0.02125,0.25025,-0.014923001,-0.0005645,0.0017242499,1741839706.480578
-0.063,0.0235,0.24725,-0.01646425,0.00035100002,0.00154125,1741839706.496314
-0.061,0.0265,0.246,-0.016739,0.0007935,0.0012665,1741839706.5095491
-0.058,0.031,0.244,-0.0141755,0.00096125,0.00071725,1741839706.524095
-0.0575,0.03275,0.2445,-0.012039251,0.00131225,0.00071725,1741839706.53859
-0.059,0.03475,0.24325,-0.00715625,0.0021515,0.00090025004,1741839706.553134
-0.05825,0.03575,0.24,-0.0047455,0.00216675,0.00071725,1741839706.567639
-0.0565,0.036,0.241,-0.00137325,0.0023039998,0.000763,1741839706.582104
-0.056,0.03875,0.24425,-0.00010675,0.00283825,0.0010375,1741839706.596606
-0.0555,0.04125,0.246,0.00364675,0.00399775,0.00146475,1741839706.610965
-0.05775,0.038,0.23825,0.0068055,0.0045625,0.00143425,1741839706.625362
-0.05875,0.034,0.23425,0.0119630005,0.00469975,0.001419,1741839706.639835
-0.06,0.026,0.23475,0.012924249,0.0044250004,0.001648,1741839706.654277
-0.057,0.02625,0.23925,0.01339725,0.0041504996,0.0019225,1741839706.668704
-0.054,0.02575,0.2505,0.019012501,0.0044555003,0.00213625,1741839706.683101
-0.055,0.02,0.252,0.02616875,0.0056,0.0019989999,1741839706.69746
-0.05375,0.01,0.24575,0.041869998,0.008361749,0.00175475,1741839706.711853
-0.05275,-0.0055,0.23,0.0433655,0.007965,0.00175475,1741839706.72647
-0.0515,-0.00825,0.233,0.036026,0.0045165,0.0013885,1741839706.741109
-0.04525,-0.0095,0.24125,0.032821752,0.0034484998,0.0008545,1741839706.756669
-0.04175,-0.0125,0.24375,0.03025825,0.0027312501,-0.00013725001,1741839706.770211
-0.04225,-0.0305,0.241,0.028167749,0.00267025,-0.00033575002,1741839706.785763
-0.04275,-0.03875,0.24175,0.023193251,0.0020599999,-0.00064075,1741839706.7994828
-0.04425,-0.04875,0.23575,0.0218505,0.00148,-0.00070200005,1741839706.814175
-0.0435,-0.05075,0.2375,0.019470248,-7.625e-05,-0.00074775,1741839706.8292632
-0.04275,-0.055,0.24275,0.017868,-0.00051875,-0.00068675,1741839706.843454
-0.042,-0.05525,0.244,0.014068499,-0.00042725,-0.00048825,1741839706.8582559
-0.0425,-0.055,0.25025,0.0138245,0.0,-0.00054925,1741839706.872881
-0.04275,-0.062,0.24875,0.0154115,0.00071725,-0.00064075,1741839706.887551
-0.04275,-0.07625,0.2375,0.020477248,0.00201425,-0.0002595,1741839706.902263
-0.04325,-0.07975,0.23225,0.02241525,0.0020752498,0.00016775,1741839706.916768
-0.04425,-0.08175,0.22875,0.025314251,0.00125125,0.00067150005,1741839706.931242
-0.04225,-0.08725,0.229,0.025879,0.00083925005,0.00070200005,1741839706.9459908
-0.04225,-0.091,0.2315,0.025360001,0.00074775,0.0008545,1741839706.9602299
-0.04225,-0.09725,0.234,0.02537525,0.00115975,0.00096125,1741839706.97488
-0.044,-0.10325,0.228,0.0279235,0.0017395001,0.00109875,1741839706.989432
-0.04275,-0.11525,0.21375,0.02861025,0.0015565,0.001114,1741839707.003886
-0.04175,-0.1165,0.2115,0.0276185,0.00054925,0.001068,1741839707.018475
-0.0435,-0.121,0.2085,0.02690125,6.1000002e-05,0.0009155,1741839707.0331268
-0.04225,-0.12475,0.209,0.02560425,-0.00057975,0.0003205,1741839707.047712
-0.03925,-0.13625,0.2115,0.024704,-0.00064075,0.00016775,1741839707.0622919
-0.04,-0.13875,0.214,0.02215575,0.00033575002,0.0005645,1741839707.076869
-0.0425,-0.1435,0.208,0.021514999,0.00090025004,0.00074775,1741839707.091363
-0.04225,-0.146,0.20175,0.020904498,0.0013580001,0.0008545,1741839707.105982
-0.03925,-0.14725,0.1965,0.01893625,0.00216675,0.000824,1741839707.12053
-0.03775,-0.15225,0.19,0.018097,0.0026245,0.0005035,1741839707.136215
-0.04025,-0.1575,0.19225,0.01899725,0.00364675,0.000183,1741839707.149706
-0.04225,-0.171,0.2025,0.02026375,0.00402825,0.0003205,1741839707.1643689
-0.04025,-0.17225,0.198,0.0215455,0.0049285004,0.00059500005,1741839707.178978
-0.034,-0.17175,0.17175,0.0207215,0.00531,0.00035100002,1741839707.193534
-0.031,-0.1735,0.16175,0.01667775,0.00384525,-0.00019825,1741839707.208083
-0.031,-0.17675,0.16025,0.0144805005,0.00251775,-0.00030525,1741839707.222689
-0.03175,-0.17875,0.1645,0.012039251,0.00102225,-0.00035100002,1741839707.237303
-0.0355,-0.18075,0.174,0.012207,0.001114,-0.00035100002,1741839707.2518568
-0.0365,-0.184,0.17425,0.01322925,0.00204475,-0.00048825,1741839707.2664802
-0.035,-0.18675,0.165,0.0128632495,0.00238025,-0.0004425,1741839707.281068
-0.034,-0.18625,0.15975,0.010666001,0.002411,-0.00036625,1741839707.296578
-0.0315,-0.18775,0.15775,0.009674,0.00204475,-0.000412,1741839707.310289
-0.03125,-0.1895,0.16025,0.009017999,0.00154125,-0.000412,1741839707.325065
-0.03275,-0.193,0.1635,0.0087585,0.0009155,-0.00027475,1741839707.3396952
-0.0325,-0.194,0.16225,0.008361749,0.0010375,-0.0002595,1741839707.354395
-0.033,-0.1955,0.1595,0.008377,0.00175475,0.0,1741839707.368795
-0.0335,-0.1955,0.15325,0.008941749,0.00198375,0.0001525,1741839707.383577
-0.03325,-0.193,0.1515,0.009933501,0.0017852499,6.1000002e-05,1741839707.398082
-0.03175,-0.1935,0.15225,0.01020825,0.0016175,-0.000122000005,1741839707.412914
-0.03175,-0.19625,0.152,0.01033025,0.0019225,-0.00035100002,1741839707.429108
-0.0305,-0.19875,0.14525,0.009292499,0.002121,-0.00035100002,1741839707.4421408
-0.02875,-0.2,0.141,0.005844,0.00149525,-0.0002595,1741839707.456743
-0.03,-0.201,0.1425,0.0051880004,0.0010375,-0.00019825,1741839707.4713879
-0.03125,-0.2,0.146,0.0063325,0.00083925005,-0.0005035,1741839707.486335
-0.03175,-0.20475,0.145,0.0072785,0.00108325,-0.00074775,1741839707.5006778
-0.03225,-0.20575,0.1405,0.008194,0.0013427499,-0.00090025004,1741839707.5161679
-0.031,-0.207,0.13575,0.008072,0.00115975,-0.0009155,1741839707.530271
-0.02975,-0.209,0.1365,0.0071409997,0.00099175,-0.00070200005,1741839707.546179
-0.02975,-0.20625,0.1385,0.0060882503,0.0012055,-0.000473,1741839707.559521
-0.03,-0.20525,0.1375,0.0061339997,0.00163275,-0.000534,1741839707.574354
-0.03075,-0.209,0.13025,0.007309,0.0018005001,-0.000763,1741839707.589067
-0.0305,-0.2105,0.128,0.00823975,0.001709,-0.000946,1741839707.603737
-0.02875,-0.21225,0.13075,0.00764475,0.00149525,-0.0009765,1741839707.618467
-0.029,-0.213,0.13025,0.0065307496,0.0016175,-0.00083925005,1741839707.6331909
-0.03075,-0.21325,0.12675,0.0053405,0.001831,-0.00054925,1741839707.647879
-0.031,-0.214,0.12125,0.0049742498,0.001648,-0.00048825,1741839707.6624472
-0.03075,-0.215,0.1205,0.0037995,0.0011445,-0.00039675,1741839707.677143
-0.03025,-0.21675,0.11875,0.003006,0.0009765,-0.000412,1741839707.691762
-0.02975,-0.21875,0.1175,-4.575e-05,0.0005035,-0.00030525,1741839707.706767
-0.03,-0.2195,0.1185,-0.0022277501,0.00019825,-7.625e-05,1741839707.721121
-0.0305,-0.21825,0.1185,-0.006302,-0.0005035,0.00030525,1741839707.7363389
-0.0285,-0.217,0.12025,-0.008361749,-0.00108325,0.00042725,1741839707.750665
-0.029,-0.21575,0.1245,-0.0110015,-0.00169375,0.00071725,1741839707.7660868
-0.02825,-0.2175,0.126,-0.011856,-0.0015105,0.000885,1741839707.7800808
-0.02725,-0.219,0.12475,-0.016739,-0.0017242499,0.00160225,1741839707.796187
-0.02475,-0.216,0.1285,-0.020752002,-0.00204475,0.0020599999,1741839707.809643
-0.02375,-0.21175,0.12875,-0.030716,-0.00317375,0.0027465,1741839707.824364
-0.03,-0.187,0.15425,-0.0349885,-0.0041810004,0.002884,1741839707.839134
-0.03175,-0.177,0.17175,-0.033966,-0.0031585,0.00270075,1741839707.8538508
-0.02975,-0.1835,0.17575,-0.0301055,-0.00146475,0.00251775,1741839707.868617
-0.028,-0.188,0.1705,-0.02622975,0.0002135,0.00270075,1741839707.8832052
-0.0275,-0.183,0.17025,-0.026886,4.575e-05,0.00292975,1741839707.897991
-0.02725,-0.1765,0.1775,-0.02687075,-0.000229,0.0031585,1741839707.912637
-0.02575,-0.16275,0.19475,-0.02589425,-1.5250001e-05,0.003128,1741839707.927592
-0.025,-0.16025,0.1985,-0.027298,0.00090025004,0.0025787498,1741839707.942188
-0.0245,-0.16,0.19675,-0.02981575,0.00125125,0.0022735,1741839707.956841
-0.02525,-0.15625,0.1975,-0.03230275,0.0012970001,0.0021515,1741839707.971485
-0.02475,-0.1375,0.19875,-0.032547,0.00039675,0.00198375,1741839707.9862862
-0.02425,-0.13275,0.20475,-0.03050225,-0.00045775,0.00169375,1741839708.000992
-0.02325,-0.13225,0.2115,-0.0278015,-0.00143425,0.00099175,1741839708.016198
-0.026,-0.12975,0.2215,-0.026275748,-0.0012970001,0.0009155,1741839708.030398
-0.02675,-0.1265,0.2225,-0.022873,0.00042725,0.00099175,1741839708.046295
-0.02525,-0.12125,0.22425,-0.022064252,0.0011445,0.00108325,1741839708.0597491
-0.0245,-0.11875,0.22375,-0.021087749,0.00163275,0.0014037499,1741839708.0744
-0.024,-0.111,0.222,-0.020477248,0.00160225,0.0016175,1741839708.089078
-0.02425,-0.10675,0.22025,-0.020218,0.000885,0.0016632499,1741839708.103798
-0.02475,-0.09675,0.22125,-0.020904498,6.1000002e-05,0.00154125,1741839708.1184509
-0.02525,-0.092,0.224,-0.0239105,-0.00112925,0.00137325,1741839708.133152
-0.0225,-0.0805,0.23125,-0.02474975,-0.0010375,0.00119025,1741839708.1478322
-0.02225,-0.07725,0.2325,-0.02445975,-0.000946,0.00071725,1741839708.162576
-0.021,-0.07325,0.235,-0.024047751,-0.0009155,0.00059500005,1741839708.1773388
-0.02225,-0.069,0.23925,-0.023468,-0.00093075,0.00061025,1741839708.191957
-0.026,-0.0595,0.24025,-0.02253725,-0.00057975,0.0004425,1741839708.206621
-0.02475,-0.05725,0.2385,-0.0197295,0.000122000005,-0.00013725001,1741839708.221349
-0.02375,-0.0565,0.2385,-0.018280001,9.15e-05,-0.00024425,1741839708.236043
-0.0245,-0.05575,0.2385,-0.01542675,-0.00013725001,4.575e-05,1741839708.250839
-0.02375,-0.05025,0.23825,-0.013641249,-0.00035100002,0.00027475,1741839708.266297
-0.02375,-0.0455,0.23725,-0.012130749,-0.0015105,0.000473,1741839708.280246
-0.02525,-0.04425,0.2445,-0.013488751,-0.0020295,0.0005645,1741839708.296441
-0.026,-0.04275,0.248,-0.014679,-0.00216675,0.00083925005,1741839708.3096719
-0.0275,-0.0365,0.24575,-0.013137749,-0.0018005001,0.0013580001,1741839708.32432
-0.0275,-0.034,0.24475,-0.011535751,-0.001587,0.00131225,1741839708.339135
-0.0265,-0.0295,0.24375,-0.011749251,-0.0013885,0.00109875,1741839708.3538282
-0.0275,-0.01675,0.23975,-0.014206001,-0.00125125,0.00071725,1741839708.368683
-0.02725,-0.02225,0.23925,-0.019195499,-0.00154125,-0.00019825,1741839708.383434
-0.02575,-0.022,0.24575,-0.0195465,-0.0020752498,0.00019825,1741839708.398169
-0.02675,-0.013,0.24725,-0.0166625,-0.00245675,0.00115975,1741839708.412925
-0.029,-0.00675,0.25,-0.015152001,-0.00251775,0.001236,1741839708.429133
-0.02925,-0.0075,0.252,-0.013733,-0.0024872501,0.00119025,1741839708.442529
-0.03,-0.00575,0.25275,-0.013427749,-0.00216675,0.00125125,1741839708.457241
-0.03125,-0.002,0.25225,-0.0125275,-0.001526,0.0013275,1741839708.471921
-0.032,0.00675,0.25125,-0.011825499,-0.00148,0.00131225,1741839708.4865348
-0.031,0.01175,0.25,-0.0110932505,-0.00148,0.0009765,1741839708.5011368
-0.03025,0.01375,0.2505,-0.0125885,-0.00125125,0.00080875,1741839708.516098
-0.03025,0.0095,0.253,-0.01719675,-0.00090025004,0.0010375,1741839708.5304089
-0.033,0.0155,0.25375,-0.017395,-0.00080875,0.00125125,1741839708.546185
-0.0345,0.02175,0.2505,-0.0138702495,-0.000946,0.001007,1741839708.559815
-0.03475,0.03025,0.24475,-0.013290499,-0.0013275,0.0007935,1741839708.574356
-0.03375,0.03225,0.24625,-0.016296498,-0.0021057501,0.00035100002,1741839708.589062
-0.0325,0.034,0.25025,-0.0180665,-0.0021819999,0.00039675,1741839708.603661
-0.0345,0.03475,0.249,-0.02050775,-0.0018005001,0.00070200005,1741839708.61837
-0.03525,0.03475,0.25,-0.02006525,-0.00157175,0.00054925,1741839708.632981
-0.0335,0.036,0.25025,-0.0178375,-0.0014037499,0.000534,1741839708.647555
-0.03575,0.0535,0.248,-0.0118407495,-0.001419,0.00115975,1741839708.6621592
-0.03725,0.06275,0.24725,-0.010498,-0.0013885,0.0011445,1741839708.676836
-0.03775,0.06675,0.24525,-0.012405501,-0.0005035,0.000183,1741839708.691457
-0.03625,0.06,0.24025,-0.013992251,-9.15e-05,-0.00030525,1741839708.706166
-0.03675,0.05675,0.238,-0.01475525,0.0,-0.0003205,1741839708.72074
-0.036,0.057,0.23725,-0.014160249,-0.000122000005,-4.575e-05,1741839708.736359
-0.03475,0.0595,0.23625,-0.01115425,-0.0005035,0.00083925005,1741839708.750161
-0.03475,0.0735,0.23275,-0.0093995,-0.00074775,0.0012817499,1741839708.766002
-0.03625,0.08,0.23075,-0.009002751,-0.0016785001,0.0012055,1741839708.7794602
-0.038,0.08325,0.23175,-0.010788,-0.0017852499,0.00090025004,1741839708.794055
-0.03825,0.08075,0.2345,-0.015075751,-0.00119025,0.00077825,1741839708.808625
-0.039,0.0745,0.23325,-0.015228249,-0.0008545,0.0010375,1741839708.8233442
-0.039,0.076,0.2315,-0.01222225,-0.00030525,0.002365,1741839708.838067
-0.0375,0.08125,0.23175,-0.00968925,-0.00016775,0.00289925,1741839708.8526762
-0.0385,0.08425,0.23075,-0.0028535,-0.000412,0.0030365,1741839708.867323
-0.03625,0.0925,0.23025,0.00048825,-0.00115975,0.0030365,1741839708.881856
-0.038,0.09125,0.2295,0.0034484998,-0.002121,0.00317375,1741839708.896466
-0.04175,0.08525,0.2335,0.009445249,-0.0022125002,0.0032655,1741839708.910953
-0.043,0.08425,0.23675,0.01289375,-0.001709,0.00314325,1741839708.925421
-0.0445,0.08325,0.23675,0.016296498,-0.0005035,0.0026092501,1741839708.939975
-0.04375,0.07875,0.234,0.014358499,0.00013725001,0.00225825,1741839708.954437
-0.04275,0.07725,0.235,0.0094604995,0.001114,0.00146475,1741839708.968839
-0.04325,0.07325,0.237,0.009811499,0.00177,0.00099175,1741839708.98326
-0.044,0.07,0.23475,0.01148975,0.0030365,0.00027475,1741839708.9976692
-0.04175,0.06475,0.231,0.00982675,0.00305175,0.000229,1741839709.012288
-0.04025,0.06575,0.23325,0.0053252503,0.00225825,0.00013725001,1741839709.026669
-0.039,0.06775,0.24125,0.0058287503,0.0021819999,-9.15e-05,1741839709.0412621
-0.038,0.06375,0.24325,0.01121525,0.003006,-0.0003205,1741839709.056041
-0.0375,0.055,0.242,0.012695249,0.00334175,-0.0003815,1741839709.0703611
-0.03675,0.0555,0.243,0.012741,0.003418,-0.000412,1741839709.086287
-0.036,0.055,0.24325,0.0129700005,0.0027312501,-0.00029,1741839709.099489
-0.035,0.0505,0.24175,0.01408375,0.00238025,-0.0002595,1741839709.113972
-0.03425,0.04675,0.2425,0.01893625,0.0026245,-0.0001525,1741839709.129347
-0.0345,0.0355,0.24825,0.02247625,0.00289925,-7.625e-05,1741839709.1430268
-0.03175,0.02725,0.2505,0.02793875,0.0030669998,0.00086975005,1741839709.157501
-0.031,0.02175,0.24925,0.0290375,0.00325,0.00177,1741839709.171954
-0.03225,0.02125,0.24775,0.02626025,0.0034790002,0.0022277501,1741839709.18645
-0.03325,0.0155,0.2475,0.022583,0.00302125,0.0015565,1741839709.200832
-0.03225,0.013,0.247,0.01646425,0.0026092501,0.000412,1741839709.2161531
-0.02975,0.002,0.24925,0.015594499,0.00270075,0.000183,1741839709.230093
-0.028,-0.00075,0.25525,0.015289251,0.00263975,0.000122000005,1741839709.246328
-0.02875,-0.007,0.26125,0.016876249,0.0029755002,0.00029,1741839709.259093
-0.029,-0.0105,0.25575,0.018585252,0.00378425,0.00035100002,1741839709.273567
-0.028,-0.0115,0.248,0.0201875,0.004303,0.0002595,1741839709.288119
-0.02575,-0.01625,0.24025,0.0203705,0.0033264998,0.0001525,1741839709.302679
-0.02475,-0.0225,0.2405,0.02070625,0.0013427499,0.00019825,1741839709.3171751
-0.02425,-0.03,0.24325,0.020141501,0.0012817499,0.0002135,1741839709.33175
-0.025,-0.035,0.24375,0.01799,0.0017395001,-4.575e-05,1741839709.346344
-0.02325,-0.04175,0.2455,0.016448999,0.0018615,-0.00019825,1741839709.3611782
-0.0215,-0.04125,0.24875,0.01599125,0.002243,-0.00070200005,1741839709.3757372
-0.01975,-0.04875,0.25075,0.017685,0.0026245,-0.00096125,1741839709.3903449
-0.0205,-0.0515,0.25125,0.022995,0.004593,-0.00115975,1741839709.405003
-0.02225,-0.059,0.24,0.026428249,0.00585925,-0.0013427499,1741839709.4195478
-0.02125,-0.06475,0.23575,0.0301055,0.0070342496,-0.00154125,1741839709.4341528
-0.01825,-0.07425,0.2305,0.02934275,0.006668,-0.0014495,1741839709.448748
-0.0155,-0.079,0.23125,0.0275115,0.0058287503,-0.001236,1741839709.4633422
-0.0135,-0.08675,0.23725,0.024047751,0.003662,-0.00048825,1741839709.47929
-0.01475,-0.0895,0.24125,0.0241395,0.0031889998,-0.00016775,1741839709.492776
-0.0165,-0.09325,0.242,0.028167749,0.0041504996,-0.00054925,1741839709.5073862
-0.0165,-0.10375,0.229,0.029892,0.0047150003,-0.0009765,1741839709.522031
-0.0155,-0.107,0.22125,0.031372,0.0041810004,-0.001648,1741839709.536679
-0.01225,-0.1155,0.2185,0.03111275,0.0034637498,-0.001892,1741839709.55131
-0.0105,-0.1205,0.22,0.02870175,0.0023039998,-0.00187675,1741839709.566265
-0.012,-0.133,0.2205,0.027832001,0.00238025,-0.0016175,1741839709.580488
-0.0135,-0.13575,0.2175,0.0272065,0.0041044997,-0.00115975,1741839709.596226
-0.0105,-0.141,0.2065,0.02696225,0.00463875,-0.00137325,1741839709.609728
-0.008,-0.14475,0.203,0.026428249,0.0040435,-0.00198375,1741839709.624457
-0.00675,-0.1535,0.19925,0.025314251,0.0033570002,-0.0020599999,1741839709.639061
-0.0085,-0.1585,0.19925,0.02180475,0.0026245,-0.0017395001,1741839709.65363
-0.01225,-0.15975,0.20175,0.020324752,0.00289925,-0.00160225,1741839709.668442
-0.0105,-0.16125,0.2,0.018814,0.0041044997,-0.00169375,1741839709.6832252
-0.00475,-0.1695,0.191,0.018280001,0.0045165,-0.0015105,1741839709.697789
-0.00375,-0.1715,0.18775,0.01899725,0.0047455,-0.001007,1741839709.712426
-0.00575,-0.17825,0.181,0.019806,0.00485225,-0.00096125,1741839709.728257
-0.007,-0.18,0.17675,0.02050775,0.0049742498,-0.001007,1741839709.74184
-0.006,-0.18125,0.1665,0.020477248,0.0049742498,-0.00093075,1741839709.756542
-0.00425,-0.18225,0.16225,0.01953125,0.0046539996,-0.0009765,1741839709.771251
-0.00275,-0.185,0.161,0.017105,0.00364675,-0.0013275,1741839709.786355
-0.002,-0.1915,0.16575,0.016418502,0.00340275,-0.0012970001,1741839709.800509
-0.00225,-0.1925,0.16525,0.0162505,0.00355525,-0.0009155,1741839709.816191
-0.0005,-0.1925,0.158,0.01531975,0.003662,-0.00074775,1741839709.8296692
0.0,-0.193,0.1545,0.01133725,0.00352475,-0.00042725,1741839709.844218
-0.00025,-0.19475,0.14625,0.009216251,0.00334175,-0.000412,1741839709.8587961
-0.001,-0.19475,0.1415,0.007904,0.00270075,-0.000824,1741839709.87342
-0.00075,-0.198,0.13675,0.00773625,0.0021972498,-0.00115975,1741839709.8881059
-0.0005,-0.201,0.13625,0.005066,0.001175,-0.00143425,1741839709.9027278
0.00175,-0.20475,0.144,0.0029449998,0.00083925005,-0.0013275,1741839709.9173
0.004,-0.2055,0.1475,-0.0041504996,0.000534,-0.00057975,1741839709.9320571
0.0055,-0.20725,0.1495,-0.0093385,0.00024425,6.1000002e-05,1741839709.946524
0.0035,-0.20675,0.15275,-0.01835625,-1.5250001e-05,0.0015565,1741839709.961153
-0.0005,-0.20175,0.158,-0.020049999,0.00036625,0.0020905002,1741839709.9757
-0.00175,-0.1955,0.161,-0.019577,0.00070200005,0.0023039998,1741839709.990274
-0.001,-0.1865,0.16975,-0.0139770005,0.00115975,0.0019225,1741839710.006093
-0.0005,-0.189,0.1685,-0.010513251,0.0016632499,0.00169375,1741839710.019584
0.00025,-0.18875,0.16375,-0.0054015,0.0017395001,0.001831,1741839710.0341492
0.00175,-0.18175,0.1585,-0.0042572496,0.0007935,0.00181575,1741839710.04866
0.00275,-0.18075,0.1625,-0.00419625,-0.000946,0.00137325,1741839710.063334
0.00475,-0.182,0.17175,-0.00555425,-0.0011445,0.0012970001,1741839710.079059
0.005,-0.18175,0.1755,-0.010253999,-0.0008545,0.0016175,1741839710.0924969
0.0065,-0.18225,0.18075,-0.013031,-0.00035100002,0.00190725,1741839710.107141
0.00625,-0.1835,0.17975,-0.0192565,0.000885,0.0026854998,1741839710.121632
0.00375,-0.17625,0.17875,-0.021484248,0.00131225,0.00296025,1741839710.136563
0.004,-0.17175,0.1775,-0.0230255,0.00169375,0.0032347501,1741839710.150578
0.006,-0.16225,0.1795,-0.0232085,0.0014495,0.00328075,1741839710.166271
0.00775,-0.15725,0.1875,-0.02439875,0.00096125,0.00283825,1741839710.179539
0.011,-0.156,0.20125,-0.0266875,0.0011445,0.0026854998,1741839710.194056
0.0095,-0.1565,0.203,-0.02908325,0.00146475,0.0027160002,1741839710.208535
0.0075,-0.15525,0.201,-0.027526751,0.002121,0.0028535,1741839710.22312
0.006,-0.145,0.19775,-0.023650998,0.0023039998,0.0027312501,1741839710.2376409
0.00725,-0.13825,0.19875,-0.01719675,0.001953,0.00239575,1741839710.252177
0.0105,-0.13225,0.2005,-0.01640325,0.0013275,0.00245675,1741839710.266809
0.011,-0.1295,0.20475,-0.018737748,-0.0001525,0.00267025,1741839710.281562
0.01175,-0.11875,0.22425,-0.020996,-0.00036625,0.00238025,1741839710.296396
0.013,-0.11775,0.233,-0.0259095,0.00105275,0.00204475,1741839710.310643
0.01375,-0.11775,0.224,-0.0273895,0.00187675,0.0024414998,1741839710.3250592
0.0135,-0.1135,0.21325,-0.02680975,0.0008545,0.0034942501,1741839710.339634
0.0135,-0.10175,0.21675,-0.025299,-0.00099175,0.0036162501,1741839710.3542452
0.01275,-0.0945,0.22675,-0.021103,-0.0030975002,0.0029449998,1741839710.368929
0.013,-0.0835,0.232,-0.01899725,-0.00334175,0.0020905002,1741839710.383541
0.0135,-0.08175,0.23475,-0.017455999,-0.00428775,0.00099175,1741839710.39811
0.0125,-0.08375,0.239,-0.01879875,-0.0056915004,0.00045775,1741839710.412739
0.012,-0.08175,0.23825,-0.02088925,-0.00570675,0.00099175,1741839710.427305
0.01,-0.0775,0.2365,-0.022766002,-0.007187,0.0015565,1741839710.441955
0.003,-0.06375,0.238,-0.022033751,-0.008514499,0.001419,1741839710.456658
0.00025,-0.05675,0.2415,-0.019195499,-0.00985725,0.00093075,1741839710.4711502
-0.00125,-0.05225,0.2425,-0.018737748,-0.009719751,0.00051875,1741839710.486242
-0.0005,-0.051,0.2435,-0.019165002,-0.0091705,-0.0009765,1741839710.5006049
-0.0015,-0.04975,0.25025,-0.018448,-0.00823975,-0.0012207499,1741839710.516341
-0.002,-0.04725,0.25275,-0.01567075,-0.004547,-0.000229,1741839710.530283
-0.00525,-0.03975,0.25,-0.014343251,-0.0032655,0.00013725001,1741839710.5457978
-0.0065,-0.03725,0.24775,-0.01210025,-0.00254825,-0.0003205,1741839710.5600278
-0.0055,-0.03375,0.2475,-0.010803251,-0.0019989999,-0.00083925005,1741839710.574889
-0.006,-0.0325,0.249,-0.009887749,-0.00090025004,-0.0012055,1741839710.589634
-0.009,-0.031,0.24875,-0.01020825,-0.00093075,-0.001175,1741839710.604447
-0.00975,-0.03025,0.248,-0.010849,-0.0014037499,-0.0012207499,1741839710.619227
-0.009,-0.02825,0.2505,-0.011031999,-0.0016175,-0.00112925,1741839710.633964
-0.00725,-0.0265,0.2535,-0.010314999,-0.0013580001,-0.00061025,1741839710.648706
-0.00675,-0.0255,0.25325,-0.00930775,-0.00086975005,-0.00016775,1741839710.663573
-0.00875,-0.022,0.24975,-0.0079345,0.00048825,0.00042725,1741839710.6788428
-0.0105,-0.0125,0.24525,-0.008407501,0.00070200005,0.00048825,1741839710.692659
-0.01025,-0.0125,0.2465,-0.00985725,0.00016775,0.00068675,1741839710.707238
-0.00925,-0.01375,0.2515,-0.00976575,6.1000002e-05,0.0007935,1741839710.7217531
-0.0095,-0.01225,0.25325,-0.0091705,0.00016775,0.00090025004,1741839710.73632
-0.0085,-0.00775,0.2545,-0.008545,0.0007935,0.001068,1741839710.751025
-0.00775,-0.0035,0.2545,-0.008606,0.00108325,0.00109875,1741839710.766007
-0.0075,0.00025,0.25525,-0.00801075,0.001526,0.0007935,1741839710.7801652
-0.00725,0.0,0.25625,-0.0073547503,0.0017395001,0.00045775,1741839710.796352
-0.0065,-0.00075,0.255,-0.0052185003,0.0021819999,3.0500001e-05,1741839710.8093781
-0.00625,-0.0,0.25025,-0.00419625,0.0023039998,7.625e-05,1741839710.824009
-0.00525,0.00025,0.24925,-0.00320425,0.0022277501,0.00059500005,1741839710.8385239
-0.00275,0.0065,0.25075,-0.0027160002,0.0021057501,0.00090025004,1741839710.8531241
-0.00275,0.00875,0.25125,-0.00193775,0.00228875,0.00131225,1741839710.86763
-0.00275,0.00625,0.253,-0.0025940002,0.00245675,0.00154125,1741839710.8822532
-0.003,0.007,0.25475,-0.0041810004,0.0034942501,0.00204475,1741839710.8967638
-0.0025,0.00775,0.253,-0.0040435,0.0042267498,0.00198375,1741839710.91136
-0.00275,0.00625,0.25,-0.00238025,0.00453175,0.001419,1741839710.926013
-0.002,0.0055,0.24725,-0.001114,0.00396725,0.00090025004,1741839710.94051
-0.00175,0.005,0.2465,0.00146475,0.0026245,-0.00036625,1741839710.956449
0.00025,0.00625,0.2495,0.00169375,0.00198375,-0.00086975005,1741839710.9695208
0.00225,0.00775,0.25325,0.00112925,0.0016175,-0.00105275,1741839710.984019
0.0025,0.00725,0.255,-3.0500001e-05,0.00204475,-0.000885,1741839710.998516
0.00275,0.003,0.25325,-0.00030525,0.0024414998,-0.00080875,1741839711.013238
0.00425,0.0015,0.25325,-0.000183,0.00270075,-0.00045775,1741839711.028803
0.0055,0.0025,0.2525,9.15e-05,0.00263975,-1.5250001e-05,1741839711.0421062
0.00575,0.00425,0.252,0.000534,0.00305175,4.575e-05,1741839711.05656
0.00775,0.00575,0.25375,0.00070200005,0.00334175,-0.00010675,1741839711.071254
0.00825,0.00325,0.25275,0.00068675,0.0039215,3.0500001e-05,1741839711.0861282
0.009,0.00575,0.2475,0.00059500005,0.0040435,0.000183,1741839711.100082
0.01,0.00725,0.24675,0.00067150005,0.0035704998,0.00045775,1741839711.114431
0.013,0.00225,0.25225,0.00108325,0.0036162501,0.000473,1741839711.129548
0.01575,-0.00275,0.25525,0.00198375,0.0040587503,0.00039675,1741839711.143035
0.01725,-0.00575,0.25725,0.0036162501,0.0052185003,0.001007,1741839711.15753
0.0125,-0.0005,0.25125,0.00355525,0.0054015,0.001587,1741839711.1720629
0.01325,-0.0005,0.248,0.0018005001,0.00440975,0.00276175,1741839711.1866088
0.017,-0.00425,0.2475,0.00112925,0.00402825,0.0033875,1741839711.201046
0.0155,-0.0015,0.25,0.00198375,0.0043182503,0.003418,1741839711.216477
0.0165,0.005,0.254,0.003128,0.00469975,0.002777,1741839711.229959
0.01825,0.00425,0.2545,0.00378425,0.004547,0.00169375,1741839711.2443352
0.02375,-0.0005,0.26,0.0031889998,0.0040435,0.00157175,1741839711.2588632
0.026,-0.0,0.26675,0.00328075,0.0041044997,0.0015105,1741839711.273279
0.02525,0.007,0.27075,0.00440975,0.00488275,0.00109875,1741839711.287647
0.02325,0.00425,0.263,0.00543225,0.0057220003,0.00051875,1741839711.301949
0.02175,-0.00175,0.25575,0.0050202496,0.0070647504,-0.00070200005,1741839711.316482
0.02775,-0.0075,0.2515,0.00434875,0.0077515002,-0.00125125,1741839711.3310342
0.0285,-0.00575,0.24975,0.00399775,0.009201,-0.00190725,1741839711.34606
0.03275,-0.00675,0.25075,0.0038757501,0.009842,-0.0022277501,1741839711.360329
0.036,-0.0085,0.25425,0.00463875,0.01091,-0.003006,1741839711.37504
0.038,-0.00975,0.25425,0.0054780003,0.011612001,-0.0033722501,1741839711.389516
0.03725,-0.00975,0.25175,0.0068665,0.013412501,-0.00393675,1741839711.4041212
0.04175,-0.01425,0.249,0.00715625,0.014145001,-0.00419625,1741839711.418592
0.04625,-0.01425,0.251,0.0069274995,0.0138702495,-0.00419625,1741839711.433207
0.05,-0.0145,0.25625,0.0066374997,0.0135345,-0.00399775,1741839711.4476311
0.05225,-0.01475,0.25725,0.006256,0.01367175,-0.0037537501,1741839711.462132
0.05375,-0.01675,0.25175,0.0055237496,0.014724749,-0.0037079998,1741839711.476636
0.05575,-0.02125,0.24975,0.0049285004,0.014800999,-0.00372325,1741839711.491107
0.05925,-0.02375,0.251,0.00413525,0.014618,-0.00358575,1741839711.505912
0.062,-0.0195,0.24075,0.00419625,0.014587499,-0.0033722501,1741839711.520252
0.0645,-0.0225,0.23225,0.0028535,0.0138855,-0.0030975002,1741839711.535861
0.0705,-0.032,0.22175,0.0023497501,0.01324475,-0.0032195,1741839711.5492291
0.07375,-0.03275,0.223,0.00331125,0.01142875,-0.003418,1741839711.563724
0.07775,-0.02725,0.231,0.004074,0.010513251,-0.003418,1741839711.578518
0.07975,-0.025,0.233,0.0035095,0.009674,-0.0029449998,1741839711.592802
0.0845,-0.0265,0.2335,0.00213625,0.00985725,-0.00263975,1741839711.607318
0.08625,-0.0295,0.2315,9.15e-05,0.010253999,-0.0019225,1741839711.621904
0.0915,-0.0325,0.2325,-0.0002135,0.01013175,-0.00154125,1741839711.636553
0.09325,-0.03325,0.23475,-0.00027475,0.01004025,-0.0013885,1741839711.651228
0.0945,-0.03325,0.23275,0.00029,0.0099945,-0.0013427499,1741839711.666332
0.095,-0.036,0.23125,0.00061025,0.010086001,-0.0013427499,1741839711.6803
0.09575,-0.03825,0.22975,0.0014037499,0.010757499,-0.00143425,1741839711.695931
0.0995,-0.039,0.229,0.00177,0.010604749,-0.00143425,1741839711.709426
0.10125,-0.03775,0.22925,0.0013580001,0.010086001,-0.0013580001,1741839711.7239249
0.1035,-0.03775,0.23125,0.001114,0.010299751,-0.0014495,1741839711.738508
0.105,-0.03825,0.23275,0.00175475,0.01145925,-0.001648,1741839711.753084
0.11225,-0.0405,0.236,0.00216675,0.01197825,-0.00143425,1741839711.767615
0.11575,-0.04025,0.23675,0.002365,0.012771499,-0.00062550005,1741839711.782208
0.118,-0.039,0.23175,0.0020599999,0.013321,-0.0005645,1741839711.7966459
0.11925,-0.0405,0.22775,0.0022735,0.014053251,-0.000824,1741839711.811122
0.1215,-0.042,0.22325,0.00296025,0.014221249,-0.00068675,1741839711.8257332
0.123,-0.0415,0.22225,0.00343325,0.0148772495,-0.00024425,1741839711.84039
0.127,-0.03675,0.21775,0.0031889998,0.0154115,-0.00024425,1741839711.8550222
0.129,-0.0385,0.20975,0.0028229998,0.015976,-0.00036625,1741839711.8696692
0.13525,-0.04525,0.20475,0.002472,0.01649475,-0.00033575002,1741839711.8841999
0.13825,-0.04625,0.2015,0.00305175,0.016540501,-0.0002135,1741839711.898635
0.14025,-0.04675,0.19375,0.00372325,0.01573175,0.000229,1741839711.913132
0.142,-0.04525,0.18325,0.00343325,0.0148315,0.000534,1741839711.929183
0.145,-0.0425,0.1855,0.00343325,0.013336251,0.00061025,1741839711.942025
0.15025,-0.043,0.18475,0.004013,0.0126495,0.00035100002,1741839711.956552
0.15125,-0.0475,0.17525,0.004074,0.010849,0.000473,1741839711.971023
0.15325,-0.051,0.1705,0.003296,0.009734999,0.000946,1741839711.985781
0.154,-0.04675,0.1795,0.0021515,0.008850001,0.001526,1741839712.000016
0.1575,-0.044,0.193,0.001953,0.009140001,0.00146475,1741839712.015969
0.15975,-0.04725,0.195,0.00175475,0.0100707505,0.00163275,1741839712.029197
0.16275,-0.04675,0.1945,0.0016632499,0.010742251,0.00198375,1741839712.043591
0.16325,-0.04425,0.1875,0.00163275,0.01145925,0.0023039998,1741839712.058028
0.1645,-0.0415,0.1785,0.00131225,0.011627249,0.00270075,1741839712.07263
0.16775,-0.041,0.1725,0.0012055,0.0110015,0.002777,1741839712.087052
0.1695,-0.04225,0.178,0.001831,0.010894749,0.0022277501,1741839712.101542
0.17325,-0.0435,0.18775,0.00279225,0.01177975,0.0016785001,1741839712.1160488
0.1745,-0.046,0.18425,0.0041044997,0.01367175,0.0013275,1741839712.1306958
0.177,-0.0455,0.17625,0.0035095,0.01440425,0.00169375,1741839712.1459572
0.17875,-0.045,0.1705,0.00190725,0.0153502505,0.0022735,1741839712.159658
0.18275,-0.04175,0.161,0.0020905002,0.015289251,0.0022277501,1741839712.1740239
0.18425,-0.04175,0.1575,0.00440975,0.014557,0.001526,1741839712.188624
0.18625,-0.0465,0.1515,0.0052795,0.014389,0.001236,1741839712.203232
0.1865,-0.04375,0.1545,0.0056,0.014495751,0.0012970001,1741839712.2177348
0.19175,-0.04525,0.152,0.00514225,0.015579251,0.001831,1741839712.232435
0.19375,-0.0485,0.147,0.00411975,0.015579251,0.00216675,1741839712.246924
0.19575,-0.049,0.145,0.001953,0.01440425,0.0028535,1741839712.266803
0.1965,-0.0405,0.141,0.00137325,0.014297499,0.0031127501,1741839712.275726
0.1965,-0.04025,0.13325,0.00029,0.014679,0.0035704998,1741839712.290271
0.2015,-0.0445,0.12825,0.000122000005,0.014160249,0.00372325,1741839712.306227
0.20525,-0.04375,0.133,0.00065625,0.013046251,0.0037995,1741839712.319183
0.207,-0.0405,0.126,0.00115975,0.01324475,0.0036010002,1741839712.3337228
0.2105,-0.04625,0.122,0.00064075,0.013641249,0.00396725,1741839712.3482182
0.21,-0.046,0.11825,0.000229,0.013336251,0.00463875,1741839712.362664
0.2095,-0.04175,0.11125,0.00064075,0.012375,0.0047607496,1741839712.3786612
0.2105,-0.039,0.10325,0.00061025,0.011764499,0.00440975,1741839712.391582
0.2145,-0.039,0.1135,0.000534,0.011016751,0.00396725,1741839712.406821
0.2185,-0.03725,0.12575,0.0026245,0.0112,0.00296025,1741839712.420765
0.21825,-0.0345,0.11575,0.0050812503,0.012191749,0.002411,1741839712.436482
0.217,-0.0365,0.10225,0.007782,0.012436,0.00177,1741839712.449661
0.21725,-0.033,0.0955,0.00744625,0.011810251,0.0016632499,1741839712.4640498
0.219,-0.03125,0.1005,0.006256,0.01115425,0.001007,1741839712.4793868
0.224,-0.03925,0.10175,0.0058287503,0.011184749,0.00068675,1741839712.493058
0.22425,-0.04025,0.0975,0.0047607496,0.01133725,0.00061025,1741839712.5075042
0.22275,-0.0405,0.08125,0.00434875,0.0109709995,0.000122000005,1741839712.52202
0.22375,-0.04375,0.07625,0.0054932497,0.0091705,-0.001587,1741839712.536619
0.22425,-0.04475,0.08175,0.00617975,0.008514499,-0.0020905002,1741839712.5511339
0.2235,-0.043,0.08275,0.0059510004,0.0081025,-0.00216675,1741839712.566255
0.22475,-0.042,0.084,0.0025940002,0.006836,-0.0014495,1741839712.580087
0.23075,-0.04975,0.0925,0.000412,0.0064850003,-0.00057975,1741839712.596523
0.232,-0.05,0.10025,-0.0036315,0.00801075,0.0019225,1741839712.609131
0.23175,-0.046,0.0935,-0.004776,0.00903325,0.0029449998,1741839712.6236138
0.23175,-0.046,0.086,-0.0049895,0.00953675,0.0034790002,1741839712.638122
0.2355,-0.04225,0.08025,-0.0047302498,0.00930775,0.0033722501,1741839712.652607
0.2335,-0.0365,0.07875,-0.0041810004,0.009842,0.0034942501,1741839712.667118
0.231,-0.03025,0.06075,-0.0037537501,0.0100707505,0.0031889998,1741839712.681642
0.23025,-0.0335,0.04975,-0.00204475,0.0076905,0.00175475,1741839712.696128
0.229,-0.03475,0.0465,-0.0011445,0.0058287503,0.00096125,1741839712.7106318
0.22825,-0.03475,0.048,-0.00045775,0.0046234997,0.00035100002,1741839712.7251682
0.2285,-0.03375,0.05475,-0.0015105,0.0036315,0.00039675,1741839712.7396579
0.231,-0.033,0.059,-0.0033570002,0.00320425,0.0008545,1741839712.75421
0.23375,-0.0335,0.066,-0.00593575,0.00225825,0.00102225,1741839712.7688189
0.23375,-0.026,0.07975,-0.0065917503,0.002777,0.0009765,1741839712.783276
0.2355,-0.02925,0.0745,-0.0070952503,0.0052947504,0.0007325,1741839712.797865
0.23975,-0.04575,0.049,-0.0068055,0.0056609996,0.00093075,1741839712.812337
0.23675,-0.0365,0.0455,-0.0053709997,0.004074,0.00115975,1741839712.826957
0.233,-0.02675,0.0475,-0.00491325,0.00354,0.0007325,1741839712.8413389
0.233,-0.02875,0.0475,-0.00517275,0.00317375,9.15e-05,1741839712.856035
0.23425,-0.03575,0.0475,-0.0054932497,0.0028229998,3.0500001e-05,1741839712.870396
0.236,-0.03925,0.05675,-0.0058135,0.0021057501,0.00016775,1741839712.886236
0.23925,-0.0345,0.06925,-0.0057677496,0.00231925,0.000122000005,1741839712.89964
0.24025,-0.033,0.06325,-0.0056304997,0.0028074998,7.625e-05,1741839712.9141078
0.2405,-0.03625,0.04025,-0.0049742498,0.0029755002,0.00030525,1741839712.9286258
0.23925,-0.03275,0.04,-0.0047607496,0.0019685,0.00042725,1741839712.943082
0.23925,-0.02725,0.049,-0.0045012496,0.0005645,-3.0500001e-05,1741839712.9577
0.24,-0.03125,0.05225,-0.0044555003,0.0008545,-0.000183,1741839712.9723148
0.23975,-0.03675,0.04725,-0.0057220003,0.0019989999,0.00119025,1741839712.986822
0.23825,-0.03475,0.04225,-0.00646975,0.0021515,0.0019685,1741839713.001303
0.2395,-0.032,0.04825,-0.0060882503,0.000412,0.001892,1741839713.0165498
0.24375,-0.02625,0.07275,-0.0057372497,-0.0002595,0.00175475,1741839713.030477
0.2445,-0.0245,0.07475,-0.0050812503,0.00131225,0.00163275,1741839713.046329
0.24325,-0.0155,0.05575,-0.0042267498,0.00245675,0.0013275,1741839713.059787
0.24175,-0.0155,0.048,-0.00024425,0.00308225,-0.00035100002,1741839713.074508
0.23775,-0.02575,0.037,0.00148,0.0025787498,-0.001007,1741839713.089064
0.2375,-0.02725,0.0425,0.00064075,0.000946,-0.000534,1741839713.103682
0.242,-0.025,0.068,-0.000534,0.00090025004,-9.15e-05,1741839713.11833
0.244,-0.02675,0.069,-0.0012207499,0.00149525,7.625e-05,1741839713.132811
0.24375,-0.03325,0.0555,-0.00090025004,0.002533,0.00010675,1741839713.147437
0.243,-0.034,0.04925,-0.00083925005,0.0027160002,0.000412,1741839713.1620202
0.243,-0.03225,0.04725,-0.001236,0.002411,0.0010375,1741839713.178224
0.2425,-0.02225,0.0505,-0.00086975005,0.0022125002,0.000885,1741839713.191456
0.2415,-0.02,0.05225,0.00039675,0.00263975,0.00024425,1741839713.206762
0.2415,-0.0215,0.05075,0.0002595,0.0028535,0.00016775,1741839713.22052
0.24225,-0.0235,0.05075,-0.0013580001,0.0031585,0.00070200005,1741839713.235869
0.244,-0.0255,0.0495,-0.0018615,0.0032655,0.00099175,1741839713.249686
0.24475,-0.02375,0.04625,-0.00065625,0.0025787498,0.00054925,1741839713.2641358
0.243,-0.02225,0.0465,0.00059500005,0.00177,1.5250001e-05,1741839713.279283
0.24125,-0.021,0.04825,0.00213625,0.00154125,-0.0005645,1741839713.293061
0.24175,-0.01475,0.056,0.00270075,0.0020752498,-0.00074775,1741839713.307604
0.24275,-0.01425,0.059,0.0044250004,0.0035095,-0.001419,1741839713.3220968
0.24225,-0.0205,0.057,0.00494375,0.00444025,-0.00175475,1741839713.336688
0.24225,-0.025,0.04875,0.005005,0.0055085,-0.0020599999,1741839713.3514152
0.2435,-0.03225,0.02725,0.0050202496,0.00614925,-0.0029449998,1741839713.366417
0.244,-0.034,0.0265,0.00543225,0.0052947504,-0.0035095,1741839713.380584
0.244,-0.0345,0.03225,0.0065917503,0.0045777503,-0.0042572496,1741839713.3963149
0.24525,-0.0375,0.03775,0.0067445002,0.0052185003,-0.00416575,1741839713.4098501
0.2445,-0.03775,0.03725,0.00437925,0.0055085,-0.0028687501,1741839713.4243698
0.243,-0.0325,0.037,0.002884,0.0054015,-0.0021819999,1741839713.4390059
0.243,-0.033,0.03375,0.00216675,0.00555425,-0.0016785001,1741839713.4536161
0.24525,-0.03775,0.0295,0.00213625,0.00517275,-0.00169375,1741839713.468117
0.24675,-0.03675,0.0315,0.0031585,0.00460825,-0.001892,1741839713.482667
0.2425,-0.03,0.0235,0.0043944996,0.0050812503,-0.0020295,1741839713.497081
0.24125,-0.0305,0.01675,0.0050812503,0.004837,-0.0023345,1741839713.5116181
0.24225,-0.0345,0.01925,0.0042267498,0.0037079998,-0.00239575,1741839713.5260868
0.243,-0.036,0.02475,0.00279225,0.00270075,-0.0021819999,1741839713.5405738
0.24275,-0.03825,0.024,0.0009765,0.0028687501,-0.00131225,1741839713.5551
0.24075,-0.03775,0.01925,0.00115975,0.00340275,-0.00112925,1741839713.5696971
0.2395,-0.037,0.017,0.00112925,0.00343325,-0.00099175,1741839713.5856042
0.2415,-0.043,0.02125,0.00030525,0.0033722501,-0.00057975,1741839713.598856
0.242,-0.0455,0.01825,-0.0013275,0.00367725,0.00077825,1741839713.6133828
0.23775,-0.037,0.00525,-0.00125125,0.0033722501,0.000885,1741839713.62918
0.23775,-0.03975,0.003,-0.0005645,0.00143425,7.625e-05,1741839713.6427362
0.24,-0.045,0.012,-0.00033575002,0.00045775,-7.625e-05,1741839713.6574888
0.2415,-0.044,0.0225,-0.00042725,-0.0002595,0.00019825,1741839713.6721332
0.2425,-0.03775,0.038,-0.00083925005,7.625e-05,0.0003205,1741839713.686589
0.24275,-0.03775,0.03225,-0.00115975,0.00109875,0.00035100002,1741839713.70112
0.23975,-0.0385,0.01425,-0.00115975,0.00131225,0.0005645,1741839713.716186
0.23875,-0.03675,0.01,-0.00190725,0.0012665,0.00143425,1741839713.7303958
0.23825,-0.0295,0.004,-0.001175,0.00125125,0.0013427499,1741839713.7461078
0.23675,-0.02625,0.0025,0.0005645,0.00119025,0.00065625,1741839713.759361
0.2435,-0.031,0.01875,0.0026245,0.0003815,-0.00090025004,1741839713.773782
0.24475,-0.03325,0.02125,0.0021819999,6.1000002e-05,-0.001007,1741839713.788497
0.244,-0.0345,0.01575,0.0013885,4.575e-05,-0.000824,1741839713.803009
0.2435,-0.03725,0.01,0.001526,-0.00019825,-0.0009155,1741839713.817594
0.24325,-0.03625,0.0145,0.00125125,-0.00064075,-0.00065625,1741839713.832194
0.24475,-0.03875,0.0235,0.00070200005,-0.00029,-0.00024425,1741839713.846875
0.24575,-0.0405,0.02275,0.000183,0.00074775,0.00030525,1741839713.861422
0.24475,-0.043,0.01525,0.00010675,0.0008545,0.0003815,1741839713.875786
0.2445,-0.04125,0.01475,-0.00109875,0.00036625,0.00090025004,1741839713.890301
0.244,-0.03725,0.00925,-0.001587,-4.575e-05,0.0011445,1741839713.905782
0.24225,-0.0355,0.00625,-0.001236,-0.0013580001,0.00099175,1741839713.9194722
0.24075,-0.03475,0.00975,-0.000885,-0.0018615,0.00074775,1741839713.93412
0.243,-0.037,0.01675,-0.00033575002,-0.0017395001,0.00054925,1741839713.948649
0.24475,-0.0355,0.021,-0.00013725001,-0.0013580001,0.00054925,1741839713.963472
0.2445,-0.037,0.0215,-1.5250001e-05,-0.001114,0.00051875,1741839713.978378
0.24575,-0.03875,0.0225,-0.00070200005,-0.00074775,0.0008545,1741839713.9926558
0.24625,-0.039,0.02225,-0.00112925,-0.0004425,0.001114,1741839714.007503
0.2455,-0.03825,0.0195,-0.00148,-0.0002595,0.001587,1741839714.02209
0.24475,-0.03225,0.02075,-0.0013580001,-0.00035100002,0.0016632499,1741839714.0366662
0.2445,-0.02875,0.024,-0.00096125,-0.00024425,0.00137325,1741839714.051252
0.24375,-0.029,0.02025,-0.000946,-0.0001525,0.00109875,1741839714.0662851
0.24375,-0.0325,0.0165,-0.001526,-0.00042725,0.0009155,1741839714.080399
0.24425,-0.035,0.01675,-0.001892,-0.00054925,0.001068,1741839714.0964448
0.244,-0.034,0.01775,-0.002121,-0.000473,0.0013580001,1741839714.109668
0.245,-0.03275,0.021,-0.0019989999,-0.00036625,0.0013885,1741839714.1242838
0.245,-0.03225,0.02175,-0.0022125002,-3.0500001e-05,0.001587,1741839714.138887
0.24575,-0.03275,0.02175,-0.00267025,0.0002135,0.00184625,1741839714.153398
0.24625,-0.0335,0.02175,-0.00396725,0.00065625,0.0025787498,1741839714.1680052
0.2455,-0.02875,0.02225,-0.00453175,0.000946,0.00292975,1741839714.182507
0.24575,-0.02725,0.02375,-0.0046234997,0.001419,0.0031127501,1741839714.196966
0.246,-0.02725,0.01825,-0.00399775,0.002655,0.0030669998,1741839714.2115278
0.2445,-0.0265,0.01275,-0.00364675,0.002777,0.00296025,1741839714.226121
0.24375,-0.02425,0.01325,-0.0030975002,0.00190725,0.0027465,1741839714.240572
0.243,-0.02325,0.01525,-0.00267025,0.00154125,0.00254825,1741839714.256056
0.2415,-0.02375,0.01675,-0.0030669998,0.00054925,0.00308225,1741839714.269618
0.244,-0.02375,0.01925,-0.003769,-0.000122000005,0.00352475,1741839714.28414
0.245,-0.02175,0.01925,-0.00437925,-0.00109875,0.0030365,1741839714.298666
0.245,-0.01775,0.018,-0.0040587503,-0.0013427499,0.0023039998,1741839714.313496
0.244,-0.0175,0.01825,-0.0030975002,-0.001526,0.00109875,1741839714.329162
0.247,-0.022,0.02225,-0.0024872501,-0.0012817499,0.00067150005,1741839714.342746
0.24875,-0.02525,0.0225,-0.000763,0.0,0.0,1741839714.3572679
0.2455,-0.02425,0.01825,-0.00033575002,0.0004425,-4.575e-05,1741839714.371983
0.244,-0.0215,0.01775,-0.00035100002,0.00067150005,0.00033575002,1741839714.386487
0.24225,-0.016,0.01875,6.1000002e-05,0.00086975005,0.00030525,1741839714.401074
0.24225,-0.01675,0.01725,0.00099175,0.00131225,4.575e-05,1741839714.416189
0.24175,-0.0215,0.0125,0.0020905002,0.0017395001,-0.00027475,1741839714.430183
0.241,-0.0205,0.013,0.002121,0.00160225,-6.1000002e-05,1741839714.446364
0.2415,-0.0195,0.017,0.00413525,0.002777,-0.0002595,1741839714.459401
0.2455,-0.02,0.01925,0.0052947504,0.0037079998,-0.00065625,1741839714.474
0.24575,-0.02175,0.0135,0.00408925,0.0030669998,-0.00045775,1741839714.488485
0.24325,-0.02375,0.0105,0.0026245,0.0021057501,0.000122000005,1741839714.5029051
0.243,-0.02375,0.01075,0.0018005001,0.00160225,0.00051875,1741839714.517365
0.2475,-0.02475,0.01025,0.0013885,0.001175,0.0004425,1741839714.531797
0.2495,-0.02625,0.012,6.1000002e-05,-0.0004425,0.00027475,1741839714.5464928
0.2485,-0.0275,0.012,-0.0001525,-0.00099175,9.15e-05,1741839714.560884
0.24775,-0.02625,0.01175,0.0003205,-0.001526,-0.00036625,1741839714.575467
0.24625,-0.022,0.01425,0.00068675,-0.001648,-0.00061025,1741839714.590082
0.246,-0.022,0.0155,0.0008545,-0.0018615,-0.00090025004,1741839714.6046872
0.2475,-0.022,0.0155,-0.00033575002,-0.00279225,-0.001114,1741839714.6195579
0.24875,-0.0225,0.01675,-0.00109875,-0.0031127501,-0.00090025004,1741839714.634444
0.24475,-0.0275,0.0115,-0.001892,-0.00270075,-4.575e-05,1741839714.64909
0.2415,-0.02825,0.01,-0.00213625,-0.0026245,0.0002595,1741839714.663659
0.2405,-0.026,0.014,-0.00276175,-0.00334175,-4.575e-05,1741839714.678742
0.24375,-0.01825,0.02575,-0.003128,-0.00369275,-0.000473,1741839714.693105
0.24625,-0.0155,0.0305,-0.0024414998,-0.0023039998,-0.00090025004,1741839714.707721
0.24775,-0.01825,0.02925,-0.00099175,-0.00083925005,-0.00109875,1741839714.722574
0.24525,-0.02025,0.0235,0.00193775,0.0014495,-0.00146475,1741839714.737041
0.2455,-0.02425,0.01475,0.0023039998,0.00181575,-0.00105275,1741839714.751575
0.247,-0.02625,0.01775,0.0026245,0.000824,4.575e-05,1741839714.7660449
0.244,-0.02625,0.0255,0.00216675,0.00054925,0.0001525,1741839714.780512
0.24375,-0.0255,0.021,0.00039675,0.00067150005,-0.000122000005,1741839714.79632
0.2425,-0.025,0.0125,-3.0500001e-05,0.00030525,-0.0001525,1741839714.8096588
0.24225,-0.024,0.01325,-1.5250001e-05,-0.00070200005,-0.000183,1741839714.824357
0.24275,-0.0225,0.01875,0.0003205,-0.0009765,-0.00048825,1741839714.8388631
0.24325,-0.02275,0.0205,0.00048825,-0.001114,-0.0007935,1741839714.853439
0.2485,-0.0245,0.02825,-0.00042725,-0.00080875,-0.00077825,1741839714.868184
0.249,-0.0255,0.03025,-0.00112925,-0.0003205,-0.00036625,1741839714.882968
0.247,-0.02875,0.0235,-0.0034942501,0.000534,0.000763,1741839714.897463
0.248,-0.02825,0.0205,-0.004837,0.00061025,0.00112925,1741839714.911956
0.248,-0.0255,0.0185,-0.004486,0.00059500005,0.00096125,1741839714.9264598
0.2435,-0.02,0.01475,-0.0032195,0.0008545,0.00045775,1741839714.941107
0.2425,-0.01875,0.01525,-0.00216675,0.0009155,-0.00033575002,1741839714.956665
0.24675,-0.021,0.0185,-0.00242625,0.000473,-0.0005035,1741839714.970276
0.24825,-0.0245,0.01775,-0.0028535,-0.00070200005,-0.000534,1741839714.986356
0.24875,-0.027,0.0165,-0.0028229998,-0.0012207499,-0.000473,1741839714.999756
0.2505,-0.02625,0.016,-0.00190725,-0.002777,-0.00109875,1741839715.014459
0.2465,-0.0265,0.017,-0.00125125,-0.0041044997,-0.001709,1741839715.029259
0.24525,-0.027,0.01975,-0.00057975,-0.0050202496,-0.00201425,1741839715.043957
0.246,-0.02475,0.0295,-0.00024425,-0.0045012496,-0.00175475,1741839715.058659
0.24475,-0.02375,0.03,-0.000534,-0.0034790002,-0.00099175,1741839715.073361
0.2435,-0.02925,0.02425,-0.00109875,-0.00325,-0.00061025,1741839715.088099
0.24475,-0.03025,0.02775,-0.0019989999,-0.00204475,0.00042725,1741839715.1026812
0.24725,-0.0265,0.03875,-0.0022277501,-0.00093075,0.00090025004,1741839715.117394
0.24525,-0.025,0.034,-0.001419,0.0012207499,0.00125125,1741839715.132003
0.2435,-0.0245,0.021,-0.0012665,0.0013275,0.0013885,1741839715.146463
0.245,-0.02375,0.02225,-0.00042725,0.00102225,0.00119025,1741839715.1609862
0.2455,-0.02225,0.0255,0.004303,0.0012207499,-0.0005645,1741839715.1754382
0.24575,-0.0195,0.02825,0.0057525,0.001236,-0.0012055,1741839715.18996
0.24575,-0.0205,0.02875,0.0061339997,9.15e-05,-0.00108325,1741839715.2058702
0.24425,-0.026,0.0295,0.006256,-0.000183,-0.00093075,1741839715.2190561
0.24425,-0.028,0.028,0.0061645,0.00045775,-0.000824,1741839715.233612
0.243,-0.02975,0.0235,0.00511175,0.00065625,-0.00039675,1741839715.248134
0.24375,-0.02925,0.02475,0.00148,0.0005035,0.001068,1741839715.262676
0.2455,-0.02875,0.03,0.00074775,0.00067150005,0.0013885,1741839715.278933
0.2455,-0.02925,0.02775,0.00029,0.0014495,0.00143425,1741839715.291766
0.24575,-0.02675,0.023,0.0003815,0.0017395001,0.00131225,1741839715.306668
0.245,-0.02475,0.0225,0.00061025,0.00190725,0.000885,1741839715.3206558
0.245,-0.023,0.02225,0.00013725001,0.0016785001,0.00077825,1741839715.336083
0.2455,-0.02325,0.023,-0.00030525,0.0013580001,0.00068675,1741839715.3498912
0.24575,-0.0235,0.023,-0.0002135,0.001175,0.000229,1741839715.364491
0.246,-0.02325,0.022,0.0001525,0.001236,-0.000122000005,1741839715.3789718
0.2465,-0.02325,0.02325,0.00039675,0.0012207499,-0.00042725,1741839715.393534
0.246,-0.02725,0.023,-9.15e-05,0.001236,-0.0002135,1741839715.40816
0.24625,-0.02825,0.022,-0.0013275,0.001114,0.0003205,1741839715.422803
0.24525,-0.024,0.01875,-0.00109875,0.00105275,0.0002595,1741839715.437262
0.2445,-0.02125,0.01775,0.0002595,0.00065625,-0.00036625,1741839715.4517791
0.245,-0.0215,0.02,0.00071725,0.0003205,-0.00059500005,1741839715.466435
0.24525,-0.02325,0.02275,0.001175,0.0002135,-0.00086975005,1741839715.480982
0.24525,-0.0255,0.02475,0.001068,0.00030525,-0.000946,1741839715.496574
0.2445,-0.027,0.0225,-0.0002135,0.000229,-0.00068675,1741839715.5100942
0.24375,-0.027,0.019,-0.00064075,9.15e-05,-0.00070200005,1741839715.524776
0.244,-0.02475,0.0195,-0.00068675,3.0500001e-05,-0.0008545,1741839715.5393631
0.24325,-0.022,0.0195,-0.000885,1.5250001e-05,-0.001007,1741839715.553874
0.243,-0.0235,0.01725,-0.00160225,-4.575e-05,-0.00080875,1741839715.568568
0.243,-0.02625,0.016,-0.0040435,-0.00027475,0.000183,1741839715.5832179
0.246,-0.02625,0.021,-0.0047455,-0.00039675,0.00062550005,1741839715.597874
0.2465,-0.0245,0.023,-0.0042725,-0.00036625,0.00083925005,1741839715.612473
0.24525,-0.02525,0.021,-0.003891,-0.00029,0.00080875,1741839715.6270452
0.244,-0.02675,0.01775,-0.0030365,-0.0002595,0.000885,1741839715.641597
0.2435,-0.02525,0.01875,-0.0025940002,-0.00033575002,0.000946,1741839715.656534
0.24425,-0.023,0.02125,-0.00154125,-0.0001525,0.0007325,1741839715.670866
0.2445,-0.0235,0.0215,-0.0009765,7.625e-05,0.0004425,1741839715.686123
0.2445,-0.0265,0.019,-0.000183,0.00016775,-6.1000002e-05,1741839715.699908
0.246,-0.028,0.019,-0.000183,-6.1000002e-05,0.0,1741839715.7159638
0.2465,-0.02575,0.02125,-0.000473,-0.00029,0.00045775,1741839715.7292979
0.2475,-0.0215,0.024,-0.00051875,-9.15e-05,0.00062550005,1741839715.743878
0.2465,-0.02,0.0235,-0.0004425,0.0002595,0.00068675,1741839715.758346
0.245,-0.02025,0.02225,-0.00061025,0.00033575002,0.00068675,1741839715.7728798
0.2445,-0.02125,0.02075,-0.00068675,0.00042725,0.00068675,1741839715.787422
0.244,-0.02325,0.01875,-0.00090025004,0.00036625,0.000946,1741839715.801994
0.24475,-0.02475,0.02025,-0.001175,0.000229,0.0012665,1741839715.816454
0.24475,-0.0235,0.02175,-0.00090025004,0.0003815,0.001419,1741839715.830967
0.24575,-0.0205,0.02425,-0.00064075,0.000534,0.0012055,1741839715.8461912
0.24625,-0.021,0.0245,-0.000122000005,0.0007325,0.00070200005,1741839715.859933
0.2465,-0.02425,0.023,-0.00016775,0.00074775,0.00074775,1741839715.874463
0.2455,-0.0245,0.021,6.1000002e-05,0.00080875,0.000946,1741839715.888861
0.2435,-0.024,0.01975,0.00039675,0.0008545,0.0009155,1741839715.903417
0.24425,-0.02375,0.02125,0.000229,0.0009155,0.00115975,1741839715.917973
0.24425,-0.0235,0.01925,7.625e-05,0.0009765,0.00143425,1741839715.9323862
0.24325,-0.024,0.017,0.0,0.0009765,0.0017242499,1741839715.9468749
0.2435,-0.024,0.0165,-4.575e-05,0.00061025,0.002243,1741839715.961385
0.24275,-0.02625,0.0155,-0.00010675,0.00042725,0.0025634998,1741839715.9758751
0.24175,-0.02775,0.01275,-0.00077825,-0.00030525,0.004013,1741839715.990348
0.242,-0.02675,0.0105,-0.00070200005,-0.0009765,0.0048217503,1741839716.006132
0.24225,-0.024,0.0105,0.000122000005,-0.001831,0.0056304997,1741839716.019434
0.24225,-0.02075,0.0115,1.5250001e-05,-0.00201425,0.006073,1741839716.033979
0.243,-0.02025,0.01625,-0.00184625,-0.0022735,0.0077972496,1741839716.048578
0.24775,-0.0175,0.0295,-0.0024872501,-0.0020295,0.008590749,1741839716.063072
0.248,-0.0165,0.0275,-0.00204475,-0.0008545,0.009140001,1741839716.079401
0.24775,-0.013,0.01925,-0.00193775,-0.00065625,0.009582501,1741839716.092514
0.25,-0.01125,0.021,-0.00193775,-0.00077825,0.010879501,1741839716.107072
0.25075,-0.00375,0.025,-0.00154125,-0.000412,0.011139,1741839716.1217558
0.249,0.0015,0.02375,-0.0015105,0.0003815,0.011321999,1741839716.136501
0.24725,0.01075,0.02075,-0.0017852499,0.0002135,0.011306751,1741839716.1506
0.24825,0.014,0.02175,-0.00193775,-0.00013725001,0.0110625,1741839716.166035
0.249,0.0175,0.02375,-0.0018615,-0.00061025,0.010024999,1741839716.179702
0.24875,0.02275,0.02375,-0.00163275,-0.00061025,0.009292499,1741839716.194287
0.2485,0.024,0.023,-0.00096125,-0.00093075,0.0077972496,1741839716.208756
0.245,0.02075,0.02025,-0.0005035,-0.00119025,0.00717175,1741839716.2233112
0.24475,0.01925,0.02225,-0.000946,-0.0015105,0.0070495,1741839716.237785
0.2455,0.0245,0.0285,-0.00108325,-0.0014037499,0.0070495,1741839716.252264
0.2435,0.0275,0.02775,-0.00096125,-0.0010375,0.0065307496,1741839716.266748
0.242,0.02875,0.02425,-0.00137325,-0.0011445,0.00643925,1741839716.281318
0.242,0.02875,0.0235,-0.001953,-0.001419,0.0062712496,1741839716.295752
0.24,0.02775,0.0205,-0.00242625,-0.00149525,0.00631725,1741839716.310323
0.241,0.02975,0.024,-0.0033570002,-0.00169375,0.00662225,1741839716.324887
0.241,0.03775,0.0285,-0.00292975,-0.00175475,0.0060272496,1741839716.339457
0.2395,0.04075,0.02725,-0.00157175,-0.00157175,0.0048674997,1741839716.353964
0.23925,0.0405,0.027,-0.00045775,-0.0019685,0.0033264998,1741839716.36848
0.24275,0.03425,0.0305,-0.000534,-0.0022125002,0.00314325,1741839716.383033
0.24425,0.0335,0.0325,-0.00036625,-0.0021057501,0.00302125,1741839716.397434
0.2425,0.03775,0.0325,-3.0500001e-05,-0.00184625,0.0027312501,1741839716.411978
0.241,0.03975,0.0305,-0.00036625,-0.001419,0.0020905002,1741839716.426473
0.24075,0.04125,0.031,-0.00077825,-0.0014495,0.00181575,1741839716.441141
0.241,0.04025,0.0315,-0.0016175,-0.00163275,0.00131225,1741839716.4561841
0.2435,0.04025,0.0335,-0.001953,-0.00177,0.00112925,1741839716.47014
0.2435,0.0395,0.034,-0.001587,-0.0019225,0.00064075,1741839716.4846551
0.24525,0.03775,0.03625,-0.0012055,-0.00181575,0.00033575002,1741839716.49916
0.24425,0.03775,0.03675,-0.0007935,-0.00154125,1.5250001e-05,1741839716.513609
0.24225,0.037,0.03475,-0.0009155,-0.00090025004,0.0,1741839716.5292742
0.241,0.0375,0.0325,-0.00154125,-0.00074775,0.0003205,1741839716.542772
0.24075,0.038,0.032,-0.0028074998,-0.000473,0.00086975005,1741839716.5573199
0.2405,0.03875,0.031,-0.00317375,-0.00051875,0.0008545,1741839716.57181
0.24025,0.0395,0.02975,-0.00283825,-0.000763,0.0002135,1741839716.586358
0.241,0.0385,0.029,-0.00228875,-0.00074775,-7.625e-05,1741839716.6008599
0.2425,0.03675,0.03175,-0.0013427499,-0.00042725,-0.000229,1741839716.616155
0.2445,0.038,0.038,-0.0013580001,-9.15e-05,-0.00019825,1741839716.630114
0.24275,0.03925,0.0345,-0.000946,0.000824,-0.0003205,1741839716.6463602
0.23975,0.039,0.0265,-0.00083925005,0.00096125,-0.00013725001,1741839716.659154
0.23975,0.03875,0.0265,-0.0013885,0.00064075,0.00042725,1741839716.67353
0.24075,0.03975,0.0295,-0.0013275,0.00048825,0.0003815,1741839716.688001
0.2415,0.04075,0.03025,-0.00105275,0.00042725,0.000183,1741839716.702341
0.2425,0.04125,0.0305,-0.000885,0.00033575002,-0.000122000005,1741839716.716835
0.24475,0.04025,0.0325,-0.0009155,0.00035100002,-0.0002135,1741839716.731426
0.24475,0.0395,0.0325,-0.000229,0.00048825,-0.0005645,1741839716.746494
0.24325,0.04,0.0315,-0.000183,0.00059500005,-0.00065625,1741839716.760434
0.24275,0.04175,0.0315,-0.00059500005,0.0007325,-0.00083925005,1741839716.775073
0.24175,0.0415,0.0285,-0.0007325,0.00065625,-0.0009765,1741839716.7895691
0.24225,0.03975,0.028,-0.00108325,0.00048825,-0.0009155,1741839716.8040829
0.2425,0.03775,0.02725,-0.0010375,0.00045775,-0.000946,1741839716.818519
0.2425,0.03775,0.02675,-0.000763,0.000183,-0.0012207499,1741839716.8330722
0.243,0.03675,0.02775,-0.0007325,6.1000002e-05,-0.0012970001,1741839716.847549
0.243,0.03575,0.029,-0.0007325,1.5250001e-05,-0.0013427499,1741839716.862049
0.24325,0.034,0.03125,-0.00039675,-7.625e-05,-0.00149525,1741839716.8765461
0.2435,0.034,0.03225,-0.00045775,-9.15e-05,-0.0014495,1741839716.891093
0.24325,0.0335,0.0315,-0.001068,-6.1000002e-05,-0.00109875,1741839716.906576
0.24325,0.0335,0.02725,-0.00131225,-0.00019825,-0.0008545,1741839716.920438
0.2435,0.03625,0.0285,-0.00105275,-0.00036625,-0.00065625,1741839716.93622
0.243,0.04,0.03275,-0.00080875,-0.000183,-0.00080875,1741839716.949889
0.242,0.03825,0.0315,-0.00080875,0.00013725001,-0.0012207499,1741839716.9644392
0.2415,0.03475,0.02825,-0.000763,6.1000002e-05,-0.001419,1741839716.979177
0.24125,0.03425,0.02775,-0.00064075,-0.000122000005,-0.00148,1741839716.99375
0.24,0.034,0.0265,-0.00080875,-0.00016775,-0.0013580001,1741839717.008332
0.24025,0.034,0.027,-0.00148,-0.00045775,-0.0010375,1741839717.022959
0.24225,0.03275,0.02975,-0.00148,-0.00057975,-0.00099175,1741839717.037531
0.24225,0.03175,0.03025,-0.00102225,-0.00051875,-0.00093075,1741839717.052159
0.243,0.033,0.0335,-0.0008545,-0.000412,-0.00093075,1741839717.066744
0.24325,0.03425,0.03475,-0.00083925005,9.15e-05,-0.000885,1741839717.0813282
0.24175,0.03475,0.03,-0.0009765,0.00030525,-0.0008545,1741839717.096297
0.24075,0.034,0.02675,-0.00105275,0.00036625,-0.00090025004,1741839717.11041
0.24,0.0335,0.02475,-0.0013885,-3.0500001e-05,-0.00115975,1741839717.125033
0.241,0.03275,0.025,-0.00169375,-0.0003815,-0.001236,1741839717.139513
0.24225,0.0315,0.02725,-0.00143425,-0.00068675,-0.0013580001,1741839717.1541572
0.2435,0.029,0.031,-0.0012665,-0.0005645,-0.00131225,1741839717.168774
0.24375,0.029,0.03125,-0.0011445,-0.0003205,-0.001114,1741839717.1834261
0.24325,0.02975,0.02925,-0.00105275,-0.00013725001,-0.00102225,1741839717.1981592
0.24325,0.03075,0.0295,-0.00096125,-3.0500001e-05,-0.00099175,1741839717.212766
0.24425,0.032,0.03175,-0.00109875,-0.000122000005,-0.000946,1741839717.227455
0.2455,0.0315,0.03175,-0.00115975,-0.00024425,-0.001007,1741839717.242044
0.24475,0.02825,0.03,-0.00108325,-0.000183,-0.0010375,1741839717.2565482
0.2445,0.02725,0.03,-0.0013885,-0.00016775,-0.0008545,1741839717.271185
0.24425,0.02925,0.03025,-0.0012055,-0.00013725001,-0.00086975005,1741839717.2861938
0.2435,0.02975,0.0295,-0.00045775,1.5250001e-05,-0.001007,1741839717.300395
0.2435,0.0295,0.02925,-0.000534,4.575e-05,-0.00093075,1741839717.315969
0.2445,0.02925,0.02975,-0.000534,7.625e-05,-0.00074775,1741839717.329668
0.24575,0.0275,0.02975,-0.00016775,0.000183,-0.00071725,1741839717.344147
0.2455,0.02775,0.03,0.0002595,0.00027475,-0.00071725,1741839717.358523
0.2445,0.02925,0.03125,0.00033575002,0.00039675,-0.00068675,1741839717.3730612
0.24525,0.03125,0.03325,3.0500001e-05,0.000473,-0.00064075,1741839717.3874528
0.245,0.03025,0.03175,0.00019825,0.00054925,-0.000824,1741839717.4019608
0.24325,0.0275,0.0285,0.00035100002,0.00045775,-0.00083925005,1741839717.416471
0.2425,0.02625,0.02775,0.00045775,0.00027475,-0.00059500005,1741839717.4309702
0.24275,0.026,0.028,0.00051875,0.000229,-0.0005035,1741839717.446284
0.24225,0.0265,0.028,0.001007,0.00019825,-0.00064075,1741839717.459744
0.24125,0.02775,0.027,0.001175,0.00016775,-0.00070200005,1741839717.4742029
0.24225,0.0285,0.029,0.00102225,-4.575e-05,-0.00061025,1741839717.4887328
0.24325,0.03,0.031,0.0009765,0.0,-0.00062550005,1741839717.503124
0.243,0.02875,0.03025,0.00096125,9.15e-05,-0.00070200005,1741839717.517565
0.24275,0.0265,0.02975,0.000412,4.575e-05,-0.0004425,1741839717.532029
0.24325,0.02525,0.0285,1.5250001e-05,-1.5250001e-05,-0.0001525,1741839717.546387
0.24275,0.0265,0.0275,0.0003205,0.0,-0.00016775,1741839717.561053
0.24275,0.0295,0.0295,0.00071725,-4.575e-05,-0.000412,1741839717.575517
0.24375,0.0305,0.03275,0.000946,4.575e-05,-0.00090025004,1741839717.589932
0.24375,0.027,0.031,0.00083925005,0.00024425,-0.00105275,1741839717.604343
0.2435,0.02475,0.02875,0.0003205,0.00033575002,-0.0007935,1741839717.618861
0.2435,0.02475,0.028,-6.1000002e-05,0.00030525,-0.00051875,1741839717.633436
0.243,0.025,0.027,-0.00019825,0.00027475,-0.00035100002,1741839717.647955
0.2435,0.0255,0.028,-0.00010675,0.000183,-0.0003815,1741839717.66255
0.2445,0.026,0.0305,0.0,0.00013725001,-0.000473,1741839717.6770828
0.245,0.02575,0.031,-0.0001525,0.00029,-0.00051875,1741839717.691678
0.2455,0.023,0.0285,-0.0002595,0.0002595,-0.00045775,1741839717.7063758
0.245,0.023,0.027,0.00042725,0.00013725001,-0.00059500005,1741839717.720535
0.24425,0.02525,0.029,0.00068675,0.000122000005,-0.00067150005,1741839717.7362208
0.244,0.0265,0.03,0.0007935,0.0002135,-0.0008545,1741839717.7494678
0.2435,0.02475,0.027,0.0007325,0.0002135,-0.00086975005,1741839717.763892
0.244,0.02275,0.0265,0.00065625,0.0,-0.00070200005,1741839717.7791328
0.2435,0.02225,0.028,0.00068675,-6.1000002e-05,-0.0005645,1741839717.792821
0.2435,0.023,0.02925,0.00024425,-4.575e-05,-0.00019825,1741839717.807447
0.24425,0.02275,0.02875,7.625e-05,0.0,-0.000122000005,1741839717.821818
0.244,0.022,0.02575,0.0002135,3.0500001e-05,-0.0001525,1741839717.83642
0.244,0.022,0.0245,0.00065625,-0.00029,-0.0001525,1741839717.850762
0.24575,0.025,0.02875,0.00074775,-0.00051875,-0.000122000005,1741839717.866105
0.246,0.0265,0.03125,0.0007935,-0.0004425,-0.0002595,1741839717.879822
0.24525,0.02725,0.03125,0.00070200005,-0.0002135,-0.0002595,1741839717.894551
0.245,0.0265,0.029,0.000473,-4.575e-05,-0.00016775,1741839717.909121
0.243,0.0255,0.027,0.00035100002,-0.00013725001,-0.0001525,1741839717.923712
0.24325,0.025,0.028,0.00029,-0.00033575002,-0.00024425,1741839717.9382179
0.2435,0.02275,0.029,0.00045775,-0.00036625,-0.00030525,1741839717.952846
0.24425,0.022,0.03025,0.00054925,-0.00035100002,-0.00016775,1741839717.967465
0.2445,0.02275,0.03125,0.0007935,-0.00035100002,-0.000122000005,1741839717.9819698
0.2435,0.022,0.03025,0.001068,-0.00042725,-7.625e-05,1741839717.996505
0.24375,0.02225,0.029,0.001007,-0.00048825,3.0500001e-05,1741839718.010926
0.244,0.023,0.02825,0.00119025,-0.00065625,0.000122000005,1741839718.02548
0.2435,0.024,0.0305,0.0019685,-0.0012970001,0.00010675,1741839718.0398421
0.244,0.02425,0.033,0.002243,-0.00131225,-6.1000002e-05,1741839718.054396
0.2445,0.0235,0.0335,0.002243,-0.000763,-0.00042725,1741839718.068963
0.24425,0.02175,0.032,0.00216675,-0.00042725,-0.00051875,1741839718.083445
0.244,0.02225,0.032,0.00181575,0.00019825,-0.0003815,1741839718.097953
0.243,0.0235,0.03125,0.0015105,0.00029,-0.000229,1741839718.112394
0.243,0.02325,0.03025,0.00115975,4.575e-05,-7.625e-05,1741839718.126859
0.24275,0.024,0.0295,0.0015105,-1.5250001e-05,-0.0002135,1741839718.141449
0.24325,0.02475,0.0305,0.0021972498,-1.5250001e-05,-0.00062550005,1741839718.156438
0.24525,0.0235,0.0345,0.0021515,-4.575e-05,-0.00074775,1741839718.170736
0.2455,0.02225,0.0345,0.00187675,0.000183,-0.000763,1741839718.186021
0.24475,0.0225,0.03275,0.00169375,0.00039675,-0.00065625,1741839718.19963
0.24425,0.02325,0.032,0.00148,0.00054925,-0.00054925,1741839718.2141519
0.2435,0.0225,0.0295,0.001419,0.00054925,-0.00051875,1741839718.229325
0.243,0.02225,0.027,0.00175475,0.00045775,-0.00061025,1741839718.243129
0.2435,0.0235,0.0285,0.003006,0.0003205,-0.00102225,1741839718.257654
0.24575,0.0245,0.033,0.003769,0.0004425,-0.0013427499,1741839718.272052
0.24475,0.0235,0.03125,0.0058287503,0.00086975005,-0.00251775,1741839718.28657
0.24475,0.02025,0.0315,0.0065155,0.0007935,-0.0030365,1741839718.301027
0.245,0.0195,0.0335,0.00694275,0.00062550005,-0.0033722501,1741839718.3160498
0.24425,0.014,0.031,0.00694275,0.0007325,-0.00331125,1741839718.3301098
0.2445,0.0125,0.02925,0.0066374997,0.00086975005,-0.0028229998,1741839718.346386
0.24575,0.013,0.0315,0.0064545004,0.000824,-0.0025940002,1741839718.359021
0.24525,0.01275,0.0325,0.00637825,0.00077825,-0.002472,1741839718.373662
0.24375,0.01,0.03075,0.0058287503,0.000946,-0.00213625,1741839718.3880289
0.24475,0.00875,0.02975,0.0049285004,0.000946,-0.001709,1741839718.402648
0.245,0.00775,0.02825,0.00355525,0.00064075,-0.00071725,1741839718.4170618
0.2455,0.01,0.03025,0.00305175,0.000534,-0.00029,1741839718.4316921
0.24575,0.01175,0.03125,0.0028074998,0.00054925,-9.15e-05,1741839718.446315
0.246,0.01425,0.03,0.003006,0.00051875,-0.00019825,1741839718.4605398
0.24625,0.01525,0.0295,0.00402825,0.00033575002,-0.00057975,1741839718.475127
0.24525,0.01425,0.0285,0.00453175,0.00016775,-0.000824,1741839718.489557
0.24475,0.01325,0.02875,0.00384525,-4.575e-05,-0.00086975005,1741839718.504151
0.2455,0.01275,0.03075,0.0032347501,-1.5250001e-05,-0.0007325,1741839718.518739
0.24475,0.01325,0.03025,0.0033875,0.0002135,-0.0008545,1741839718.533225
0.2435,0.014,0.029,0.0034790002,0.00013725001,-0.0010375,1741839718.5476558
0.24475,0.01375,0.03175,0.0029907501,-6.1000002e-05,-0.0011445,1741839718.562146
0.2465,0.0135,0.0345,0.00239575,0.00013725001,-0.00157175,1741839718.576683
0.2455,0.01175,0.0325,0.00254825,0.00045775,-0.0018615,1741839718.591041
0.24525,0.01025,0.03075,0.00213625,0.00045775,-0.0018005001,1741839718.6059258
0.24475,0.0075,0.03,0.00187675,0.0003815,-0.0016632499,1741839718.620049
0.24475,0.0075,0.03,0.00149525,0.00029,-0.00149525,1741839718.634468
0.24475,0.00625,0.031,0.0012055,0.000122000005,-0.0013580001,1741839718.648857
0.24525,0.0065,0.03225,0.0011445,0.000229,-0.00131225,1741839718.6633751
0.2455,0.00625,0.0305,0.0018005001,0.00045775,-0.001587,1741839718.678991
0.24475,0.005,0.0285,0.003662,0.00039675,-0.0022125002,1741839718.692232
0.24425,0.00225,0.0275,0.0043182503,0.0001525,-0.0023497501,1741839718.706611
0.244,0.00275,0.02875,0.00469975,-9.15e-05,-0.002365,1741839718.72115
0.24375,0.00375,0.0295,0.00538625,-0.000763,-0.0023345,1741839718.736146
0.2435,0.00575,0.02875,0.0059815003,-0.0012970001,-0.002365,1741839718.750323
0.24325,0.0055,0.029,0.00747675,-0.0020905002,-0.00270075,1741839718.765985
0.24025,0.0025,0.0285,0.008133001,-0.002121,-0.0029907501,1741839718.7793002
0.23975,0.00025,0.029,0.0080872495,-0.0016632499,-0.00320425,1741839718.793965
0.24425,-0.0035,0.03125,0.0077667497,-0.00143425,-0.00302125,1741839718.80866
0.2455,-0.0045,0.0325,0.008072,-0.002243,-0.00238025,1741839718.823464
0.24325,-0.00525,0.0355,0.0081025,-0.0028074998,-0.0019685,1741839718.838212
0.2435,-0.00375,0.039,0.0074920002,-0.002472,-0.00125125,1741839718.852812
0.2465,-0.00175,0.03975,0.00830075,-0.00187675,-0.00149525,1741839718.86735
0.24675,-0.0025,0.03625,0.011734,-0.001236,-0.003296,1741839718.881973
0.24775,-0.005,0.03825,0.012146,-0.0009765,-0.00390625,1741839718.8969421
0.24875,-0.00775,0.0425,0.0104674995,-0.00010675,-0.0037537501,1741839718.911293
0.245,-0.013,0.0375,0.00852975,0.00059500005,-0.00328075,1741839718.9257898
0.24625,-0.016,0.0345,0.0061035,0.0012817499,-0.00254825,1741839718.940303
0.25075,-0.00775,0.03825,0.003128,0.0013885,-0.00083925005,1741839718.954848
0.2505,-0.002,0.044,0.00390625,0.00099175,-0.00074775,1741839718.9694269
0.24675,-0.0045,0.04025,0.0080567505,0.00112925,-0.00213625,1741839718.983933
0.24475,-0.011,0.029,0.00852975,0.0013275,-0.0024414998,1741839718.9985101
0.246,-0.0115,0.028,0.00720225,0.000946,-0.0020752498,1741839719.013067
0.2465,-0.0105,0.03275,0.0062712496,0.00051875,-0.0017395001,1741839719.027618
0.246,-0.013,0.03475,0.0050355,0.000534,-0.00119025,1741839719.042153
0.2465,-0.01675,0.0365,0.004303,0.00074775,-0.00070200005,1741839719.056747
0.24875,-0.01575,0.0385,0.004013,0.00119025,4.575e-05,1741839719.071245
0.248,-0.0155,0.03625,0.0052642496,0.0015105,3.0500001e-05,1741839719.086186
0.24625,-0.01475,0.032,0.008209251,0.002365,-0.0002595,1741839719.100078
0.2435,-0.016,0.02275,0.00868225,0.0023345,-0.0003205,1741839719.1159601
0.244,-0.0165,0.02425,0.008514499,0.001831,-0.0002595,1741839719.1294029
0.2455,-0.01725,0.0345,0.0076905,0.00033575002,0.0,1741839719.1436758
0.24525,-0.016,0.03575,0.0073242504,0.00035100002,0.000229,1741839719.1582038
0.244,-0.014,0.031,0.0079955,0.000946,0.0005645,1741839719.1727529
0.2435,-0.0155,0.02175,0.008712751,0.00070200005,0.00059500005,1741839719.187229
0.24375,-0.01575,0.022,0.008636501,9.15e-05,0.000763,1741839719.20166
0.243,-0.01875,0.0255,0.0080567505,0.0001525,0.001114,1741839719.2162602
0.244,-0.01575,0.02425,0.0063934997,0.001007,0.00184625,1741839719.230603
0.24625,-0.01175,0.0285,0.0060882503,0.00115975,0.00175475,1741839719.246329
0.2455,-0.00925,0.03025,0.0056915004,0.00102225,0.0011445,1741839719.259577
0.2445,-0.0065,0.03,0.00555425,0.00074775,0.00083925005,1741839719.274029
0.24475,-0.009,0.02725,0.006012,0.0003815,0.0005035,1741839719.288637
0.243,-0.0145,0.022,0.0081635,4.575e-05,-0.00062550005,1741839719.30311
0.243,-0.01575,0.022,0.008773751,0.000534,-0.0012665,1741839719.317661
0.24425,-0.0175,0.02125,0.008850001,0.0013427499,-0.0019685,1741839719.332138
0.24575,-0.02,0.02225,0.00842275,0.00090025004,-0.00193775,1741839719.346808
0.246,-0.01825,0.02675,0.0074920002,0.00027475,-0.0012970001,1741839719.361334
0.24575,-0.01725,0.03025,0.007843,0.00039675,-0.0010375,1741839719.3757792
0.24625,-0.01575,0.02925,0.009323,0.000412,-0.0008545,1741839719.390291
0.24775,-0.01975,0.02075,0.009734999,0.0002135,-0.00090025004,1741839719.404865
0.2465,-0.02225,0.01725,0.008148249,-0.00068675,-0.000946,1741839719.419405
0.24375,-0.02075,0.02175,0.0072175004,-0.00099175,-0.00090025004,1741839719.434001
0.2435,-0.019,0.02525,0.0070342496,-7.625e-05,-0.0010375,1741839719.448714
0.24575,-0.0195,0.02975,0.00723275,0.0005645,-0.00115975,1741839719.4632618
0.246,-0.01975,0.02825,0.0073395,0.000534,-0.001114,1741839719.479112
0.2435,-0.01875,0.02275,0.0075225,7.625e-05,-0.00102225,1741839719.492278
0.2445,-0.0195,0.02225,0.008026,-0.000183,-0.001068,1741839719.506902
0.24475,-0.02125,0.021,0.00862125,-7.625e-05,-0.001526,1741839719.521406
0.2445,-0.022,0.022,0.007782,3.0500001e-05,-0.00157175,1741839719.536569
0.2445,-0.022,0.02225,0.0058135,-0.00010675,-0.001526,1741839719.550554
0.24525,-0.02475,0.02425,0.0052642496,-0.0002135,-0.001526,1741839719.566398
0.2455,-0.02425,0.02675,0.0062255003,-9.15e-05,-0.00137325,1741839719.5797172
0.24225,-0.02125,0.022,0.008499251,-0.0002595,-0.0014495,1741839719.594315
0.24275,-0.0235,0.01875,0.01216125,-0.0005645,-0.0019685,1741839719.6087759
0.24525,-0.026,0.0245,0.011550999,-0.0003815,-0.00216675,1741839719.623434
0.2465,-0.02725,0.02575,0.00839225,-6.1000002e-05,-0.0019989999,1741839719.638171
0.24625,-0.0275,0.02325,0.0076142503,-0.00016775,-0.00201425,1741839719.652726
0.2455,-0.02675,0.024,0.008484,0.00030525,-0.00238025,1741839719.66731
0.24275,-0.0275,0.02625,0.00941475,0.0005035,-0.002472,1741839719.681865
0.242,-0.02825,0.027,0.01036075,0.00042725,-0.00228875,1741839719.6963148
0.24475,-0.0305,0.0215,0.012741,0.00039675,-0.0017852499,1741839719.7108638
0.24575,-0.03125,0.01875,0.01345825,0.00061025,-0.0019225,1741839719.7252831
0.246,-0.0325,0.0175,0.011673001,0.0012055,-0.0020905002,1741839719.7397141
0.24475,-0.036,0.018,0.009796251,0.00146475,-0.00184625,1741839719.754313
0.2445,-0.035,0.02025,0.00798025,0.0016175,-0.00096125,1741839719.76882
0.24425,-0.0335,0.01775,0.008788999,0.0012207499,-0.00090025004,1741839719.783322
0.24375,-0.034,0.016,0.00962825,0.000473,-0.0012817499,1741839719.797853
0.24175,-0.0345,0.02025,0.0088805,0.00062550005,-0.00112925,1741839719.812272
0.24225,-0.03475,0.0215,0.008727999,0.00096125,0.00010675,1741839719.826708
0.2455,-0.03525,0.0175,0.009903,0.00099175,0.00019825,1741839719.8413131
0.244,-0.03425,0.01475,0.01098625,0.0015565,-0.0002595,1741839719.855896
0.24475,-0.03475,0.00925,0.0102845,0.00181575,-0.00016775,1741839719.87044
0.24625,-0.0355,0.0085,0.008865249,0.0017852499,1.5250001e-05,1741839719.886019
0.24725,-0.03775,0.0085,0.0067445002,0.0008545,-0.00016775,1741839719.89948
0.24475,-0.04,0.01075,0.00640875,0.00068675,-0.00042725,1741839719.913984
0.2435,-0.0385,0.01275,0.00561525,0.00086975005,-0.00016775,1741839719.928542
0.24525,-0.03775,0.01225,0.0053252503,0.00065625,0.00010675,1741839719.942912
0.2455,-0.0375,0.01125,0.00488275,0.00033575002,0.00029,1741839719.9573681
0.24375,-0.03575,0.01025,0.0047302498,0.0002595,0.00030525,1741839719.971779
0.24275,-0.033,0.00975,0.0052185003,-0.0002135,0.00029,1741839719.9862669
0.243,-0.03275,0.0055,0.0060577504,-0.00035100002,0.000183,1741839720.000962
0.244,-0.0345,0.006,0.00668325,-0.000122000005,-0.00027475,1741839720.0160158
0.24475,-0.03675,0.01375,0.0059510004,0.000122000005,-0.000229,1741839720.030123
0.245,-0.036,0.017,0.0041810004,0.0004425,0.000534,1741839720.0463202
0.24525,-0.03225,0.01425,0.00413525,0.00030525,0.00057975,1741839720.0590909
0.2445,-0.03375,0.0105,0.0047455,0.000122000005,0.0003205,1741839720.073442
0.2435,-0.03575,0.00925,0.005539,0.00033575002,0.0001525,1741839720.0879161
0.24475,-0.034,0.0125,0.00570675,0.000534,0.00042725,1741839720.102344
0.243,-0.033,0.01,0.0079345,0.00033575002,0.00036625,1741839720.1167161
0.243,-0.03225,0.003,0.00897225,0.00033575002,0.00013725001,1741839720.131274
0.2435,-0.033,0.00275,0.0078735,0.00039675,-6.1000002e-05,1741839720.146004
0.24425,-0.0355,0.007,0.0059967497,0.00019825,0.00013725001,1741839720.160182
0.2445,-0.03625,0.008,0.00328075,-0.000183,0.00061025,1741839720.1748428
0.2465,-0.037,0.01075,0.0034790002,-0.0002135,0.00065625,1741839720.189374
0.24625,-0.0375,0.0085,0.006546,-0.00042725,-1.5250001e-05,1741839720.204009
0.2465,-0.03825,0.007,0.0077210004,-0.0005035,-0.00035100002,1741839720.2185972
0.24575,-0.0365,0.01075,0.00833125,-0.00051875,-0.00045775,1741839720.2331991
0.24425,-0.0295,0.01475,0.010498,-0.00068675,-0.00033575002,1741839720.2477849
0.2435,-0.03025,0.00975,0.0126495,-0.00090025004,-0.00059500005,1741839720.2623491
0.24225,-0.032,0.0045,0.0126495,-0.0003815,-0.0013580001,1741839720.277117
0.24175,-0.035,-0.002,0.0102845,1.5250001e-05,-0.0012970001,1741839720.291585
0.243,-0.03675,-0.00275,0.00535575,-0.00027475,-0.00068675,1741839720.3063831
0.244,-0.04025,0.00275,0.00325,-0.00048825,-0.00033575002,1741839720.321054
0.24525,-0.04,0.00875,0.000534,-0.00013725001,0.000534,1741839720.3359969
0.2475,-0.03775,0.01275,0.0010375,0.0,0.00071725,1741839720.3501
0.24575,-0.0365,0.00875,0.00381475,-0.0003815,0.0005035,1741839720.364523
0.24375,-0.0345,0.0045,0.0047607496,-0.00057975,0.0003205,1741839720.37902
0.244,-0.0345,0.00575,0.0056915004,-0.00074775,-0.00019825,1741839720.393615
0.24375,-0.0345,0.00725,0.0056304997,-0.00065625,-0.00036625,1741839720.408208
0.24425,-0.03625,0.0055,0.0042572496,-0.00033575002,-0.00042725,1741839720.422805
0.24575,-0.04,0.0045,0.0033570002,-0.000183,-0.00030525,1741839720.437441
0.2455,-0.041,0.00525,0.0026245,-3.0500001e-05,-7.625e-05,1741839720.452182
0.245,-0.0395,0.00525,0.001007,0.00019825,0.000473,1741839720.4667032
0.2445,-0.03775,0.0045,0.0005035,0.0001525,0.00057975,1741839720.481184
0.24375,-0.036,0.00375,0.0005645,-0.00013725001,0.00036625,1741839720.4962392
0.243,-0.03225,0.0045,0.00068675,-0.0003205,0.00024425,1741839720.51042
0.24275,-0.03175,0.00675,0.00231925,-0.0007325,9.15e-05,1741839720.5248902
0.244,-0.03625,0.00775,0.00340275,-0.0007325,-3.0500001e-05,1741839720.539615
0.2445,-0.0385,0.0075,0.0020752498,-0.00024425,0.0002595,1741839720.554236
