acc_x,acc_y,acc_z,gyro_x,gyro_y,gyro_z,timestamp
0.0045,-0.243,0.03225,0.00399775,0.0012970001,0.0031889998,1741836108.327134
0.00975,-0.2385,0.02875,0.00369275,0.0011445,0.0025787498,1741836108.341642
0.01125,-0.2385,0.0275,0.00381475,0.00036625,0.00157175,1741836108.355863
0.01225,-0.24425,0.02975,0.0037995,-1.5250001e-05,0.0012970001,1741836108.370531
0.01225,-0.24675,0.029,0.0037385002,0.00016775,0.001175,1741836108.384893
0.0115,-0.24625,0.0225,0.0033264998,0.0002595,0.00105275,1741836108.399544
0.01125,-0.24475,0.021,0.0023345,0.00016775,0.0007325,1741836108.4142091
0.01125,-0.244,0.0215,-0.00019825,-3.0500001e-05,-0.000183,1741836108.428421
0.01275,-0.244,0.02425,-0.0009155,-7.625e-05,-0.0005645,1741836108.4431381
0.013,-0.24475,0.02475,0.00061025,-0.00010675,-0.0012817499,1741836108.45782
0.01275,-0.2485,0.0205,0.00213625,7.625e-05,-0.0015565,1741836108.4723709
0.01175,-0.251,0.01675,0.00393675,0.0001525,-0.001648,1741836108.487036
0.01075,-0.257,0.01325,0.0036010002,-0.00013725001,-0.0016175,1741836108.501587
0.0105,-0.258,0.01375,0.0021819999,-0.00083925005,-0.0013427499,1741836108.516319
0.009,-0.25675,0.01675,0.00163275,-0.001114,-0.00099175,1741836108.531003
0.0085,-0.25525,0.0185,0.00064075,-0.0016175,-0.00035100002,1741836108.5456052
0.008,-0.2475,0.02025,0.00019825,-0.00175475,-0.00027475,1741836108.5602088
0.0075,-0.24375,0.02025,-0.000885,-0.0020905002,-0.0007935,1741836108.574941
0.007,-0.2415,0.01825,-0.001068,-0.002365,-0.0012665,1741836108.589587
0.00675,-0.24125,0.0155,0.00013725001,-0.0032347501,-0.0021515,1741836108.604466
0.00425,-0.24175,0.00825,0.00067150005,-0.00396725,-0.00238025,1741836108.6188211
0.00225,-0.2415,0.0045,-0.00102225,-0.0067597497,-0.00238025,1741836108.6344619
0.0035,-0.241,0.0,-0.0019225,-0.00852975,-0.0026854998,1741836108.648271
0.00275,-0.249,0.00875,-0.001831,-0.01019275,-0.00340275,1741836108.664269
0.00475,-0.3365,0.18925,-0.0021819999,-0.01216125,-0.00251775,1741836108.677734
-0.0115,-0.41575,0.44925,-0.00039675,-0.0085602505,0.00231925,1741836108.6925492
-0.20325,-0.42775,1.0,0.033081003,0.047057997,0.02946475,1741836108.7071428
-0.39125,-0.2325,0.955,0.06150825,0.10701,0.04403675,1741836108.721637
-0.579,-0.122,0.695,0.059951752,0.21057124,0.045166,1741836108.736233
-0.66475,-0.457,0.0585,0.0134735005,0.231079,0.044815,1741836108.750737
-0.61325,-0.4745,-0.19375,-0.03211975,0.22421275,0.06201175,1741836108.765526
-0.39575,-0.11125,-0.46475,-0.0081025,0.20617674,0.06631475,1741836108.780262
-0.26625,-0.0005,-0.57225,0.008026,0.1580505,0.051391497,1741836108.7949839
-0.14225,-0.03925,-0.669,-0.014938249,0.13049325,0.0373535,1741836108.809622
-0.13525,-0.12175,-0.6665,-0.035766497,0.0784455,0.0137635,1741836108.8245602
-0.075,-0.22575,-0.549,-0.0239715,0.0520325,0.00794975,1741836108.839137
-0.04175,-0.21875,-0.402,-0.008484,0.010086001,0.0093385,1741836108.8544981
0.0225,-0.17175,-0.1885,-0.01504525,0.0005035,0.01062,1741836108.8686342
0.06475,-0.1635,-0.16525,-0.02604675,-0.01289375,0.00785825,1741836108.884657
0.11075,-0.1675,-0.11625,-0.019744748,-0.022232,0.0048674997,1741836108.898179
0.09925,-0.185,-0.07925,-0.00596625,-0.03689575,-0.0020599999,1741836108.9141388
0.074,-0.25975,-0.035,-0.003769,-0.04068,-0.0043639997,1741836108.92785
0.06875,-0.29625,-0.026,0.006302,-0.0432435,-0.0031585,1741836108.944003
0.05925,-0.3165,-0.04875,0.01445,-0.0434875,-0.0004425,1741836108.957459
0.0565,-0.31075,-0.05275,0.0219115,-0.045654252,0.0047912505,1741836108.9720662
0.05625,-0.28125,-0.0345,0.018432502,-0.04550175,0.00691225,1741836108.986625
0.05925,-0.2645,-0.04525,0.008255,-0.04441825,0.009674,1741836109.001256
0.06325,-0.2345,-0.09825,0.0045625,-0.045898497,0.010147001,1741836109.0161018
0.06225,-0.221,-0.126,0.00149525,-0.049514752,0.009933501,1741836109.030457
0.05625,-0.21,-0.1415,-0.002243,-0.06358325,0.006836,1741836109.045253
0.034,-0.19975,-0.12125,-0.00163275,-0.071685754,0.0045625,1741836109.059948
0.02475,-0.19775,-0.101,0.004547,-0.08256525,0.00024425,1741836109.075098
0.0065,-0.1945,-0.06,0.0077515002,-0.08503725,-0.0019225,1741836109.08946
-0.0025,-0.19425,-0.03625,0.010498,-0.08668525,-0.0063934997,1741836109.1047869
-0.00775,-0.20625,0.01275,0.009002751,-0.085617,-0.0080872495,1741836109.118677
-0.00325,-0.2135,0.0245,0.0026245,-0.080657996,-0.009521499,1741836109.1347342
-0.0015,-0.2205,0.0345,0.00010675,-0.07872,-0.009292499,1741836109.1481469
-0.00475,-0.2165,0.04025,-0.00119025,-0.075805746,-0.0075835,1741836109.164397
-0.007,-0.20425,0.05575,-0.0007325,-0.073166,-0.00646975,1741836109.1780548
-0.0065,-0.20175,0.0625,0.00033575002,-0.064086996,-0.0048674997,1741836109.192754
-0.003,-0.21125,0.08525,0.00024425,-0.05947875,-0.0048217503,1741836109.207513
-0.0055,-0.21425,0.09975,-0.0019989999,-0.05432125,-0.00708,1741836109.222257
-0.0085,-0.22675,0.128,-0.0043182503,-0.051422,-0.008377,1741836109.237132
-0.0,-0.2405,0.1395,-0.00868225,-0.040924,-0.0091095,1741836109.2521229
0.0185,-0.2505,0.1565,-0.00976575,-0.034606997,-0.00842275,1741836109.267052
0.02125,-0.2455,0.159,-0.00697325,-0.02522275,-0.00555425,1741836109.2817001
0.0245,-0.243,0.15375,-0.00340275,-0.022186251,-0.004593,1741836109.2963278
0.02025,-0.24025,0.15175,0.0045012496,-0.0167695,-0.0047150003,1741836109.3109078
0.016,-0.2185,0.1565,0.0085755,-0.015213001,-0.0053709997,1741836109.325654
0.0175,-0.2165,0.17675,0.01579275,-0.0111085,-0.0046539996,1741836109.34033
0.03225,-0.2715,0.38825,0.017334,-0.0039215,-0.0024872501,1741836109.355083
0.0555,-0.32225,0.62975,0.02537525,0.03530875,0.008285499,1741836109.369339
-0.08925,-0.33075,1.0,0.03974925,0.0748595,0.0152435,1741836109.384676
-0.37375,-0.12925,1.0,0.0604095,0.1347045,0.020752002,1741836109.398514
-0.73625,0.04675,0.91575,0.06384275,0.25383002,0.017395,1741836109.4129322
-1.0,-0.3015,0.3015,0.02247625,0.27667224,0.014785751,1741836109.427408
-0.948,-0.474,0.01775,-0.032852247,0.268402,0.02244575,1741836109.442133
-0.77225,-0.4285,-0.50925,-0.0062407497,0.2563935,0.03067025,1741836109.45688
-0.6525,-0.37675,-0.7945,0.0271455,0.19950874,0.043716498,1741836109.471483
-0.395,-0.36775,-1.0,-0.0036315,0.15202326,0.0448455,1741836109.486125
-0.3115,-0.3445,-1.0,-0.045287997,0.05101025,0.040573,1741836109.50084
-0.217,-0.17025,-0.63375,-0.029998751,0.012909001,0.037048247,1741836109.5156338
-0.14875,-0.074,-0.45375,-0.00061025,-0.02822875,0.023940999,1741836109.530529
0.0165,0.00525,-0.2175,-0.0036162501,-0.039734002,0.015457249,1741836109.545203
0.0725,-0.007,-0.09,-0.014358499,-0.05229175,-1.5250001e-05,1741836109.559942
0.126,-0.08675,0.10725,-0.0137635,-0.052124,-0.0071105,1741836109.574764
0.1385,-0.16425,0.14,-0.0040435,-0.044143748,-0.0157165,1741836109.589333
0.1405,-0.303,0.0995,0.0019685,-0.038208,-0.01498425,1741836109.604318
0.13225,-0.32775,0.05725,0.015335,-0.0289155,-0.0074920002,1741836109.618725
0.101,-0.31025,-0.01625,0.019638,-0.02719125,-0.0030669998,1741836109.6343849
0.08475,-0.287,-0.0215,0.01501475,-0.02664175,0.00393675,1741836109.648028
0.061,-0.24875,-0.03025,0.0089569995,-0.0256805,0.00590525,1741836109.662611
0.058,-0.247,-0.03775,0.0022735,-0.0247345,0.0069274995,1741836109.677311
0.0595,-0.24275,-0.05375,-0.0051269997,-0.02417,0.0076599997,1741836109.691921
0.06,-0.2335,-0.0675,-0.005005,-0.025177,0.00770575,1741836109.706704
0.059,-0.22575,-0.08475,-0.00216675,-0.030777,0.0065917503,1741836109.721421
0.053,-0.22025,-0.108,-0.001007,-0.035278253,0.00541675,1741836109.736127
0.049,-0.22075,-0.09875,-0.001068,-0.044113252,0.0026245,1741836109.7509499
0.04425,-0.2185,-0.043,-0.0033722501,-0.046203498,0.0013885,1741836109.76561
0.04475,-0.22075,-0.01775,-0.00511175,-0.046051,-0.00051875,1741836109.780397
0.04825,-0.2405,-0.0115,-0.001526,-0.045715246,-0.00099175,1741836109.7952151
0.05275,-0.25075,-0.02475,0.0055847503,-0.04747,-0.00062550005,1741836109.809792
0.05375,-0.25275,-0.0475,0.0048065,-0.05068975,0.00035100002,1741836109.824897
0.0505,-0.241,-0.03075,-0.0019989999,-0.057189997,0.00228875,1741836109.8391411
0.04475,-0.21175,0.01675,-0.0048674997,-0.057876498,0.00238025,1741836109.85534
0.046,-0.19825,0.0405,-0.008773751,-0.05435175,0.00045775,1741836109.868504
0.0505,-0.1845,0.07825,-0.0088195,-0.050903253,-0.001007,1741836109.8831391
0.0545,-0.19175,0.082,-0.00354,-0.0439605,-0.0027160002,1741836109.89781
0.051,-0.223,0.04525,-0.00090025004,-0.04141225,-0.0024414998,1741836109.912671
0.0525,-0.2315,0.03575,-0.0020752498,-0.0368805,0.00039675,1741836109.927246
0.06125,-0.22425,0.04425,-0.00296025,-0.036499,0.00146475,1741836109.941836
0.0565,-0.219,0.0455,-0.00102225,-0.0397645,0.0007325,1741836109.956612
0.0445,-0.2115,0.05725,-0.00057975,-0.041061502,-0.00083925005,1741836109.971312
0.04125,-0.211,0.0625,-0.0027465,-0.03996275,-0.003128,1741836109.986197
0.03525,-0.21875,0.06575,-0.0042725,-0.03857425,-0.003128,1741836110.000923
0.03175,-0.22225,0.0695,-0.0055695,-0.03756725,-0.003006,1741836110.015705
0.02725,-0.2305,0.08375,-0.0051880004,-0.037048247,-0.00393675,1741836110.030313
0.0255,-0.2365,0.08925,-0.00267025,-0.0373535,-0.00491325,1741836110.045152
0.0235,-0.24725,0.09875,0.0041504996,-0.036728002,-0.0065765,1741836110.0597508
0.02375,-0.25325,0.10225,0.0065307496,-0.03515625,-0.0063934997,1741836110.074906
0.023,-0.259,0.106,0.0073242504,-0.031128,-0.0042267498,1741836110.089015
0.0205,-0.25775,0.1245,0.006256,-0.0288085,-0.0032195,1741836110.1045918
0.0145,-0.25125,0.1365,0.003128,-0.02153025,-0.00175475,1741836110.1184268
0.015,-0.2545,0.18375,0.0021819999,-0.01716625,-0.00057975,1741836110.1329448
0.029,-0.2825,0.26925,0.00251775,-0.00413525,0.0037537501,1741836110.147614
0.13475,-0.37425,0.71925,0.0048065,0.01171875,0.00918575,1741836110.162126
0.151,-0.3525,0.949,0.027679501,0.06839,0.0218505,1741836110.176563
-0.20925,-0.01825,1.0,0.051956248,0.10420225,0.01914975,1741836110.191126
-0.49975,0.12375,0.89475,0.08238225,0.20036325,0.00080875,1741836110.205587
-0.855,-0.121,0.34475,0.058471747,0.2365265,-0.00045775,1741836110.220327
-0.86875,-0.32325,0.136,-0.02796925,0.2500305,0.009796251,1741836110.2353501
-0.724,-0.37275,-0.32525,-0.03828425,0.2469635,0.0136565,1741836110.249726
-0.62925,-0.3625,-0.54125,0.00325,0.21334825,0.01956175,1741836110.265017
-0.42325,-0.41375,-0.96625,0.00770575,0.1802825,0.024536248,1741836110.279146
-0.31925,-0.411,-1.0,-0.008194,0.1371155,0.0298615,1741836110.2947478
-0.19625,-0.23675,-0.814,-0.024765,0.036239497,0.03259275,1741836110.308533
-0.158,-0.13075,-0.55925,-0.0115967505,-0.00511175,0.0279235,1741836110.32497
-0.02475,-0.048,-0.22775,-0.0011445,-0.041626,0.012313751,1741836110.338212
0.046,-0.071,-0.11825,-0.008209251,-0.047668498,0.0052795,1741836110.354765
0.09425,-0.10675,0.002,-0.015808,-0.05172725,-0.00411975,1741836110.367587
0.14325,-0.17925,0.19925,-0.01367175,-0.047943,-0.0075377496,1741836110.382338
0.15175,-0.22,0.23225,-0.0044250004,-0.028839001,-0.00976575,1741836110.397123
0.14225,-0.28375,0.12475,0.0025634998,-0.01747125,-0.00830075,1741836110.411718
0.12625,-0.3035,0.0415,0.013153,-0.00643925,-0.0022277501,1741836110.4263139
0.0875,-0.29325,-0.03725,0.01339725,-0.00637825,0.00125125,1741836110.44107
0.069,-0.2725,-0.035,0.0097045,-0.00741575,0.005783,1741836110.4556181
0.052,-0.23925,-0.04025,0.0062712496,-0.006836,0.00665275,1741836110.470216
0.0525,-0.23125,-0.0505,-0.00064075,-0.00764475,0.00640875,1741836110.4851909
0.05775,-0.2275,-0.0565,-0.0011445,-0.009140001,0.00579825,1741836110.499507
0.059,-0.2275,-0.05175,0.002365,-0.011795,0.0041044997,1741836110.514764
0.057,-0.228,-0.04725,0.00411975,-0.01257325,0.0030669998,1741836110.528707
0.056,-0.2315,-0.05775,0.0072480002,-0.014663749,0.00125125,1741836110.545368
0.0565,-0.2435,-0.0895,0.00941475,-0.016739,0.00077825,1741836110.557995
0.05725,-0.24625,-0.1025,0.013382,-0.023101749,0.00086975005,1741836110.572586
0.055,-0.242,-0.11725,0.012832751,-0.026840251,0.001175,1741836110.5872152
0.0545,-0.2365,-0.12525,0.009430001,-0.030777,0.001526,1741836110.6017668
0.0525,-0.23,-0.14175,-0.00317375,-0.041916,0.00228875,1741836110.616521
0.0485,-0.2175,-0.1315,-0.008606,-0.049194247,0.0026092501,1741836110.631246
0.0435,-0.21025,-0.1065,-0.008514499,-0.05992125,0.0023345,1741836110.6459389
0.03225,-0.199,-0.06575,-0.0061339997,-0.06307975,0.00137325,1741836110.6605802
0.02925,-0.19525,-0.04775,-0.0029755002,-0.066146754,-0.0016175,1741836110.6753862
0.03,-0.1965,-0.0085,-0.00193775,-0.06658925,-0.00302125,1741836110.690194
0.03525,-0.20325,0.01,-0.00065625,-0.064559996,-0.00494375,1741836110.705324
0.04425,-0.22275,0.0325,-0.0016175,-0.061966,-0.0052337497,1741836110.7195039
0.04575,-0.23125,0.03175,-0.0046234997,-0.057312,-0.0044555003,1741836110.7352252
0.045,-0.23975,0.0235,-0.004776,-0.056656,-0.0036010002,1741836110.749109
0.042,-0.23975,0.0225,-0.0026245,-0.05729675,-0.0021819999,1741836110.764865
0.03325,-0.231,0.032,-0.00157175,-0.057617247,-0.00216675,1741836110.778527
0.03,-0.22575,0.04175,-0.0010375,-0.05691525,-0.00364675,1741836110.795151
0.0225,-0.218,0.073,-0.00201425,-0.055191003,-0.0047302498,1741836110.8080242
0.0225,-0.219,0.08625,-0.0034790002,-0.04992675,-0.00640875,1741836110.8247402
0.0225,-0.234,0.09,-0.0028229998,-0.04756175,-0.0069274995,1741836110.837513
0.02075,-0.2425,0.0865,-0.00148,-0.04470825,-0.0070037497,1741836110.852111
0.01375,-0.2475,0.07875,-0.0013885,-0.04388425,-0.00640875,1741836110.8667982
0.00875,-0.246,0.07825,-0.00102225,-0.03878775,-0.004074,1741836110.881585
0.0175,-0.24975,0.09975,-0.00045775,-0.0347595,-0.00308225,1741836110.8962848
0.019,-0.25,0.1035,0.00334175,-0.03132625,-0.0034942501,1741836110.9110248
0.00775,-0.2445,0.10675,0.0053252503,-0.0309295,-0.004242,1741836110.925706
0.003,-0.243,0.11425,0.00640875,-0.0289765,-0.00466925,1741836110.94032
0.00675,-0.24225,0.13175,0.0070495,-0.01921075,-0.0042725,1741836110.954991
0.01625,-0.25125,0.14775,0.0076599997,-0.01440425,-0.0038757501,1741836110.969598
0.031,-0.2685,0.19625,0.008377,-0.0071409997,-0.00149525,1741836110.985122
0.066,-0.3075,0.40875,0.011535751,0.000183,0.0014037499,1741836110.998611
0.08475,-0.3415,0.5525,0.02790825,0.034652747,0.0122375,1741836111.014944
0.00475,-0.297,0.73075,0.035446253,0.0589905,0.017746,1741836111.027481
-0.14025,-0.194,0.742,0.04449475,0.12648,0.01893625,1741836111.041933
-0.44575,-0.08825,0.649,0.0372925,0.17372125,0.016418502,1741836111.056399
-0.54325,-0.14475,0.4845,0.0054475004,0.22755425,0.01187125,1741836111.071105
-0.633,-0.24775,0.1575,-0.00617975,0.22964475,0.011810251,1741836111.085713
-0.62575,-0.2475,-0.0515,-0.0085755,0.2215575,0.009079001,1741836111.100408
-0.4825,-0.30025,-0.46575,-0.0063934997,0.21165475,0.008377,1741836111.1151402
-0.382,-0.31525,-0.66075,-0.01121525,0.16107175,0.0105742505,1741836111.1298308
-0.224,-0.32675,-0.868,-0.020218,0.12065125,0.012832751,1741836111.145086
-0.1995,-0.3,-0.766,-0.0169525,0.04005425,0.01560975,1741836111.159325
-0.1805,-0.21675,-0.42625,-0.0061035,0.01368725,0.01446525,1741836111.174658
-0.135,-0.19625,-0.34175,-0.0017395001,-0.001648,0.01194775,1741836111.188941
-0.019,-0.19475,-0.26275,-0.007309,-0.01930225,0.00662225,1741836111.2050161
0.026,-0.2005,-0.184,-0.008484,-0.02848825,0.00463875,1741836111.2183921
0.0805,-0.21875,0.01675,-0.0079955,-0.04008475,0.00099175,1741836111.234189
0.09575,-0.23525,0.089,-0.00631725,-0.03964225,-0.0010375,1741836111.247651
0.10825,-0.25525,0.1245,0.00399775,-0.028183,-0.0031585,1741836111.262273
0.1075,-0.278,0.096,0.0099945,-0.0199585,-0.0020752498,1741836111.276885
0.09625,-0.2795,0.053,0.0153502505,-0.008255,0.0028229998,1741836111.291481
0.073,-0.2685,-0.0475,0.01525875,-0.0063477503,0.00546275,1741836111.305984
0.06225,-0.26325,-0.07475,0.015213001,-0.010727,0.0090485,1741836111.320572
0.041,-0.23325,-0.053,0.0151825,-0.013092,0.009719751,1741836111.335207
0.0355,-0.21875,-0.043,0.009933501,-0.01358025,0.00868225,1741836111.349844
0.04175,-0.208,-0.04125,0.00469975,-0.012985251,0.0075225,1741836111.364944
0.04825,-0.208,-0.04325,-0.00184625,-0.012267999,0.0049895,1741836111.379298
0.056,-0.218,-0.06225,-0.00146475,-0.0125275,0.00378425,1741836111.394469
0.05725,-0.227,-0.0775,0.0042115003,-0.0160065,0.00201425,1741836111.408675
0.05575,-0.2435,-0.1145,0.008346501,-0.019439751,0.001648,1741836111.4246058
0.0535,-0.24725,-0.12275,0.01402275,-0.02896125,0.001831,1741836111.437984
0.04525,-0.2375,-0.132,0.011245751,-0.03459175,0.0020752498,1741836111.4527192
0.0465,-0.22825,-0.10175,0.0035704998,-0.039917,0.00239575,1741836111.467408
0.05175,-0.20925,-0.07675,-0.00737,-0.04359425,0.003128,1741836111.4821172
0.0535,-0.206,-0.09125,-0.00720225,-0.04568475,0.002777,1741836111.4968278
0.04825,-0.21025,-0.10175,-0.0034790002,-0.054596,0.000824,1741836111.511468
0.041,-0.2165,-0.09125,-0.001953,-0.0594635,-0.00027475,1741836111.526217
0.0345,-0.2235,-0.0715,-0.0008545,-0.0664215,-0.0020752498,1741836111.541009
0.032,-0.23075,-0.01725,-0.000824,-0.0673675,-0.0025634998,1741836111.555935
0.035,-0.23125,0.0055,-0.0013427499,-0.063705504,-0.00193775,1741836111.570561
0.0455,-0.231,0.025,-0.0026854998,-0.060379002,-0.00148,1741836111.5852811
0.0495,-0.2275,0.02575,-0.00839225,-0.0539245,-0.00096125,1741836111.6000981
0.0545,-0.22125,0.02375,-0.010879501,-0.0517425,-0.00068675,1741836111.614996
0.05525,-0.221,0.02225,-0.010559,-0.05024725,-0.0001525,1741836111.629466
0.04975,-0.2195,0.02575,-0.0074920002,-0.050536998,-0.00027475,1741836111.645571
0.046,-0.22,0.03325,0.0012055,-0.051528998,-0.001648,1741836111.6588569
0.039,-0.22225,0.0455,0.00538625,-0.05172725,-0.0026092501,1741836111.674669
0.03425,-0.2275,0.04475,0.010666001,-0.0519715,-0.0038757501,1741836111.688121
0.0265,-0.23625,0.0485,0.011016751,-0.05229175,-0.00434875,1741836111.7026691
0.0175,-0.23475,0.05325,0.0086975,-0.050415,-0.00593575,1741836111.717267
0.01075,-0.23525,0.0825,0.0054932497,-0.044983003,-0.0062712496,1741836111.731956
0.02425,-0.23575,0.097,-0.00036625,-0.03082275,-0.0072175004,1741836111.746568
0.03775,-0.24125,0.0955,9.15e-05,-0.02757275,-0.0077667497,1741836111.761193
0.04025,-0.247,0.09425,0.002884,-0.02790825,-0.0079345,1741836111.775717
0.03775,-0.261,0.10175,0.0042115003,-0.02896125,-0.007553,1741836111.790315
0.0355,-0.2665,0.12075,0.0048217503,-0.02896125,-0.0066374997,1741836111.805019
0.04425,-0.28125,0.177,0.0037385002,-0.019439751,-0.0012970001,1741836111.819674
0.1725,-0.394,0.60975,0.00767525,-0.00561525,0.0045625,1741836111.835148
0.2275,-0.44175,0.9075,0.037201,0.0563965,0.0218505,1741836111.848851
-0.1195,-0.18625,1.0,0.06004325,0.098587,0.02796925,1741836111.864723
-0.43825,-0.02975,0.8515,0.066543505,0.19140625,0.02557375,1741836111.8779578
-0.74525,-0.19175,0.328,0.0234375,0.23370351,0.026550248,1741836111.894326
-0.7045,-0.324,0.0255,-0.06056225,0.240158,0.030609248,1741836111.907201
-0.59525,-0.32225,-0.24575,-0.0561675,0.22708125,0.026184,1741836111.92192
-0.55825,-0.33925,-0.39325,0.0008545,0.20455925,0.02560425,1741836111.936543
-0.4085,-0.3695,-0.89875,0.0027312501,0.1790465,0.030914249,1741836111.951133
-0.29575,-0.3545,-1.0,-0.03335575,0.08184825,0.0328065,1741836111.9658508
-0.17,-0.2505,-0.77175,-0.0299225,0.026245002,0.02896125,1741836111.980504
-0.139,-0.176,-0.4865,0.0044555003,-0.03863525,0.01890575,1741836111.995289
-0.04525,-0.05225,-0.15925,0.0055695,-0.0477905,0.013778751,1741836112.009907
0.02125,-0.0425,-0.07725,-0.01402275,-0.04916375,0.00331125,1741836112.0246358
0.11975,-0.1075,0.08825,-0.01956175,-0.0454865,-0.0017395001,1741836112.039304
0.14625,-0.15225,0.144,-0.01911925,-0.04068,-0.0062865,1741836112.055104
0.1545,-0.24375,0.17125,-0.0056304997,-0.028411752,-0.013336251,1741836112.06872
0.14625,-0.28875,0.129,0.0023039998,-0.019317752,-0.014267,1741836112.0850098
0.13225,-0.32425,0.064,0.01216125,-0.0050355,-0.0084379995,1741836112.09797
0.094,-0.334,-0.0785,0.01316825,-0.00411975,-0.0031127501,1741836112.114362
0.07975,-0.31675,-0.096,0.009521499,-0.0093995,0.00691225,1741836112.127192
0.06525,-0.267,-0.098,0.0072937496,-0.011734,0.009811499,1741836112.1418262
0.063,-0.246,-0.09475,0.00302125,-0.015625,0.010666001,1741836112.1565208
0.06675,-0.228,-0.0925,0.00267025,-0.0177765,0.009781,1741836112.171225
0.06975,-0.226,-0.101,0.006607,-0.024078252,0.0075072497,1741836112.185833
0.0685,-0.2195,-0.101,0.009262,-0.028061,0.0061950004,1741836112.2004962
0.06475,-0.218,-0.082,0.012146,-0.032852247,0.00343325,1741836112.215245
0.06175,-0.21575,-0.0425,0.01228325,-0.03312675,0.00213625,1741836112.229887
0.063,-0.219,-0.03625,0.0125275,-0.0328065,-0.0001525,1741836112.24541
0.07,-0.22825,-0.034,0.01086425,-0.03288275,-0.0007325,1741836112.259417
0.0735,-0.22475,-0.035,-0.002243,-0.0331725,-0.00027475,1741836112.27475
0.0795,-0.21925,-0.04625,-0.010849,-0.033996496,0.0002135,1741836112.288877
0.08,-0.217,-0.053,-0.01634225,-0.037475497,0.00071725,1741836112.304992
0.07025,-0.2075,-0.08025,-0.013198749,-0.041031,0.00029,1741836112.3184159
0.06475,-0.205,-0.0815,-0.0033570002,-0.050674498,-0.00169375,1741836112.3350148
0.05725,-0.211,-0.05625,0.00163275,-0.05473325,-0.0028687501,1741836112.3481421
0.0555,-0.217,-0.0345,0.00708,-0.05738825,-0.00444025,1741836112.362838
0.05325,-0.217,0.0215,0.0057525,-0.05564875,-0.0046539996,1741836112.377633
0.0555,-0.21075,0.03575,0.00245675,-0.052429248,-0.0046234997,1741836112.392156
0.06375,-0.212,0.044,-0.005005,-0.045944247,-0.00460825,1741836112.406782
0.06675,-0.2185,0.04475,-0.00744625,-0.04356375,-0.00469975,1741836112.4214761
0.068,-0.2275,0.04075,-0.00697325,-0.040420502,-0.00444025,1741836112.436207
0.06825,-0.243,0.0295,-0.005249,-0.040099997,-0.00384525,1741836112.451033
0.06525,-0.24225,0.02575,-0.0020752498,-0.0416565,-0.0025634998,1741836112.465816
0.0565,-0.23075,0.0225,-0.0003205,-0.0428925,-0.00231925,1741836112.480475
0.05175,-0.225,0.02525,0.00343325,-0.04544075,-0.0031585,1741836112.495234
0.04275,-0.21925,0.03925,0.0050202496,-0.046325747,-0.004074,1741836112.5097039
0.04,-0.22225,0.04625,0.00694275,-0.046936,-0.00585925,1741836112.5248342
0.033,-0.227,0.0595,0.0070342496,-0.04682925,-0.00668325,1741836112.539019
0.03125,-0.23025,0.06375,0.00640875,-0.046112,-0.008484,1741836112.55471
0.0275,-0.2385,0.07025,0.0061950004,-0.045730498,-0.00897225,1741836112.568304
0.02175,-0.244,0.06975,0.00505075,-0.0446015,-0.008606,1741836112.582977
0.016,-0.2485,0.07875,0.0033570002,-0.0420685,-0.00794975,1741836112.597728
0.0215,-0.24875,0.0925,0.001648,-0.03479,-0.0062712496,1741836112.612384
0.02125,-0.25325,0.1025,0.00317375,-0.032348752,-0.0060577504,1741836112.6270878
0.0195,-0.2605,0.112,0.006836,-0.03005975,-0.0053709997,1741836112.6417558
0.06575,-0.34125,0.28575,0.00801075,-0.0279235,-0.00296025,1741836112.65637
0.1455,-0.44775,0.584,0.018890498,0.00154125,0.01239025,1741836112.670837
0.08375,-0.4265,1.0,0.035400502,0.042099,0.025772,1741836112.685236
-0.176,-0.17,1.0,0.06251525,0.09974675,0.036743253,1741836112.6999161
-0.47475,0.06575,0.954,0.087127745,0.22132875,0.03459175,1741836112.7149131
-0.807,-0.14775,0.4635,0.041977,0.25207525,0.0321655,1741836112.7291222
-0.8315,-0.33075,0.22375,-0.07469175,0.25216675,0.03367625,1741836112.7448351
-0.78375,-0.36875,-0.244,-0.078933746,0.2500915,0.03019725,1741836112.7584908
-0.72675,-0.35575,-0.49925,-0.02442925,0.23117074,0.02250675,1741836112.775142
-0.47975,-0.447,-0.98325,-0.0218505,0.19895925,0.02186575,1741836112.788007
-0.33875,-0.478,-1.0,-0.0426025,0.08978275,0.022643998,1741836112.8028731
-0.218,-0.3785,-0.75775,-0.02389525,0.0289765,0.02285775,1741836112.817513
-0.1735,-0.26825,-0.44025,0.02076725,-0.038390998,0.02168275,1741836112.832431
-0.02425,-0.06625,-0.06325,0.0158845,-0.0433655,0.01994325,1741836112.84713
0.0655,-0.0275,-0.01225,-0.008148249,-0.037963748,0.010879501,1741836112.861839
0.17275,-0.06675,0.087,-0.01048275,-0.035705503,0.00399775,1741836112.8764951
0.18225,-0.123,0.1225,-0.00491325,-0.0260315,-0.0070647504,1741836112.8913121
0.156,-0.219,0.0785,-0.001709,-0.020034749,-0.00953675,1741836112.9061341
0.134,-0.253,0.042,0.0072785,-0.012329,-0.00991825,1741836112.920734
0.09975,-0.29975,-0.02075,0.0115815,-0.01020825,-0.00788875,1741836112.9355268
0.088,-0.30775,-0.04625,0.01042175,-0.0101165,-0.0001525,1741836112.950304
0.073,-0.285,-0.05125,0.0065155,-0.0106965,0.004013,1741836112.965356
0.06975,-0.26275,-0.05225,0.0037079998,-0.011078,0.00868225,1741836112.979669
0.06575,-0.23825,-0.089,0.0048217503,-0.01278675,0.00874325,1741836112.994802
0.0635,-0.238,-0.10875,0.00637825,-0.0210725,0.00744625,1741836113.009124
0.05775,-0.234,-0.1005,0.006256,-0.025711,0.0067445002,1741836113.024847
0.0545,-0.229,-0.0915,0.00564575,-0.029022248,0.0057220003,1741836113.038396
0.06,-0.22425,-0.0845,0.00086975005,-0.034118753,0.00320425,1741836113.053161
0.063,-0.2285,-0.084,-0.0011445,-0.0365905,0.0021972498,1741836113.0679622
0.06375,-0.2345,-0.09125,-0.002121,-0.04220575,0.00177,1741836113.084491
0.06075,-0.2325,-0.09575,-0.00416575,-0.045730498,0.0021819999,1741836113.0973508
0.05675,-0.22575,-0.084,-0.0094604995,-0.0542145,0.0024414998,1741836113.1120908
0.0495,-0.216,-0.04325,-0.010009751,-0.058303747,0.0020752498,1741836113.1268349
0.05,-0.21825,-0.01975,-0.0015105,-0.063263,0.00102225,1741836113.1415749
0.0525,-0.232,-0.00975,0.0056,-0.063736,0.00070200005,1741836113.156178
0.05125,-0.2305,-0.01125,0.0115967505,-0.06230175,0.00077825,1741836113.170957
0.04575,-0.20325,0.02825,0.00767525,-0.06027225,0.00070200005,1741836113.18561
0.04625,-0.188,0.047,-0.00413525,-0.054245,-0.00083925005,1741836113.2004962
0.05475,-0.19275,0.05,-0.006302,-0.052185003,-0.00216675,1741836113.2153862
0.0595,-0.2105,0.042,-0.0034790002,-0.05078125,-0.00352475,1741836113.230019
0.06,-0.238,0.02675,-0.0016785001,-0.050888002,-0.0032347501,1741836113.245583
0.058,-0.24125,0.029,0.00099175,-0.0521545,-0.00193775,1741836113.259454
0.0505,-0.24275,0.06175,0.00279225,-0.05252075,-0.001114,1741836113.2749388
0.047,-0.24025,0.08,0.0049590003,-0.04824825,0.00057975,1741836113.288717
0.03825,-0.22275,0.0775,0.0034637498,-0.04322825,0.00096125,1741836113.3054311
0.0375,-0.21475,0.07375,-0.0027465,-0.0328065,0.00080875,1741836113.318012
0.044,-0.211,0.07525,-0.0051880004,-0.03041075,0.00065625,1741836113.3326762
0.04625,-0.2165,0.07075,-0.00372325,-0.033035252,-0.00013725001,1741836113.3473752
0.04275,-0.23275,0.069,-0.0008545,-0.036193747,-0.001587,1741836113.362088
0.03725,-0.237,0.069,0.002411,-0.039032,-0.00355525,1741836113.376707
0.02725,-0.23925,0.07325,0.006836,-0.041336,-0.00621025,1741836113.391401
0.02725,-0.2395,0.0835,0.0068055,-0.04078675,-0.0060577504,1741836113.405972
0.0295,-0.24275,0.093,0.0050812503,-0.038345248,-0.00428775,1741836113.420592
0.0325,-0.253,0.103,0.0044707498,-0.0375365,-0.003662,1741836113.435273
0.03175,-0.25375,0.11025,0.0048674997,-0.03591925,-0.0030669998,1741836113.449992
0.024,-0.25025,0.1285,0.00561525,-0.03364575,-0.002655,1741836113.464968
0.019,-0.246,0.13975,0.0070037497,-0.0245515,-0.002121,1741836113.479202
0.0265,-0.2475,0.20025,0.007553,-0.0183715,-0.00148,1741836113.494998
0.05225,-0.26725,0.30675,0.01013175,-0.0003815,0.0036315,1741836113.508406
0.163,-0.33275,0.7155,0.014358499,0.0186615,0.0091705,1741836113.524571
0.181,-0.31575,0.87025,0.037460253,0.074935995,0.0185395,1741836113.537219
-0.157,-0.0675,0.87,0.05366525,0.103363,0.01655575,1741836113.551906
-0.42325,0.0015,0.77175,0.050674498,0.1854095,0.006302,1741836113.566525
-0.71825,-0.17025,0.4575,0.025238002,0.229889,0.0067597497,1741836113.581146
-0.7565,-0.2485,0.25,-0.02507025,0.25102225,0.0125275,1741836113.59571
-0.70525,-0.2765,-0.13925,-0.0326385,0.2429505,0.010024999,1741836113.610519
-0.6325,-0.31575,-0.32725,-0.024231002,0.2343445,0.0061950004,1741836113.625324
-0.4525,-0.38525,-0.82075,0.0023345,0.1992645,0.0072175004,1741836113.6399941
-0.3425,-0.405,-1.0,-0.0022125002,0.16192625,0.01272575,1741836113.6555011
-0.26025,-0.38825,-1.0,-0.02012625,0.05378725,0.0222625,1741836113.6694741
-0.19925,-0.25575,-0.5595,-0.012252751,0.006836,0.023925751,1741836113.685298
-0.168,-0.169,-0.3195,0.00228875,-0.03363025,0.018219,1741836113.698981
-0.03,-0.08175,-0.155,-0.00204475,-0.037063498,0.011749251,1741836113.714912
0.04475,-0.0935,-0.11925,-0.013275251,-0.041824248,-0.0012970001,1741836113.72865
0.111,-0.1745,0.021,-0.014846751,-0.044235248,-0.0063325,1741836113.745159
0.11525,-0.23175,0.07525,-0.009796251,-0.04188525,-0.011383001,1741836113.758146
0.11275,-0.31775,0.101,-0.006073,-0.03724675,-0.0100555,1741836113.774583
0.10275,-0.31825,0.105,-0.00030525,-0.02215575,-0.0029907501,1741836113.787443
0.084,-0.28675,0.05225,0.0033722501,-0.0139465,0.000229,1741836113.8020108
0.08275,-0.28775,-0.00875,0.010681249,-0.0072175004,0.005783,1741836113.8166301
0.0775,-0.282,-0.09275,0.01239025,-0.009811499,0.00852975,1741836113.831242
0.06675,-0.26025,-0.08475,0.01206975,-0.01782225,0.0115967505,1741836113.845824
0.0445,-0.2175,-0.04675,0.009933501,-0.019714251,0.0114135,1741836113.860408
0.04075,-0.20725,-0.038,0.0044555003,-0.020629998,0.00823975,1741836113.875028
0.04425,-0.204,-0.05425,0.00177,-0.02064525,0.0060577504,1741836113.8897321
0.05025,-0.21025,-0.0655,-0.00169375,-0.0229645,0.002411,1741836113.904876
0.058,-0.2285,-0.072,-0.00010675,-0.02528375,0.00112925,1741836113.9191658
0.05825,-0.236,-0.08425,0.00494375,-0.031723,0.00024425,1741836113.93446
0.051,-0.23975,-0.111,0.0056609996,-0.03660575,0.00059500005,1741836113.94861
0.046,-0.239,-0.10525,0.0056,-0.04243475,0.001068,1741836113.9649012
0.04075,-0.2325,-0.05775,0.0060272496,-0.052124,0.001175,1741836113.977935
0.0395,-0.22775,-0.03525,0.0055085,-0.053894002,0.000885,1741836113.992484
0.041,-0.22,-0.02075,-0.00146475,-0.05337525,4.575e-05,1741836114.007173
0.0485,-0.21125,-0.02075,-0.0061950004,-0.05355825,-0.00042725,1741836114.0220869
0.04975,-0.21675,-0.02225,-0.009155249,-0.0571595,-0.0005645,1741836114.036893
0.04575,-0.23725,0.0065,-0.0077515002,-0.05912775,-0.0002135,1741836114.051651
0.04875,-0.245,0.03225,-0.001953,-0.05929575,0.00064075,1741836114.0664299
0.059,-0.2505,0.05425,0.00267025,-0.057189997,0.0009765,1741836114.08112
0.06,-0.24825,0.049,0.0069274995,-0.051056,0.00175475,1741836114.095618
0.05575,-0.22975,0.05,0.0037537501,-0.04776,0.0019685,1741836114.110105
0.05225,-0.2185,0.053,-0.005249,-0.04258725,0.0012207499,1741836114.124911
0.054,-0.2185,0.045,-0.0065155,-0.041626,0.00036625,1741836114.139343
0.055,-0.22825,0.04125,-0.0031127501,-0.042923,-0.000763,1741836114.155075
0.05225,-0.238,0.04425,-0.0003815,-0.0440215,-0.0009765,1741836114.168907
0.047,-0.23625,0.04575,0.0042267498,-0.044693,-0.0012665,1741836114.185039
0.03025,-0.2235,0.04575,0.0048217503,-0.04270925,-0.0012055,1741836114.198223
0.034,-0.218,0.0585,0.00276175,-0.036728002,-0.001526,1741836114.212821
0.0295,-0.2165,0.06075,0.0027465,-0.036941502,-0.0027160002,1741836114.227607
0.02475,-0.22075,0.0585,0.0008545,-0.041214,-0.00567625,1741836114.242204
0.01875,-0.22775,0.07025,-0.00228875,-0.042511,-0.0062865,1741836114.257069
0.01675,-0.231,0.0795,-0.00555425,-0.0426025,-0.00611875,1741836114.271733
0.01125,-0.23425,0.09025,-0.008255,-0.040619,-0.005783,1741836114.286465
0.0075,-0.22775,0.0945,-0.0069274995,-0.039032,-0.0066985004,1741836114.301321
0.00075,-0.2135,0.12375,-0.00035100002,-0.03500375,-0.0091095,1741836114.3162858
0.01025,-0.214,0.16025,0.002884,-0.031540003,-0.010803251,1741836114.331004
0.04075,-0.24175,0.25325,0.0077972496,-0.016876249,-0.0125885,1741836114.345571
0.20475,-0.4075,0.77775,0.01339725,-0.00105275,-0.00852975,1741836114.3602638
0.20275,-0.4185,1.0,0.041992247,0.06546025,0.00889575,1741836114.3747299
-0.2195,-0.139,0.9015,0.0614165,0.112655744,0.0143737495,1741836114.389247
-0.47575,-0.039,0.7105,0.05606075,0.19497675,0.013031,1741836114.404819
-0.7075,-0.2255,0.22925,0.017517,0.22212225,0.013931249,1741836114.4183722
-0.6565,-0.34225,0.0515,-0.043258753,0.2313995,0.018890498,1741836114.434309
-0.56275,-0.3035,-0.17625,-0.02835075,0.22514349,0.01838675,1741836114.447857
-0.516,-0.28575,-0.35025,0.01655575,0.20393375,0.02168275,1741836114.462469
-0.35225,-0.34125,-0.77725,0.00416575,0.1785735,0.026733499,1741836114.4771671
-0.256,-0.33475,-0.91875,-0.039779752,0.094467245,0.03161625,1741836114.4919062
-0.152,-0.22275,-0.77675,-0.036499,0.04714975,0.0296325,1741836114.506635
-0.13575,-0.14475,-0.547,0.00308225,-0.0208435,0.01808175,1741836114.521276
-0.0775,-0.05775,-0.23075,0.0112,-0.0364685,0.010391249,1741836114.535948
-0.026,-0.071,-0.139,-0.00358575,-0.04830925,-0.0021972498,1741836114.551109
0.07075,-0.14675,0.00225,-0.01092525,-0.048462003,-0.00567625,1741836114.565804
0.09525,-0.17475,0.052,-0.009384249,-0.048233002,-0.011535751,1741836114.580512
0.114,-0.24025,0.15175,-0.00276175,-0.04629525,-0.014648501,1741836114.5952
0.12025,-0.28225,0.16775,0.00469975,-0.04025275,-0.016296498,1741836114.6098518
0.11375,-0.3305,0.10675,0.012924249,-0.022064252,-0.01222225,1741836114.624732
0.1,-0.32925,0.06175,0.01210025,-0.0149535,-0.00770575,1741836114.6390631
0.086,-0.31775,0.01975,0.0073395,-0.008133001,0.00059500005,1741836114.655023
0.06875,-0.2915,-0.04425,0.00668325,-0.0074004997,0.00334175,1741836114.6683211
0.0655,-0.28,-0.067,0.0059510004,-0.009369001,0.0065155,1741836114.683011
0.059,-0.254,-0.07475,0.00428775,-0.012054499,0.0071105,1741836114.697613
0.0565,-0.243,-0.06575,0.00251775,-0.017212,0.0064239996,1741836114.712188
0.05975,-0.24325,-0.068,0.0033722501,-0.019104,0.0055847503,1741836114.726922
0.06125,-0.252,-0.077,0.00631725,-0.02418525,0.0046845004,1741836114.741537
0.05725,-0.25275,-0.07675,0.00694275,-0.0275115,0.0049742498,1741836114.756205
0.05325,-0.238,-0.07525,0.00697325,-0.034484748,0.0045777503,1741836114.7709131
0.05025,-0.23275,-0.0165,0.00672925,-0.0361785,0.00354,1741836114.785595
0.05725,-0.2345,-0.00725,0.0019989999,-0.032897998,0.0023039998,1741836114.800216
0.064,-0.227,-0.05125,-0.00083925005,-0.0335235,0.0020752498,1741836114.815084
0.06325,-0.229,-0.0645,-0.00242625,-0.04090875,0.001831,1741836114.829636
0.055,-0.23375,-0.04825,-0.0022125002,-0.044433497,0.00204475,1741836114.844907
0.0485,-0.2275,-0.03825,-0.0042267498,-0.04891975,0.0017395001,1741836114.8589811
0.048,-0.215,-0.01225,-0.0048979996,-0.050109748,0.0013275,1741836114.8748329
0.05125,-0.21925,-0.008,-0.00308225,-0.050674498,0.00093075,1741836114.888387
0.05275,-0.23775,0.003,0.0027465,-0.051880002,0.00045775,1741836114.902899
0.052,-0.239,0.01425,0.00317375,-0.052185003,0.000534,1741836114.917394
0.051,-0.23725,0.0235,7.625e-05,-0.05081175,0.00115975,1741836114.931967
0.042,-0.2245,0.039,-0.00355525,-0.0489655,0.0018005001,1741836114.9465668
0.0395,-0.21025,0.059,-0.0138855,-0.03837575,0.0041044997,1741836114.9612632
0.05725,-0.1995,0.08,-0.014328,-0.031692497,0.004593,1741836114.975745
0.0635,-0.20875,0.06025,-0.0091705,-0.027298,0.0036162501,1741836114.99045
0.06475,-0.22825,0.043,-0.0073242504,-0.0300445,0.00263975,1741836115.005729
0.05725,-0.22825,0.04225,-0.00283825,-0.0396575,0.00068675,1741836115.01971
0.04125,-0.214,0.0455,-0.00029,-0.04385375,0.000229,1741836115.0352461
0.03275,-0.2105,0.04625,0.003296,-0.0484315,0.00051875,1741836115.048963
0.029,-0.212,0.05175,0.0038299998,-0.04971325,0.00042725,1741836115.063512
0.0255,-0.21175,0.05575,0.00372325,-0.050063998,-0.0018615,1741836115.078076
0.0135,-0.208,0.0765,0.00354,-0.049316503,-0.0031127501,1741836115.092588
0.0065,-0.20575,0.09025,0.00520325,-0.047012247,-0.0050965,1741836115.1072042
0.00075,-0.20975,0.1155,0.0070342496,-0.045166,-0.0058135,1741836115.1217742
0.00275,-0.2165,0.127,0.00891125,-0.0429535,-0.006668,1741836115.1364539
0.00675,-0.22225,0.1385,0.010162249,-0.0391235,-0.0085602505,1741836115.151077
0.015,-0.23075,0.16875,0.008712751,-0.036758497,-0.0088805,1741836115.166924
0.02725,-0.24575,0.20175,0.0052642496,-0.02793875,-0.0079955,1741836115.180238
0.08875,-0.31225,0.328,0.00621025,-0.020355249,-0.006546,1741836115.195773
0.1115,-0.3315,0.39,0.01605225,0.0020295,-0.00071725,1741836115.20945
0.108,-0.328,0.5155,0.024765,0.017120251,0.00393675,1741836115.224577
0.08075,-0.3015,0.58425,0.04493725,0.060608003,0.013031,1741836115.238454
-0.06,-0.194,0.697,0.05688475,0.091507,0.013702501,1741836115.2529511
-0.2145,-0.133,0.6695,0.071884245,0.15794376,0.01440425,1741836115.267575
-0.59125,-0.08375,0.36425,0.058776747,0.18371575,0.01829525,1741836115.282259
-0.6905,-0.1395,0.16925,-0.008712751,0.22116075,0.02693175,1741836115.296819
-0.622,-0.26425,-0.1535,-0.03521725,0.22929375,0.026840251,1741836115.311595
-0.52825,-0.30125,-0.304,-0.03019725,0.20370474,0.019775499,1741836115.3262742
-0.3395,-0.367,-0.594,-0.02462775,0.18403625,0.0189515,1741836115.341006
-0.245,-0.38,-0.7525,-0.035614,0.15994275,0.0200805,1741836115.355648
-0.121,-0.34325,-0.77575,-0.07279975,0.08335875,0.019333,1741836115.3703418
-0.10525,-0.3005,-0.60175,-0.06451425,0.0396575,0.01631175,1741836115.3852642
-0.06525,-0.19425,-0.253,-0.01095575,-0.01651,0.008941749,1741836115.4000902
-0.02,-0.17475,-0.163,-0.001648,-0.027740499,0.005844,1741836115.4148722
0.025,-0.18025,-0.089,-0.00962825,-0.035827752,0.00146475,1741836115.429725
0.07475,-0.2135,0.063,-0.00968925,-0.035324,-0.00035100002,1741836115.4451919
0.08975,-0.23775,0.1225,-0.00399775,-0.027771,-0.0029755002,1741836115.459105
0.10725,-0.28825,0.15575,0.000412,-0.021331752,-0.00308225,1741836115.474605
0.103,-0.302,0.1245,0.012329,-0.0071409997,-0.00019825,1741836115.488259
0.08,-0.3055,0.03575,0.01504525,-0.00251775,0.0025634998,1741836115.502796
0.06875,-0.29525,0.00325,0.0128785,-0.0003815,0.008727999,1741836115.5173051
0.05425,-0.2595,-0.0365,0.011550999,-0.00137325,0.010940501,1741836115.53199
0.05175,-0.23675,-0.038,0.009643501,-0.0042115003,0.0119934995,1741836115.546565
0.054,-0.201,-0.02125,0.00845325,-0.0052185003,0.010757499,1741836115.561165
0.058,-0.19925,-0.0175,0.0066985004,-0.006836,0.006607,1741836115.5757911
0.0625,-0.2175,-0.02725,0.0066374997,-0.0075225,0.0047607496,1741836115.5905778
0.06175,-0.2265,-0.03775,0.006546,-0.009521499,0.0027312501,1741836115.605244
0.05775,-0.24225,-0.0545,0.0070342496,-0.01150525,0.00239575,1741836115.619801
0.056,-0.24875,-0.057,0.00953675,-0.01586925,0.0026245,1741836115.635006
0.0535,-0.261,-0.04775,0.009445249,-0.01708975,0.00325,1741836115.649004
0.054,-0.26075,-0.04275,0.0075682504,-0.01756275,0.0042267498,1741836115.6651058
0.0565,-0.25525,-0.04025,0.0040587503,-0.018875,0.0060577504,1741836115.6781929
0.066,-0.24175,-0.0345,0.00453175,-0.019989,0.0065002497,1741836115.692798
0.06875,-0.23875,-0.03725,0.00668325,-0.02200325,0.0068969997,1741836115.707454
0.0665,-0.227,-0.02825,0.0050812503,-0.022338752,0.007187,1741836115.722054
0.064,-0.2195,-0.0305,-0.0043182503,-0.02278125,0.0071105,1741836115.73679
0.06525,-0.22475,-0.03675,-0.0085755,-0.024231002,0.0068055,1741836115.751464
0.068,-0.23075,-0.03925,-0.0106965,-0.027481,0.0068207504,1741836115.7662988
0.072,-0.2375,-0.04525,-0.0089875,-0.029174749,0.0070342496,1741836115.7809658
0.0725,-0.23875,-0.0475,-0.00437925,-0.0333405,0.00747675,1741836115.795707
0.07275,-0.24375,-0.05775,-0.00245675,-0.0360565,0.0078735,1741836115.8103921
0.0705,-0.2445,-0.05775,0.0007325,-0.0436095,0.00918575,1741836115.826273
0.05975,-0.2295,-0.02925,0.00279225,-0.047378503,0.009430001,1741836115.839533
0.0525,-0.2165,-0.0085,0.00505075,-0.051178,0.00817875,1741836115.8551822
0.04625,-0.19625,-0.0115,0.0025025,-0.05210875,0.00720225,1741836115.868873
0.05,-0.20175,0.0055,-0.0063934997,-0.056015,0.00596625,1741836115.8847208
0.057,-0.22475,0.045,-0.005066,-0.054580748,0.00621025,1741836115.8983092
0.052,-0.2305,0.025,0.0057677496,-0.05239875,0.0079345,1741836115.914442
0.044,-0.21975,-0.005,0.00889575,-0.053009,0.0089875,1741836115.927598
0.04425,-0.21025,-0.02075,0.01062,-0.0566405,0.008941749,1741836115.942209
0.01425,-0.20075,0.01825,0.015335,-0.07203675,0.00453175,1741836115.9566982
0.001,-0.18875,0.04225,0.014923001,-0.0746155,0.0017852499,1741836115.971162
-0.00725,-0.18175,0.0565,0.008773751,-0.07144175,-0.0029907501,1741836115.985856
-0.0265,-0.188,0.06075,0.0062712496,-0.069641,-0.0046234997,1741836116.000643
-0.02725,-0.1995,0.076,0.0025634998,-0.06523125,-0.00646975,1741836116.015435
-0.012,-0.23075,0.129,0.000412,-0.062912,-0.0069885002,1741836116.0302851
-0.001,-0.24475,0.159,-0.0020599999,-0.0573425,-0.0058135,1741836116.0450869
0.0445,-0.26475,0.2535,-0.00251775,-0.05274975,-0.00466925,1741836116.0598881
0.0905,-0.28425,0.379,-0.0026092501,-0.034546003,0.0002595,1741836116.0745442
0.221,-0.29275,0.758,-0.00010675,-0.01664725,0.0046845004,1741836116.089203
0.20575,-0.2375,0.8975,0.02262875,0.04190075,0.006836,1741836116.104764
-0.07375,-0.02925,0.89375,0.04135125,0.08285525,-0.0002595,1741836116.11837
-0.26,0.052,0.798,0.06387325,0.16976926,-0.0230255,1741836116.133091
-0.7085,-0.10525,0.55,0.05302425,0.201004,-0.025543248,1741836116.147831
-0.8675,-0.242,0.36325,-0.014282251,0.250824,-0.009079001,1741836116.1625862
-0.795,-0.37725,-0.11825,-0.039367747,0.25935376,-0.0018005001,1741836116.1773472
-0.664,-0.40075,-0.32125,-0.027526751,0.2325745,0.0033264998,1741836116.1921432
-0.42725,-0.4445,-0.70075,-0.01501475,0.20687875,0.00697325,1741836116.206998
-0.3175,-0.46025,-0.87025,-0.0231475,0.13244624,0.017395,1741836116.221802
-0.18275,-0.3585,-0.846,-0.024002,0.082550004,0.0205535,1741836116.2364538
-0.15275,-0.27475,-0.63175,0.0031889998,-0.00033575002,0.018432502,1741836116.251283
-0.0795,-0.15125,-0.21125,0.011886501,-0.01979075,0.014846751,1741836116.265982
-0.02425,-0.1255,-0.11275,0.011078,-0.027099501,0.010788,1741836116.2807128
0.08375,-0.13375,-0.0475,0.0002595,-0.0276185,0.00270075,1741836116.2954571
0.11075,-0.161,-0.002,-0.0017395001,-0.02835075,-0.00093075,1741836116.310208
0.121,-0.242,0.084,0.0037995,-0.02589425,-0.0066374997,1741836116.3251169
0.1125,-0.27525,0.07925,0.0089875,-0.02101125,-0.0079345,1741836116.339552
0.09975,-0.2965,0.045,0.0156555,-0.012542751,-0.00671375,1741836116.354568
0.07525,-0.314,-0.04675,0.016128499,-0.011886501,-0.0045012496,1741836116.368911
0.06575,-0.317,-0.07925,0.012542751,-0.01608275,0.00213625,1741836116.385088
0.06,-0.30675,-0.091,0.009369001,-0.018585252,0.0061645,1741836116.398209
0.06,-0.2795,-0.08375,0.00416575,-0.022521999,0.01216125,1741836116.412826
0.05325,-0.22725,-0.0795,0.00384525,-0.025314251,0.0128632495,1741836116.42749
0.04675,-0.21525,-0.07,0.0057372497,-0.0301665,0.0099945,1741836116.44209
0.052,-0.2095,-0.0485,0.006302,-0.031356752,0.0079345,1741836116.456804
0.0565,-0.21475,-0.055,0.0061339997,-0.03427125,0.0043639997,1741836116.471565
0.059,-0.23,-0.1075,0.006546,-0.038757253,0.0029449998,1741836116.486177
0.0535,-0.2335,-0.06275,0.00723275,-0.0448455,0.0012055,1741836116.5007832
0.051,-0.22875,0.01225,0.0050355,-0.0416565,0.00083925005,1741836116.515393
0.0575,-0.22825,0.0115,-0.00131225,-0.03572075,0.0007935,1741836116.530113
0.07325,-0.23475,0.0045,-0.00154125,-0.0351105,0.001068,1741836116.5452821
0.07925,-0.23975,0.0005,0.00411975,-0.034668,0.00225825,1741836116.559359
0.082,-0.23675,-0.02525,0.00621025,-0.03459175,0.0031585,1741836116.574826
0.08,-0.226,-0.0305,0.006546,-0.035614,0.004074,1741836116.5885272
0.0765,-0.208,-0.01025,0.0061645,-0.039169252,0.0040435,1741836116.605029
0.076,-0.2065,-0.0005,0.0061950004,-0.04005425,0.00279225,1741836116.617835
0.07525,-0.2095,-0.0025,0.00369275,-0.041092,0.00016775,1741836116.632368
0.07775,-0.222,0.01275,0.0004425,-0.04185475,-0.00045775,1741836116.647098
0.0805,-0.2285,0.026,-0.00216675,-0.03907775,0.00010675,1741836116.6615622
0.07675,-0.227,-0.0045,-0.0012970001,-0.038513247,0.000534,1741836116.676262
0.0735,-0.22575,-0.01925,0.00027475,-0.044281,0.0007325,1741836116.690901
0.0635,-0.22675,-0.02225,0.0017852499,-0.048019502,0.00036625,1741836116.705573
0.056,-0.226,-0.02125,0.00621025,-0.05416875,-0.001175,1741836116.720457
0.0445,-0.2345,-0.00375,0.0079345,-0.0570525,-0.00175475,1741836116.7353358
0.04025,-0.24175,0.009,0.01065075,-0.061279252,-0.0016632499,1741836116.749752
0.03125,-0.246,0.01125,0.0106355,-0.06274425,-0.00125125,1741836116.765027
0.02475,-0.2405,0.014,0.0080567505,-0.063202,-0.000824,1741836116.7791429
0.00575,-0.22125,0.02125,0.0063325,-0.062759496,-0.0011445,1741836116.794471
-0.008,-0.20925,0.02675,0.00708,-0.0659485,-0.0041810004,1741836116.8086872
-0.025,-0.2125,0.04675,0.009613,-0.068344004,-0.00590525,1741836116.8246138
-0.02225,-0.22575,0.0725,0.014389,-0.06967175,-0.008361749,1741836116.838237
0.01175,-0.27425,0.17925,0.016037,-0.06791675,-0.00845325,1741836116.853054
0.05925,-0.314,0.29225,0.014724749,-0.055069,-0.0037537501,1741836116.867627
0.178,-0.4425,0.7565,0.01367175,-0.04005425,0.00254825,1741836116.8821828
0.165,-0.4455,0.97675,0.0142365,-0.01307675,0.01210025,1741836116.896668
0.05375,-0.3605,1.0,0.02873225,0.084381,0.02857975,1741836116.911129
-0.339,-0.063,0.89625,0.036987253,0.14288326,0.0267945,1741836116.9257028
-0.5735,0.015,0.76575,0.02168275,0.239151,0.0128175,1741836116.940171
-0.88625,-0.19925,0.331,-0.00108325,0.26019275,0.00830075,1741836116.955224
-0.89975,-0.362,0.10375,-0.042785753,0.2634125,0.0114135,1741836116.969418
-0.783,-0.43825,-0.322,-0.040268,0.25868225,0.014648501,1741836116.9842718
-0.673,-0.46425,-0.55575,-0.028122,0.22294624,0.022613501,1741836116.998857
-0.398,-0.52975,-0.9985,-0.03707875,0.18721001,0.029296748,1741836117.014915
-0.29325,-0.46025,-1.0,-0.032547,0.07994075,0.04129025,1741836117.028425
-0.22125,-0.187,-0.77575,-0.012634249,0.02105725,0.040893503,1741836117.04495
-0.19475,-0.07225,-0.48925,0.005539,-0.044326752,0.026092501,1741836117.058133
-0.07875,0.0135,-0.1245,0.0007325,-0.051025502,0.015854,1741836117.07455
-0.0045,-0.006,-0.04425,-0.008667,-0.04628,-0.0020599999,1741836117.0877728
0.109,-0.10525,0.08075,-0.0091705,-0.04252625,-0.0084379995,1741836117.102418
0.132,-0.165,0.1355,-0.00712575,-0.032486,-0.015915,1741836117.117085
0.13275,-0.26275,0.16225,-0.004303,-0.02449025,-0.01725775,1741836117.1318982
0.12375,-0.296,0.11225,0.0067597497,-0.008941749,-0.015518251,1741836117.146574
0.0985,-0.3335,-0.00575,0.01062,-0.00494375,-0.012420749,1741836117.161258
0.08775,-0.3405,-0.03875,0.00842275,-0.0033722501,-0.00289925,1741836117.175914
0.071,-0.31075,-0.06,0.00541675,-0.004013,0.00201425,1741836117.190521
0.067,-0.28625,-0.06625,0.00372325,-0.0049742498,0.00579825,1741836117.2053068
0.06325,-0.2445,-0.06725,0.0024414998,-0.0076142503,0.0090485,1741836117.21979
0.06375,-0.233,-0.06675,0.0023497501,-0.009262,0.0089569995,1741836117.234943
0.0635,-0.2285,-0.06925,0.00453175,-0.0125885,0.0065917503,1741836117.2490702
0.06075,-0.24225,-0.08425,0.00587475,-0.014618,0.005066,1741836117.2648609
0.05825,-0.251,-0.0985,0.006073,-0.02015675,0.00372325,1741836117.278325
0.0535,-0.26025,-0.11425,0.0056915004,-0.024063,0.0039825,1741836117.293071
0.05,-0.25775,-0.1125,0.0060272496,-0.032348752,0.00517275,1741836117.30778
0.044,-0.244,-0.1185,0.0061645,-0.03627025,0.00570675,1741836117.3224971
0.042,-0.23925,-0.1205,0.0048979996,-0.045287997,0.006256,1741836117.337239
0.04275,-0.23025,-0.10475,0.003952,-0.0499725,0.0063477503,1741836117.351914
0.04425,-0.224,-0.095,0.0030669998,-0.05897525,0.0061339997,1741836117.366561
0.04275,-0.20975,-0.07775,0.002777,-0.0635375,0.005783,1741836117.3811781
0.03875,-0.20475,-0.0645,0.0026092501,-0.07238775,0.00460825,1741836117.395803
0.033,-0.20175,-0.03025,0.00372325,-0.075821,0.0034637498,1741836117.4103758
0.02975,-0.204,-0.01075,0.00738525,-0.07925425,0.00036625,1741836117.4249868
0.02525,-0.21625,0.0275,0.00862125,-0.079208255,-0.000885,1741836117.439639
0.02725,-0.22275,0.04475,0.0079955,-0.076004,-0.001892,1741836117.45523
0.0355,-0.2305,0.08,0.00646975,-0.0729675,-0.0016632499,1741836117.4690628
0.03725,-0.22625,0.08125,0.0043944996,-0.0691375,-0.0012665,1741836117.484813
0.036,-0.2175,0.06525,0.000229,-0.063384995,-0.00093075,1741836117.498362
0.0365,-0.21875,0.07025,-0.00070200005,-0.06266775,-0.001007,1741836117.51487
0.03875,-0.225,0.0845,0.0020599999,-0.061767504,-0.00115975,1741836117.52778
0.03775,-0.22925,0.09975,0.004593,-0.059951752,-0.00119025,1741836117.542426
0.03375,-0.2225,0.09925,0.0052947504,-0.054306,-0.0018615,1741836117.557083
0.01975,-0.20675,0.087,0.00355525,-0.0519105,-0.00245675,1741836117.571852
0.0145,-0.20225,0.0855,-0.000122000005,-0.047195498,-0.0036010002,1741836117.58652
0.0185,-0.2085,0.1015,-0.0010375,-0.04476925,-0.00419625,1741836117.601268
0.019,-0.214,0.09775,-0.00099175,-0.04312125,-0.00585925,1741836117.6161711
0.0155,-0.22375,0.097,-0.00016775,-0.043289248,-0.006668,1741836117.630859
0.01275,-0.22975,0.1085,0.0029755002,-0.042861998,-0.007553,1741836117.6454642
0.01125,-0.24275,0.151,0.00463875,-0.041214,-0.0077667497,1741836117.660199
0.0225,-0.26,0.20225,0.007187,-0.033615,-0.00538625,1741836117.674779
0.08575,-0.3135,0.43525,0.009369001,-0.026245002,-0.00154125,1741836117.689523
0.1215,-0.35075,0.62375,0.017868,0.008346501,0.01019275,1741836117.7048619
0.072,-0.33725,0.917,0.0224305,0.041366503,0.01617425,1741836117.7183151
-0.04,-0.2505,0.92825,0.03335575,0.128067,0.01811225,1741836117.73439
-0.44075,0.008,0.815,0.038208,0.17401125,0.013198749,1741836117.7475169
-0.70925,0.067,0.64525,0.0373535,0.21502675,0.0065765,1741836117.7618968
-0.91325,-0.00275,0.4105,-0.00968925,0.26425174,-0.00538625,1741836117.776526
-0.927,-0.35775,-0.05275,-0.04290775,0.26708975,-0.00912475,1741836117.791353
-0.8195,-0.459,-0.281,-0.0466155,0.24621575,-0.010803251,1741836117.806245
-0.55225,-0.54525,-0.7455,-0.0247345,0.22583,-0.00631725,1741836117.821276
-0.421,-0.56925,-0.94925,-0.0158385,0.15057375,0.017730748,1741836117.836087
-0.23775,-0.45275,-0.9975,-0.0245515,0.09272775,0.03009025,1741836117.85102
-0.20375,-0.323,-0.7925,-0.01278675,-0.013733,0.03666675,1741836117.865694
-0.12025,-0.0775,-0.21025,0.0017852499,-0.037155252,0.03038025,1741836117.8803358
-0.0345,-0.033,-0.0595,0.01083375,-0.0398255,0.010940501,1741836117.895241
0.11525,-0.06475,0.0465,0.0045777503,-0.035873502,0.0033875,1741836117.909694
0.146,-0.104,0.094,-0.001648,-0.02923575,-0.00668325,1741836117.924917
0.1435,-0.1955,0.12925,0.0020752498,-0.0237275,-0.010253999,1741836117.939075
0.13175,-0.238,0.0905,0.009613,-0.0119630005,-0.0124665005,1741836117.954458
0.10225,-0.30125,0.03225,0.011260999,-0.0081025,-0.011016751,1741836117.968469
0.08875,-0.31375,0.008,0.01077275,-0.0028074998,-0.0047150003,1741836117.983187
0.0735,-0.304,-0.04875,0.00880425,-0.0023497501,-0.00086975005,1741836117.9978628
0.07125,-0.29525,-0.0665,0.0057220003,-0.0043182503,0.00596625,1741836118.0124302
0.06575,-0.27,-0.07925,0.0047302498,-0.00617975,0.008499251,1741836118.02707
0.0615,-0.25225,-0.07225,0.00419625,-0.011169501,0.010238751,1741836118.0417302
0.0595,-0.22925,-0.047,0.0047455,-0.0127105,0.009323,1741836118.056521
0.06025,-0.2265,-0.04975,0.00411975,-0.013183501,0.0063934997,1741836118.071164
0.0615,-0.2325,-0.0705,0.0032655,-0.01408375,0.00511175,1741836118.085784
0.062,-0.2385,-0.08175,0.0031889998,-0.0157775,0.00402825,1741836118.1004632
0.063,-0.24675,-0.112,0.004593,-0.02165225,0.00289925,1741836118.115259
0.0625,-0.24925,-0.1165,0.00494375,-0.0264435,0.00320425,1741836118.130118
0.05775,-0.2375,-0.09225,0.0034790002,-0.037033,0.0051269997,1741836118.145443
0.05475,-0.226,-0.06575,0.0011445,-0.04093925,0.006073,1741836118.159436
0.05525,-0.21425,-0.04125,-0.002655,-0.0433045,0.006073,1741836118.1749141
0.064,-0.207,-0.012,-0.001175,-0.042785753,0.0050202496,1741836118.188766
0.067,-0.213,-0.01175,0.00555425,-0.0410155,0.00270075,1741836118.204525
0.06775,-0.22825,-0.032,0.00720225,-0.040985,0.002121,1741836118.2182982
0.0665,-0.234,-0.04375,0.0043944996,-0.043701246,0.00279225,1741836118.2329469
0.066,-0.236,-0.05325,0.0012055,-0.045944247,0.0037995,1741836118.247572
0.06425,-0.23375,-0.04475,-0.0018005001,-0.050644003,0.0046845004,1741836118.262282
0.0625,-0.2295,0.00825,-7.625e-05,-0.0520325,0.0043335,1741836118.27696
0.0645,-0.227,0.031,0.007843,-0.0494995,0.00314325,1741836118.2914429
0.0725,-0.23025,0.036,0.0100555,-0.046463,0.0027465,1741836118.305894
0.0735,-0.233,0.02075,0.00543225,-0.043686002,0.00308225,1741836118.320451
0.067,-0.2225,0.00575,0.00109875,-0.045043997,0.0036010002,1741836118.3353019
0.063,-0.21875,0.00925,-0.00163275,-0.049804747,0.0039215,1741836118.349458
0.0595,-0.22275,0.0275,0.00042725,-0.052047748,0.0034942501,1741836118.365056
0.0545,-0.22275,0.01925,0.0035704998,-0.053680502,0.0028229998,1741836118.378457
0.04875,-0.2225,0.01075,0.00444025,-0.05844125,0.0015105,1741836118.392864
0.035,-0.21525,0.037,0.0047912505,-0.059676997,0.00093075,1741836118.407295
0.0255,-0.20825,0.029,0.0063325,-0.06166075,0.00024425,1741836118.4218721
0.00325,-0.1915,0.0095,0.00520325,-0.06542975,-6.1000002e-05,1741836118.4364412
-0.01375,-0.189,0.00775,0.00213625,-0.07260125,-0.00148,1741836118.451189
-0.0255,-0.19975,0.05175,0.00109875,-0.071869,-0.0027465,1741836118.465863
-0.016,-0.2095,0.09025,0.0053405,-0.06602475,-0.0061339997,1741836118.4805079
0.04675,-0.26975,0.281,0.009613,-0.06311025,-0.007599,1741836118.4953148
0.1555,-0.358,0.579,0.014938249,-0.04319775,-0.00225825,1741836118.5100632
0.19675,-0.38425,1.0,0.01634225,-0.012267999,0.00668325,1741836118.524596
-0.01775,-0.192,1.0,0.03907775,0.12121575,0.011886501,1741836118.5392482
-0.65825,0.2395,0.82475,0.0507965,0.19389349,-0.00143425,1741836118.554919
-0.90025,0.1725,0.573,0.0061339997,0.27250674,-0.02674875,1741836118.5684092
-0.9495,-0.44875,0.05775,-0.037033,0.27598575,-0.026825001,1741836118.585025
-0.84875,-0.58825,-0.179,-0.0516815,0.26136774,-0.0086975,1741836118.598359
-0.6085,-0.55525,-0.61175,-0.0315095,0.245514,0.0015105,1741836118.6143591
-0.49575,-0.557,-0.796,-0.0254365,0.1751555,0.019470248,1741836118.6277351
-0.29,-0.4935,-0.98425,-0.031433,0.1278075,0.02677925,1741836118.642605
-0.23225,-0.38675,-0.87625,-0.026550248,0.077835,0.031066999,1741836118.6572642
-0.14475,-0.16375,-0.40325,0.0055237496,-0.0033570002,0.028289748,1741836118.672042
-0.0785,-0.07975,-0.19775,0.01278675,-0.02348325,0.02333075,1741836118.686786
0.079,-0.0275,-0.013,0.0047302498,-0.03111275,0.01062,1741836118.701419
0.1365,-0.052,0.03925,-0.00093075,-0.02970875,0.003952,1741836118.716044
0.1665,-0.0945,0.10025,0.0008545,-0.0248565,-0.00811775,1741836118.7305532
0.16175,-0.189,0.1205,0.0063934997,-0.018402,-0.01278675,1741836118.7453241
0.14225,-0.2345,0.0745,0.014709501,-0.00621025,-0.016998248,1741836118.759944
0.1025,-0.31,-0.01225,0.01519775,-0.00378425,-0.0157775,1741836118.7747898
0.0855,-0.32475,-0.03775,0.011612001,-0.004242,-0.008224499,1741836118.789332
0.064,-0.31675,-0.071,0.009369001,-0.00520325,-0.00393675,1741836118.805046
0.061,-0.30775,-0.08275,0.0062407497,-0.008499251,0.00308225,1741836118.8186939
0.0565,-0.272,-0.04975,0.00511175,-0.010437001,0.0055695,1741836118.834456
0.05725,-0.25175,-0.03175,0.0034942501,-0.01036075,0.0070952503,1741836118.8479118
0.061,-0.227,-0.036,0.0031127501,-0.010299751,0.00631725,1741836118.8625028
0.0615,-0.22975,-0.043,0.0040435,-0.01222225,0.00372325,1741836118.877204
0.06375,-0.26075,-0.084,0.0057372497,-0.013549751,0.0029755002,1741836118.891948
0.062,-0.272,-0.10725,0.00833125,-0.019622749,0.0038757501,1741836118.906523
0.057,-0.28075,-0.1335,0.008651749,-0.02401725,0.00505075,1741836118.921112
0.0535,-0.275,-0.141,0.007843,-0.028594999,0.0065002497,1741836118.935758
0.051,-0.24275,-0.1245,0.00399775,-0.0397645,0.009277251,1741836118.950437
0.04975,-0.223,-0.1095,0.000412,-0.045287997,0.00997925,1741836118.96523
0.04825,-0.2055,-0.09675,-0.006668,-0.05470275,0.009292499,1741836118.979944
0.047,-0.2075,-0.0635,-0.006256,-0.058319,0.008361749,1741836118.995102
0.04975,-0.21725,-0.0505,0.00396725,-0.06192025,0.006546,1741836119.0091321
0.0515,-0.2215,-0.04625,0.009582501,-0.06352225,0.0054932497,1741836119.024792
0.05075,-0.223,-0.03375,0.013549751,-0.067566,0.00355525,1741836119.03846
0.0535,-0.2285,-0.002,0.0125885,-0.06823725,0.0031127501,1741836119.054511
0.0565,-0.2295,0.015,0.008270251,-0.06596375,0.003128,1741836119.067744
0.05825,-0.2185,0.05825,0.0049285004,-0.062973,0.0032195,1741836119.082422
0.05725,-0.2115,0.07825,-0.0005645,-0.054550253,0.0025787498,1741836119.097158
0.072,-0.2195,0.065,-0.0008545,-0.050705,0.00228875,1741836119.111718
0.07775,-0.23075,0.05075,0.00080875,-0.048889253,0.00283825,1741836119.1263201
0.0745,-0.235,0.065,0.00213625,-0.04922475,0.0031585,1741836119.1408262
0.073,-0.23275,0.08325,0.00621025,-0.046768248,0.0026854998,1741836119.155322
0.07975,-0.233,0.13425,0.00717175,-0.043151747,0.0022125002,1741836119.1698802
0.087,-0.2305,0.14475,0.0070495,-0.0379485,0.0019225,1741836119.18534
0.0895,-0.2335,0.1015,0.003296,-0.027359,0.00231925,1741836119.1988711
0.08575,-0.2385,0.06425,-0.00143425,-0.02487175,0.00325,1741836119.2150111
0.07875,-0.23525,0.03325,-0.010666001,-0.02742,0.0049742498,1741836119.228181
0.062,-0.20975,-0.00275,-0.010604749,-0.03129575,0.0049285004,1741836119.2428238
0.05425,-0.20275,-0.00925,-0.00086975005,-0.041336,0.00308225,1741836119.2575638
0.0395,-0.194,-0.018,0.00579825,-0.04670725,0.001648,1741836119.272176
0.02375,-0.18,-0.024,0.01289375,-0.057724,-0.0012665,1741836119.286915
-0.0035,-0.157,-0.01575,0.01150525,-0.06172175,-0.00276175,1741836119.3016698
-0.00725,-0.162,0.0015,0.00662225,-0.067596495,-0.006607,1741836119.31634
-0.01775,-0.20875,0.088,0.007965,-0.07153325,-0.00889575,1741836119.3310359
0.001,-0.26375,0.257,0.012557999,-0.06590275,-0.009491,1741836119.345731
0.14025,-0.36625,0.86425,0.01086425,-0.04707325,-0.0054015,1741836119.3604429
0.1715,-0.3435,1.0,0.00354,0.0392915,0.00741575,1741836119.374809
-0.12375,-0.04275,0.95425,0.0073395,0.100463755,0.006607,1741836119.3893461
-0.3445,0.08925,0.77525,0.0063934997,0.19773875,-0.01950075,1741836119.404224
-0.7425,0.023,0.411,-0.00665275,0.2261505,-0.03262325,1741836119.418587
-0.84075,-0.145,0.20875,-0.02259825,0.2467805,-0.045303248,1741836119.433246
-0.73025,-0.41475,-0.22075,-0.01805125,0.242981,-0.042984,1741836119.4481149
-0.5945,-0.47975,-0.4025,-0.00985725,0.231247,-0.035827752,1741836119.464939
-0.36925,-0.59125,-0.67525,-0.013046251,0.18406676,-0.0128785,1741836119.477674
-0.2875,-0.6,-0.779,-0.021041749,0.151657,0.000229,1741836119.4925709
-0.178,-0.4375,-0.774,-0.020629998,0.07318125,0.022232,1741836119.50722
-0.143,-0.31275,-0.6235,-0.01228325,0.03190625,0.027862499,1741836119.522038
-0.1055,-0.1995,-0.4295,0.00231925,-0.02345275,0.0266875,1741836119.5367339
0.001,-0.06725,-0.127,0.001892,-0.0355835,0.021698,1741836119.551417
0.05825,-0.052,-0.008,-0.006668,-0.0405425,0.0079955,1741836119.566068
0.134,-0.1055,0.1725,-0.00570675,-0.0356445,0.00054925,1741836119.580642
0.15025,-0.1595,0.20775,0.00830075,-0.019287001,-0.011169501,1741836119.595215
0.1445,-0.26275,0.1555,0.01469425,-0.0105742505,-0.0133667495,1741836119.609828
0.1285,-0.29325,0.102,0.0149995005,0.00074775,-0.009903,1741836119.624822
0.09225,-0.31325,0.00975,0.01136775,0.00276175,-0.0061339997,1741836119.639052
0.07875,-0.308,-0.02225,0.0060882503,0.00283825,0.0012817499,1741836119.655102
0.06275,-0.273,-0.0525,0.005249,0.001709,0.0039215,1741836119.668103
0.06075,-0.255,-0.04925,0.00428775,-0.000946,0.0059967497,1741836119.684371
0.06275,-0.23175,-0.03725,0.0042267498,-0.0019989999,0.0058287503,1741836119.6975691
0.06425,-0.23025,-0.03375,0.0048979996,-0.00390625,0.0045012496,1741836119.71219
0.06375,-0.23225,-0.0345,0.0054015,-0.004547,0.00378425,1741836119.7269208
0.0625,-0.23325,-0.042,0.0047302498,-0.0060882503,0.002655,1741836119.7415118
0.06275,-0.2335,-0.04425,0.0032655,-0.00741575,0.0021819999,1741836119.756202
0.063,-0.23425,-0.0435,0.0022735,-0.008667,0.0017242499,1741836119.770793
0.06375,-0.244,-0.04775,0.0030975002,-0.0111085,0.001068,1741836119.785415
0.065,-0.2495,-0.0455,0.00408925,-0.012557999,0.001068,1741836119.800124
0.0675,-0.25325,-0.04275,0.007019,-0.0150605,0.00198375,1741836119.8153112
0.0725,-0.25525,-0.048,0.00891125,-0.01637275,0.002777,1741836119.829525
0.0735,-0.251,-0.052,0.011398249,-0.0203095,0.00434875,1741836119.845498
0.071,-0.23525,-0.04325,0.01165775,-0.0222625,0.0047912505,1741836119.858751
0.067,-0.22675,-0.03875,0.01086425,-0.0243225,0.00460825,1741836119.8748748
0.066,-0.222,-0.04975,0.01054375,-0.024947999,0.00413525,1741836119.888128
0.0695,-0.2255,-0.06025,0.01013175,-0.0276185,0.00343325,1741836119.902828
0.076,-0.2285,-0.08975,0.009384249,-0.030548,0.0034637498,1741836119.9176068
0.075,-0.22825,-0.0985,0.0069274995,-0.04011525,0.0037995,1741836119.932218
0.06575,-0.228,-0.06325,0.0069580004,-0.045349,0.0036162501,1741836119.9468439
0.062,-0.2305,-0.02225,0.011031999,-0.049636748,0.00187675,1741836119.9615822
0.06575,-0.23425,0.0095,0.012985251,-0.048172,0.00068675,1741836119.9762502
0.07325,-0.243,0.00725,0.014282251,-0.04550175,1.5250001e-05,1741836119.990852
0.08975,-0.2655,-0.00375,0.014618,-0.045287997,0.0008545,1741836120.0054028
0.089,-0.2635,-0.01625,0.011031999,-0.04800425,0.00372325,1741836120.019999
0.073,-0.23675,-0.02775,0.00694275,-0.051239,0.00511175,1741836120.0347872
0.067,-0.23175,-0.01625,0.0029755002,-0.054977503,0.0058899997,1741836120.0494301
0.06425,-0.229,0.02725,0.0012665,-0.06004325,0.0055695,1741836120.0646908
0.06175,-0.22425,0.037,0.0029755002,-0.059692502,0.0054015,1741836120.078561
0.05975,-0.21475,0.0315,0.00112925,-0.05703725,0.0058287503,1741836120.095083
0.057,-0.19325,0.01625,-0.00270075,-0.05729675,0.0056609996,1741836120.107806
0.05125,-0.188,0.015,-0.0080567505,-0.06033325,0.0028229998,1741836120.122397
0.0315,-0.18475,0.02225,-0.0070647504,-0.06228625,0.00077825,1741836120.1370938
0.0075,-0.184,0.0135,-0.00030525,-0.063507,-0.00228875,1741836120.1517599
-0.00675,-0.1925,0.0395,-0.00019825,-0.0603485,-0.00228875,1741836120.1666691
0.0035,-0.20225,0.07225,-0.00067150005,-0.057418752,-0.00201425,1741836120.181439
0.00625,-0.234,0.13425,0.0025940002,-0.05805975,-0.002411,1741836120.196031
0.01925,-0.24775,0.177,0.0114440005,-0.0526275,-0.0030975002,1741836120.210689
0.075,-0.29025,0.3165,0.01460275,-0.04647825,-0.00270075,1741836120.2252328
0.1425,-0.3245,0.487,0.0127105,-0.02456675,0.0041504996,1741836120.23986
0.24025,-0.31275,0.98275,0.00738525,0.00115975,0.011383001,1741836120.254977
0.11225,-0.1985,1.0,0.0115815,0.09375,0.01857,1741836120.2688231
-0.2725,0.08525,0.696,0.016327,0.148468,0.0075072497,1741836120.284628
-0.4795,0.09725,0.5495,0.0085755,0.19827275,-0.0111085,1741836120.29793
-0.879,-0.19475,0.24925,-0.027359,0.2514495,-0.040420502,1741836120.312564
-0.92075,-0.32475,0.018,-0.0403595,0.25700375,-0.043151747,1741836120.3272781
-0.83025,-0.41375,-0.19225,-0.0391235,0.241684,-0.037231497,1741836120.3422358
-0.52375,-0.62625,-0.554,-0.030426001,0.22416675,-0.03034975,1741836120.357095
-0.3895,-0.702,-0.75125,-0.027557248,0.1638795,-0.0003815,1741836120.372022
-0.19925,-0.62275,-0.98875,-0.026672252,0.118332,0.017700251,1741836120.3867688
-0.169,-0.4625,-0.86175,-0.009552,0.014648501,0.040069498,1741836120.401524
-0.1145,-0.13225,-0.3585,0.0021819999,-0.01857,0.04037475,1741836120.416301
-0.074,-0.02775,-0.187,0.0114135,-0.04090875,0.025238002,1741836120.431162
0.05775,0.01875,0.0155,0.008651749,-0.041183498,0.014389,1741836120.445589
0.117,-0.02375,0.09325,0.0021972498,-0.034149252,-0.00314325,1741836120.4602098
0.159,-0.144,0.167,0.0032655,-0.0275115,-0.008636501,1741836120.474947
0.15175,-0.1935,0.14,0.00823975,-0.012695249,-0.01396175,1741836120.489538
0.1215,-0.28175,0.064,0.009369001,-0.00764475,-0.014038,1741836120.505078
0.106,-0.313,0.0375,0.009445249,-0.00187675,-0.00903325,1741836120.518944
0.0765,-0.323,-0.01725,0.008407501,-0.00035100002,-0.00469975,1741836120.535147
0.0665,-0.30475,-0.04375,0.0042115003,-0.00019825,0.0032195,1741836120.5481758
0.062,-0.26125,-0.073,0.00251775,-0.0016175,0.00535575,1741836120.5629408
0.06475,-0.2455,-0.0715,0.00190725,-0.0059815003,0.0062407497,1741836120.577675
0.06775,-0.229,-0.058,0.0026092501,-0.0080567505,0.0054475004,1741836120.5921972
0.06575,-0.23025,-0.047,0.00517275,-0.010894749,0.002777,1741836120.606922
0.06,-0.24425,-0.03475,0.0070495,-0.0112,0.00163275,1741836120.621515
0.0585,-0.2535,-0.042,0.007965,-0.01091,0.00108325,1741836120.63613
0.057,-0.26575,-0.0765,0.0055847503,-0.011260999,0.00213625,1741836120.650722
0.05575,-0.267,-0.10275,0.00444025,-0.0128632495,0.0033722501,1741836120.6654751
0.05425,-0.26375,-0.12875,0.00520325,-0.020599252,0.0060425,1741836120.680181
0.053,-0.2455,-0.15375,0.0073395,-0.026840251,0.0069274995,1741836120.695297
0.05175,-0.234,-0.15,0.0129395,-0.041061502,0.00694275,1741836120.709397
0.0415,-0.21125,-0.11225,0.013839751,-0.0471345,0.00640875,1741836120.725015
0.036,-0.20075,-0.0895,0.00785825,-0.0540925,0.005005,1741836120.738645
0.0375,-0.19475,-0.0505,0.00317375,-0.05603025,0.0039825,1741836120.75456
0.0445,-0.20025,-0.03575,-0.00086975005,-0.0588685,0.00169375,1741836120.7679071
0.0565,-0.2175,-0.019,0.0009765,-0.0603485,0.00071725,1741836120.7825541
0.059,-0.22575,-0.0125,0.007309,-0.0645295,-0.00062550005,1741836120.7972171
0.053,-0.23725,0.00225,0.010086001,-0.06675725,-0.001007,1741836120.812031
0.048,-0.24425,0.0185,0.01582325,-0.07032775,-0.00131225,1741836120.8266659
0.03575,-0.2525,0.0325,0.017730748,-0.07124325,-0.00125125,1741836120.841207
0.034,-0.24875,0.0455,0.013549751,-0.071304254,-0.0002135,1741836120.8559291
0.03625,-0.2385,0.074,0.0114744995,-0.06761175,0.0002595,1741836120.870544
0.0355,-0.22625,0.06375,0.00538625,-0.06077575,-0.00051875,1741836120.885201
0.0325,-0.21075,0.0455,0.002411,-0.060241748,-0.00169375,1741836120.899668
0.02775,-0.21475,0.03675,0.0013427499,-0.0609895,-0.0032347501,1741836120.914596
0.019,-0.2205,0.031,0.0012817499,-0.0650635,-0.006073,1741836120.929031
-0.00475,-0.22025,0.03775,0.0002595,-0.06791675,-0.0067902496,1741836120.9450932
-0.01575,-0.22225,0.048,-0.0023345,-0.071029745,-0.00697325,1741836120.9585469
-0.01575,-0.227,0.1005,-0.0031585,-0.0681,-0.0065612504,1741836120.974559
-0.004,-0.23125,0.126,-0.0038605002,-0.059341498,-0.00585925,1741836120.988213
0.0225,-0.24825,0.143,-0.00593575,-0.0567475,-0.005539,1741836121.003034
0.03425,-0.25225,0.16975,-0.01368725,-0.05033875,-0.00364675,1741836121.017749
0.06925,-0.263,0.23725,-0.0147705,-0.04492175,-0.0027160002,1741836121.032528
0.0895,-0.27125,0.27,-0.00868225,-0.032714747,-0.00080875,1741836121.0472162
0.129,-0.2815,0.4005,-0.0034790002,-0.02516175,0.000885,1741836121.0620291
0.145,-0.27575,0.53025,0.0044707498,0.0013427499,0.0059815003,1741836121.076434
0.08475,-0.17625,0.8405,0.0058899997,0.026886,0.0074615004,1741836121.090964
-0.01675,-0.09175,0.928,0.010666001,0.118637,-0.005066,1741836121.105645
-0.443,0.036,0.83675,0.01133725,0.179245,-0.0170745,1741836121.1203141
-0.743,0.04,0.59975,0.0014037499,0.269165,-0.034668,1741836121.135102
-0.96925,-0.1875,0.092,-0.01460275,0.27734375,-0.038971,1741836121.149589
-0.879,-0.3035,-0.07325,-0.028885,0.2550965,-0.037796002,1741836121.1645389
-0.58925,-0.4705,-0.408,-0.017212,0.24043275,-0.0319825,1741836121.179244
-0.4645,-0.547,-0.609,-0.014938249,0.1894225,-0.00738525,1741836121.195269
-0.262,-0.58825,-0.916,-0.022216748,0.14547725,0.0066374997,1741836121.2089338
-0.20975,-0.49625,-0.8595,-0.0090637505,0.04353325,0.024536248,1741836121.2248142
-0.12475,-0.246,-0.3925,0.00514225,0.0066374997,0.02633675,1741836121.238373
-0.08125,-0.157,-0.198,0.01454175,-0.014267,0.02430725,1741836121.253012
0.05525,-0.065,-0.05775,0.01062,-0.023803748,0.01380925,1741836121.267671
0.11325,-0.06425,-0.0255,0.0032347501,-0.024536248,0.00773625,1741836121.282342
0.14325,-0.0895,0.025,0.00068675,-0.026550248,-0.0038605002,1741836121.296921
0.13725,-0.167,0.09725,0.0050965,-0.0237885,-0.009094249,1741836121.3116312
0.1195,-0.2145,0.10325,0.01431275,-0.01245125,-0.01628125,1741836121.32622
0.0885,-0.309,0.062,0.01554875,-0.0064850003,-0.016540501,1741836121.3409421
0.08,-0.33825,0.01225,0.0077667497,-0.0008545,-0.00918575,1741836121.355647
0.07075,-0.3305,-0.04275,0.0028074998,-0.0016785001,-0.0037079998,1741836121.3705258
0.067,-0.30475,-0.05,-9.15e-05,-0.00460825,0.00428775,1741836121.385418
0.0625,-0.2535,-0.044,0.00077825,-0.00637825,0.00593575,1741836121.4000661
0.0625,-0.23375,-0.02125,0.002533,-0.00785825,0.0055085,1741836121.415112
0.061,-0.21325,-0.001,0.0019685,-0.0063325,0.0041810004,1741836121.4292622
0.06075,-0.21675,-0.01275,0.00029,-0.0037385002,0.001114,1741836121.445235
0.06075,-0.23525,-0.03525,0.00042725,-0.003769,-0.000122000005,1741836121.458818
0.05825,-0.2435,-0.04025,0.0005035,-0.004486,-0.00108325,1741836121.474565
0.055,-0.253,-0.03675,0.0004425,-0.00488275,-0.000885,1741836121.48818
0.0565,-0.2535,-0.034,0.0012970001,-0.0057525,0.000183,1741836121.503018
0.06225,-0.24875,-0.02625,0.0012055,-0.0062712496,0.0009155,1741836121.517643
0.065,-0.2425,-0.0175,-0.00030525,-0.00665275,0.0021819999,1741836121.532524
0.06825,-0.22725,-0.0045,-0.00112925,-0.00631725,0.00239575,1741836121.547316
0.06825,-0.22325,-0.00325,-0.001114,-0.00469975,0.0016632499,1741836121.562028
0.0655,-0.2215,-0.0105,-0.000534,-0.003769,0.000946,1741836121.576705
0.0655,-0.22475,-0.0145,-4.575e-05,-0.00263975,-0.00024425,1741836121.591522
0.06575,-0.23025,-0.0255,0.000229,-0.00238025,-0.00045775,1741836121.606144
0.06475,-0.2305,-0.029,0.0005645,-0.0023345,-0.000534,1741836121.6208892
0.06325,-0.231,-0.0215,0.0001525,-0.0024872501,-0.0007935,1741836121.635703
0.06375,-0.233,-0.01775,-0.0003815,-0.00231925,-0.001007,1741836121.650517
0.066,-0.23975,-0.01275,-0.0002595,-0.001526,-0.00137325,1741836121.6653109
0.06625,-0.24225,-0.007,0.00039675,-0.0009155,-0.00143425,1741836121.680118
0.066,-0.24425,-0.00675,0.0010375,0.00083925005,-0.0013427499,1741836121.6953442
0.06575,-0.25,-0.02475,0.0004425,0.001236,-0.00108325,1741836121.7093608
