acc_x,acc_y,acc_z,gyro_x,gyro_y,gyro_z,timestamp
-0.02425,-0.00875,0.247,0.00013725001,-0.00065625,0.0003815,1741836204.402207
-0.023,-0.00875,0.25075,-0.00030525,-0.000885,0.0003205,1741836204.415921
-0.02275,-0.01075,0.25125,-0.00099175,-0.000946,0.00036625,1741836204.430675
-0.0235,-0.0125,0.249,-0.0012817499,-0.00096125,0.00051875,1741836204.445389
-0.02425,-0.01075,0.2475,-0.001587,-0.001175,0.000824,1741836204.4600918
-0.02525,-0.006,0.24625,-0.0018005001,-0.00137325,0.00080875,1741836204.4747362
-0.0255,-0.0055,0.24675,-0.002121,-0.00160225,0.00068675,1741836204.489621
-0.02475,-0.00725,0.249,-0.001953,-0.001953,0.0002595,1741836204.504448
-0.0245,-0.00775,0.25025,-0.0012207499,-0.0019685,3.0500001e-05,1741836204.519137
-0.0255,-0.0075,0.24925,0.00024425,-0.0017395001,-0.00019825,1741836204.5346508
-0.026,-0.00625,0.24775,7.625e-05,-0.001648,-0.000122000005,1741836204.548713
-0.0265,-0.00425,0.24575,-0.001526,-0.0016175,-4.575e-05,1741836204.564586
-0.02675,-0.00625,0.243,-0.00204475,-0.0018005001,-0.0001525,1741836204.578309
-0.02625,-0.0085,0.24325,-0.00184625,-0.00225825,-0.00029,1741836204.594193
-0.0275,-0.007,0.24425,-0.0013580001,-0.002365,-0.00029,1741836204.607816
-0.0285,-0.00525,0.24425,-0.001236,-0.002533,-0.00042725,1741836204.622643
-0.03075,-0.00525,0.244,-0.0017242499,-0.00270075,-0.000473,1741836204.6373708
-0.032,-0.0055,0.2435,-0.0023345,-0.00328075,-0.000534,1741836204.6521752
-0.0335,-0.00225,0.243,-0.0023345,-0.00369275,-0.00062550005,1741836204.667188
-0.0335,-0.001,0.24325,-0.00267025,-0.0045625,-0.00090025004,1741836204.6822112
-0.03375,-0.00125,0.243,-0.003006,-0.00494375,-0.00099175,1741836204.697203
-0.034,-0.0005,0.24275,-0.0033875,-0.00564575,-0.00112925,1741836204.71202
-0.03575,0.00125,0.2465,-0.0031585,-0.0059205,-0.0012665,1741836204.726711
-0.03725,0.001,0.24775,-0.0021972498,-0.006363,-0.001648,1741836204.741567
-0.03725,-0.002,0.255,-0.0019989999,-0.00637825,-0.0016632499,1741836204.7569652
-0.03625,-0.00275,0.259,-0.00187675,-0.0054015,-0.0014037499,1741836204.7711182
-0.03725,-0.00375,0.2605,-0.00146475,-0.0045012496,-0.0013275,1741836204.785891
-0.038,-0.003,0.261,-0.00105275,-0.002411,-0.0010375,1741836204.8006232
-0.03975,0.0005,0.256,-0.0012665,-0.001419,-0.00093075,1741836204.81541
-0.0425,0.0015,0.24875,-0.00187675,-0.00042725,-0.00099175,1741836204.830221
-0.04425,0.00075,0.23625,-0.00184625,-0.00071725,-0.00109875,1741836204.845131
-0.045,0.0005,0.233,-0.00131225,-0.00216675,-0.00109875,1741836204.859926
-0.043,0.0055,0.23575,-0.001068,-0.00292975,-0.001114,1741836204.8747141
-0.04275,0.00875,0.238,-3.0500001e-05,-0.0042115003,-0.0014037499,1741836204.8894908
-0.04925,0.01425,0.24,0.00059500005,-0.0050812503,-0.00181575,1741836204.904105
-0.05075,0.0015,0.283,0.0018005001,-0.0047150003,-0.001587,1741836204.918821
0.00775,-0.06825,0.714,0.0065612504,0.0043335,0.00109875,1741836204.9341471
-0.00425,-0.0295,0.963,0.0398255,0.0680085,0.00390625,1741836204.947833
-0.3075,0.0995,1.0,0.050903253,0.116333,-0.0019225,1741836204.962283
-0.47125,0.01575,0.924,0.04122925,0.16439825,-0.009842,1741836204.9768279
-0.44275,-0.10625,0.42925,-0.00148,0.2220765,-0.01245125,1741836204.991513
-0.327,-0.03425,0.17975,-0.00035100002,0.220932,-0.0077210004,1741836205.007062
-0.231,0.0505,-0.01075,0.021576,0.18688975,-0.0022277501,1741836205.0209138
-0.106,0.10575,-0.2765,0.021988,0.16775501,-0.0042572496,1741836205.0356
-0.059,0.079,-0.35,0.01206975,0.125,-0.00712575,1741836205.0501812
-0.023,-0.00825,-0.37725,0.004242,0.101303004,-0.00570675,1741836205.0650089
-0.003,-0.041,-0.34425,-0.008514499,0.0576935,-0.0055695,1741836205.0798779
0.05925,-0.07475,-0.25975,-0.009430001,0.0401765,-0.0049285004,1741836205.094605
0.09225,-0.07175,-0.201,-0.00488275,0.01260375,-0.000412,1741836205.1094122
0.16,-0.06625,-0.12125,-0.00062550005,0.00105275,0.0018615,1741836205.124213
0.18025,-0.05875,-0.10575,0.0057372497,-0.020813,0.0059205,1741836205.13871
0.2005,-0.01475,-0.03825,0.0035704998,-0.029693501,0.00688175,1741836205.1532679
0.2095,-0.00625,-0.0125,0.00010675,-0.040069498,0.00437925,1741836205.1679401
0.21575,-0.03125,0.0025,0.0020599999,-0.044235248,0.002472,1741836205.182545
0.207,-0.04725,0.028,0.004303,-0.056274503,0.0023345,1741836205.197098
0.19475,-0.04775,0.18525,0.00511175,-0.06150825,0.0032195,1741836205.211605
0.1945,-0.03875,0.2605,0.01206975,-0.05796825,0.0012970001,1741836205.2262
0.195,-0.06025,0.265,0.013351499,-0.04922475,-0.000183,1741836205.240897
0.1945,-0.0735,0.22275,0.0038757501,-0.03373725,0.0020295,1741836205.2555299
0.185,-0.06325,0.151,-0.0025940002,-0.0302125,0.00463875,1741836205.270113
0.17625,-0.0495,0.13525,-0.0069580004,-0.029007,0.00643925,1741836205.285069
0.1675,-0.042,0.13025,-0.0072785,-0.031692497,0.007309,1741836205.299388
0.155,-0.03725,0.14975,-0.0053709997,-0.03382875,0.00720225,1741836205.31449
0.15375,-0.03275,0.17125,-0.0011445,-0.036789,0.006363,1741836205.328727
0.1465,-0.0255,0.1935,6.1000002e-05,-0.037262,0.0057677496,1741836205.344702
0.138,-0.025,0.186,-0.00254825,-0.036438,0.0052795,1741836205.357863
0.12375,-0.02475,0.158,-0.0054015,-0.036499,0.0054932497,1741836205.372488
0.11675,-0.02425,0.1485,-0.0078125,-0.040847752,0.0061645,1741836205.3871932
0.09975,-0.0175,0.176,-0.006668,-0.04359425,0.00611875,1741836205.4016929
0.09075,-0.0095,0.20825,-0.0047150003,-0.0427705,0.0045165,1741836205.416364
0.089,-0.017,0.26475,-0.004486,-0.0390625,0.0032195,1741836205.4311612
0.09275,-0.03225,0.27575,-0.0016785001,-0.0314025,0.0015105,1741836205.445653
0.08325,-0.04225,0.25475,-7.625e-05,-0.029419001,0.00112925,1741836205.460261
0.077,-0.03425,0.25025,-0.0013427499,-0.028473,0.00204475,1741836205.474869
0.07275,-0.01025,0.25625,-0.00408925,-0.02870175,0.002655,1741836205.4894772
0.07075,-0.00725,0.2565,-0.00744625,-0.028991751,0.003006,1741836205.5040798
0.06625,-0.011,0.262,-0.0075835,-0.0285035,0.0028687501,1741836205.5186749
0.0595,-0.012,0.26075,-0.00691225,-0.027847249,0.00238025,1741836205.5332658
0.05125,-0.015,0.2595,-0.0039215,-0.02658075,0.001068,1741836205.548039
0.042,-0.017,0.269,-0.00160225,-0.025466999,0.0005645,1741836205.562773
0.03575,-0.01225,0.2725,0.0023345,-0.023285,-0.00096125,1741836205.577462
0.033,-0.006,0.273,0.0017852499,-0.02288825,-0.0016175,1741836205.592078
0.03,-0.004,0.268,-0.0039825,-0.02316275,-0.0012055,1741836205.607714
0.02525,-0.00775,0.258,-0.0068055,-0.02357475,-0.00033575002,1741836205.621463
0.02175,-0.012,0.25675,-0.0089569995,-0.0253295,0.0012055,1741836205.6360729
0.00325,-0.003,0.24775,-0.0081025,-0.02645875,0.0013275,1741836205.65066
-0.005,0.00425,0.24225,-0.00546275,-0.029846251,0.00057975,1741836205.665289
-0.018,-0.00175,0.232,-0.0046845004,-0.032348752,0.00033575002,1741836205.679992
-0.02975,-0.0045,0.228,-0.0030669998,-0.038345248,0.000183,1741836205.694725
-0.057,-0.00475,0.22525,-0.00231925,-0.04144275,0.00033575002,1741836205.709391
-0.068,-0.00275,0.2365,-0.000885,-0.04252625,-0.000824,1741836205.7244852
-0.0495,-0.01525,0.35475,-0.00030525,-0.0395355,-0.00112925,1741836205.738991
-0.017,-0.035,0.499,-0.0054475004,-0.01997375,0.0050965,1741836205.753716
0.10325,-0.003,0.8635,-0.0053709997,0.00074775,0.010147001,1741836205.76826
0.124,0.0395,1.0,0.021453751,0.0704345,0.0110625,1741836205.7827258
-0.1005,0.09175,1.0,0.03108225,0.11346425,0.00437925,1741836205.797099
-0.32925,0.07625,0.98275,0.0298615,0.1549225,-0.004074,1741836205.811646
-0.51275,0.01125,0.88825,0.0124665005,0.21920775,-0.011169501,1741836205.8262122
-0.57775,0.003,0.5465,0.008499251,0.23448175,-0.0113525,1741836205.840734
-0.52075,0.03175,0.3585,0.009719751,0.2298125,-0.012146,1741836205.855304
-0.40375,-0.06325,-0.06025,0.0064545004,0.21658325,-0.010086001,1741836205.870004
-0.36675,-0.11475,-0.3245,-0.000122000005,0.17840575,-0.0022125002,1741836205.884786
-0.26325,-0.07575,-0.7845,0.00296025,0.14927675,0.0003815,1741836205.899395
-0.19475,-0.0205,-0.83075,0.00181575,0.06581125,0.0049285004,1741836205.91461
-0.0885,0.11775,-0.5625,-0.00270075,0.0247955,0.0033570002,1741836205.9288409
-0.032,0.11625,-0.4025,0.0,-0.02896125,-0.0088195,1741836205.944864
0.09225,0.016,-0.166,0.00137325,-0.047195498,-0.012054499,1741836205.9583051
0.1465,-0.0,-0.0105,-0.00228875,-0.06381225,-0.008545,1741836205.9746828
0.2485,-0.0185,0.247,-0.0054780003,-0.05921925,-0.00596625,1741836205.987782
0.2895,-0.05225,0.284,-0.0129395,-0.04141225,-0.0012665,1741836206.0025
0.31075,-0.11925,0.204,-0.0151215,-0.033203,0.00131225,1741836206.017107
0.298,-0.116,0.14675,-0.014495751,-0.025940001,0.00694275,1741836206.0317051
0.2565,-0.04875,0.09925,-0.01150525,-0.027069,0.00830075,1741836206.0462599
0.24075,-0.0215,0.11025,-0.0070647504,-0.028442498,0.00770575,1741836206.060951
0.2135,-0.022,0.12625,0.0003205,-0.027359,0.0029449998,1741836206.075665
0.20475,-0.031,0.11275,-0.00213625,-0.0264435,0.0025940002,1741836206.090378
0.209,-0.04325,0.108,-0.009231499,-0.025940001,0.00744625,1741836206.104964
0.205,-0.04325,0.09725,-0.00712575,-0.0257415,0.009277251,1741836206.119581
0.19425,-0.03625,0.0825,-0.00228875,-0.03132625,0.00953675,1741836206.135116
0.166,-0.01725,0.0795,-0.002655,-0.035476748,0.008499251,1741836206.1489851
0.1595,-0.0095,0.092,-0.0065917503,-0.041076753,0.00782775,1741836206.164711
0.15175,0.00075,0.138,-0.008209251,-0.043289248,0.0086975,1741836206.1782022
0.148,0.00425,0.16425,-0.010757499,-0.04438775,0.009002751,1741836206.19457
0.13875,-0.00375,0.18775,-0.012329,-0.043578997,0.00874325,1741836206.208131
0.13825,-0.00975,0.19125,-0.0126495,-0.043258753,0.008865249,1741836206.2219388
0.13275,-0.00925,0.19025,-0.009872501,-0.04385375,0.00880425,1741836206.236487
0.12075,-0.0055,0.19475,-0.002533,-0.04385375,0.0060882503,1741836206.251144
0.1235,0.016,0.249,-0.00057975,-0.041808996,0.004303,1741836206.265895
0.1285,0.02575,0.2775,0.0013427499,-0.034149252,0.001831,1741836206.2802718
0.127,0.0295,0.29025,0.00019825,-0.02949525,0.0004425,1741836206.294859
0.1235,0.02025,0.27525,-0.00328075,-0.02534475,-0.00057975,1741836206.3094761
0.11225,-0.00775,0.24175,-0.009445249,-0.0211335,-6.1000002e-05,1741836206.3249679
0.10825,-0.01275,0.23675,-0.00852975,-0.020462,0.00067150005,1741836206.338639
0.105,-0.00875,0.23825,-0.0015105,-0.02114875,0.001831,1741836206.353416
0.0975,0.00975,0.2585,0.00108325,-0.02162175,0.001526,1741836206.36791
0.1025,0.02525,0.274,0.0002595,-0.018859752,-9.15e-05,1741836206.3825321
0.1035,0.0285,0.2725,-0.00169375,-0.0167695,-0.000122000005,1741836206.397289
0.09925,0.02175,0.261,-0.0049285004,-0.013336251,0.00029,1741836206.411789
0.08775,0.01875,0.2345,-0.00520325,-0.01251225,0.0003815,1741836206.4262478
0.081,0.01825,0.2235,-0.0034484998,-0.01345825,-0.00016775,1741836206.440855
0.068,0.01625,0.2135,-0.0023497501,-0.01504525,-0.00042725,1741836206.4573922
0.062,0.01625,0.21325,-0.0015105,-0.01882925,-0.00071725,1741836206.4700558
0.058,0.01625,0.23,-0.0020905002,-0.02056875,-0.0013427499,1741836206.485271
0.06025,0.02,0.2435,-0.00384525,-0.022643998,-0.00169375,1741836206.499233
0.05275,0.025,0.2525,-0.0043335,-0.0226745,-0.00112925,1741836206.514582
0.04875,0.023,0.24475,-0.0056,-0.022369498,0.00096125,1741836206.528367
0.0355,0.01125,0.216,-0.006256,-0.023117,0.00149525,1741836206.5447302
0.02275,0.009,0.2045,-0.0059205,-0.025055,0.0013427499,1741836206.557703
0.00875,0.0135,0.19925,-0.001419,-0.031356752,0.000229,1741836206.5719628
-0.0105,0.01725,0.1975,0.001419,-0.034958,-0.0001525,1741836206.586623
-0.016,0.01325,0.2015,0.0033570002,-0.041931253,-0.000534,1741836206.601449
-0.024,0.01575,0.24275,0.0015105,-0.04515075,0.00024425,1741836206.61599
-0.01775,0.02225,0.28825,-0.00463875,-0.04721075,0.0036010002,1741836206.6306171
0.00775,0.0155,0.4375,-0.0066374997,-0.043945253,0.00585925,1741836206.645171
0.037,0.0145,0.55875,-0.0029907501,-0.021362249,0.01019275,1741836206.65972
0.089,0.068,0.849,0.0051269997,0.00035100002,0.010299751,1741836206.674906
0.06825,0.0925,0.972,0.0194245,0.06773375,0.003296,1741836206.688611
-0.10275,0.112,1.0,0.01849375,0.108001746,-0.00402825,1741836206.7032619
-0.23275,0.0985,0.94275,0.006073,0.17828375,-0.0217285,1741836206.7178721
-0.36175,0.04775,0.67875,0.0018615,0.198639,-0.028427,1741836206.732408
-0.34575,0.04175,0.51925,0.0018005001,0.20721425,-0.0317535,1741836206.746899
-0.311,-0.0245,0.173,0.0065155,0.2021485,-0.025299,1741836206.761528
-0.32225,-0.0565,-0.0425,0.00283825,0.1924285,-0.017135499,1741836206.776173
-0.31975,-0.11025,-0.27,-0.013626001,0.16009524,-0.0019225,1741836206.790976
-0.25875,-0.13525,-0.61575,-0.015976,0.136551,0.0034637498,1741836206.8067572
-0.22325,-0.0975,-0.688,-0.00587475,0.07212825,0.0064850003,1741836206.820446
-0.10675,-0.026,-0.581,-0.00216675,0.034317,0.00541675,1741836206.83515
-0.04425,0.01825,-0.42675,-0.00035100002,-0.02462775,0.0062865,1741836206.849854
0.07375,0.074,-0.149,-0.00039675,-0.0395355,0.0075682504,1741836206.8649442
0.13225,0.0845,-0.02,-0.0022735,-0.052139252,0.0077515002,1741836206.879074
0.24325,0.091,0.2135,-0.0029907501,-0.05122375,0.00590525,1741836206.894856
0.28775,0.068,0.2705,-0.004837,-0.03718575,-1.5250001e-05,1741836206.908443
0.3335,-0.00525,0.2645,-0.0052337497,-0.02931225,-0.001709,1741836206.925007
0.33075,-0.02775,0.2405,-0.00402825,-0.01855475,-0.00067150005,1741836206.937734
0.3035,-0.01575,0.20175,-0.0019989999,-0.015747,-0.00061025,1741836206.9525042
0.28175,-0.0,0.16975,0.00453175,-0.010894749,-0.002472,1741836206.967181
0.252,-0.0015,0.09125,0.0051574996,-0.0084379995,-0.0022277501,1741836206.981884
0.243,-0.00825,0.0635,0.0021819999,-0.0081635,0.00035100002,1741836206.996489
0.2205,-0.0025,0.039,0.001648,-0.0102235,0.0011445,1741836207.010966
0.209,0.00125,0.038,0.0029907501,-0.016845752,0.00148,1741836207.025377
0.19075,-0.00725,0.0425,0.0039825,-0.02082825,0.00157175,1741836207.039837
0.183,-0.01075,0.04675,0.0050202496,-0.0249635,0.00190725,1741836207.054322
0.17525,-0.00775,0.05575,0.0043944996,-0.032196,0.00340275,1741836207.069029
0.163,0.00225,0.0885,0.0008545,-0.034729,0.00460825,1741836207.08479
0.16375,0.004,0.118,-0.0053709997,-0.03671275,0.007187,1741836207.098166
0.17325,0.01825,0.1775,-0.0039215,-0.035766497,0.00712575,1741836207.112978
0.17275,0.02325,0.18025,0.000885,-0.033722,0.0043944996,1741836207.127261
0.1665,0.00425,0.15375,0.0013427499,-0.034149252,0.003296,1741836207.1418922
0.16125,-0.00775,0.139,0.0016632499,-0.0370025,0.0029449998,1741836207.157175
0.14125,-0.012,0.125,0.00216675,-0.0386505,0.0029907501,1741836207.170942
0.13425,-0.009,0.142,0.001175,-0.03955075,0.0020599999,1741836207.185459
0.1445,0.01775,0.22425,0.00062550005,-0.038147,0.0016175,1741836207.19989
0.1465,0.02675,0.25325,0.0024414998,-0.03259275,0.00057975,1741836207.2149801
0.14875,0.02425,0.26575,0.0027465,-0.02931225,-0.00029,1741836207.228811
0.148,0.02075,0.25925,0.00242625,-0.02671825,-0.00061025,1741836207.2448692
0.143,0.01775,0.24675,0.00242625,-0.024688749,-0.000473,1741836207.257952
0.13225,0.017,0.21875,0.0022735,-0.02474975,-0.000885,1741836207.2724428
0.12675,0.02075,0.21075,-0.00016775,-0.024810748,-0.001709,1741836207.287043
0.113,0.0185,0.21075,-0.0017852499,-0.0247345,-0.00169375,1741836207.301643
0.10675,0.0125,0.21425,-0.0039215,-0.02500925,-0.00115975,1741836207.316268
0.10125,-0.0055,0.22575,-0.0034790002,-0.02534475,-0.00064075,1741836207.3309891
0.09575,-0.0105,0.23425,0.0013275,-0.025543248,0.00024425,1741836207.345532
0.085,0.00875,0.25325,0.00491325,-0.025360001,-0.00013725001,1741836207.360161
0.07925,0.01525,0.25425,0.00880425,-0.02452075,-0.0026092501,1741836207.3748312
0.08025,0.01525,0.245,0.007904,-0.023697,-0.00320425,1741836207.3891551
0.081,0.0115,0.24725,0.0019989999,-0.02336125,-0.001587,1741836207.4036758
0.06525,0.01,0.2425,-0.00146475,-0.023101749,-0.001236,1741836207.418277
0.057,0.0125,0.2315,-0.0043182503,-0.02313225,-0.00093075,1741836207.432898
0.035,0.01025,0.21,-0.007019,-0.027679501,0.00010675,1741836207.447341
0.02475,0.0035,0.21025,-0.0065612504,-0.03138725,0.00019825,1741836207.4618728
0.01625,-0.00275,0.21925,-0.00276175,-0.038147,0.0002135,1741836207.4764988
0.007,-0.0005,0.252,-0.00057975,-0.04049675,0.00071725,1741836207.491081
0.0035,0.00875,0.26875,0.00184625,-0.043716498,0.00093075,1741836207.507551
-0.0025,0.02375,0.294,0.00068675,-0.04470825,0.00061025,1741836207.520043
-0.0075,0.0295,0.303,-0.0041504996,-0.0430145,0.00035100002,1741836207.535131
-0.0185,0.02375,0.31675,-0.0059815003,-0.04148875,0.00083925005,1741836207.549365
-0.02025,0.0075,0.34375,-0.006775,-0.03622425,0.00254825,1741836207.564703
0.03025,-0.04375,0.496,-0.0043944996,-0.028885,0.0044555003,1741836207.57861
0.074,-0.06075,0.6175,0.0047607496,0.001175,0.0112,1741836207.5944362
0.15175,0.00875,0.954,0.0110015,0.02778625,0.01649475,1741836207.607771
0.1145,0.06575,1.0,0.029358,0.1109925,0.018280001,1741836207.621974
-0.26025,0.06025,0.97975,0.029251,0.15708925,0.014495751,1741836207.63643
-0.4625,-0.001,0.8635,0.0180665,0.19715875,0.01104725,1741836207.6509
-0.54025,-0.05575,0.70575,-0.00570675,0.23371875,0.0074615004,1741836207.6655302
-0.4885,0.07575,0.30975,-0.0031127501,0.22995,0.00372325,1741836207.68007
-0.4355,0.09025,0.129,0.00543225,0.2122955,-0.006302,1741836207.6947572
-0.3245,-0.06725,-0.28275,0.00390625,0.19972225,-0.0062407497,1741836207.709447
-0.29575,-0.0955,-0.52,0.0045777503,0.15522775,0.0030669998,1741836207.724905
-0.208,-0.0905,-0.80025,0.0073547503,0.1177215,0.0069580004,1741836207.7388
-0.141,-0.048,-0.7255,0.003891,0.02680975,0.010742251,1741836207.7534988
-0.01825,0.10975,-0.259,0.001526,-0.00587475,0.00747675,1741836207.7680871
0.05625,0.11775,-0.091,0.00367725,-0.030639749,-0.0061950004,1741836207.782793
0.21775,0.029,0.00525,0.00378425,-0.032333247,-0.008636501,1741836207.797368
0.27625,0.01525,0.04975,0.0025787498,-0.03344725,-0.00384525,1741836207.811878
0.32875,0.0385,0.1415,0.00213625,-0.032318,-0.0021515,1741836207.8263521
0.331,0.03725,0.14425,0.00064075,-0.0289765,-0.002411,1741836207.8408582
0.30975,-0.0035,0.0825,-0.0033264998,-0.02053825,-0.00555425,1741836207.858093
0.2995,-0.029,0.05525,-0.00352475,-0.017624,-0.006546,1741836207.8703969
0.2865,-0.04475,0.04125,-0.0013580001,-0.017028749,-0.0052642496,1741836207.885174
0.258,-0.04225,0.047,1.5250001e-05,-0.01747125,-0.0038757501,1741836207.8997152
0.24625,-0.03125,0.048,0.00201425,-0.01570125,-0.003006,1741836207.914758
0.224,-0.00825,0.0285,0.0009155,-0.016159,-0.0020599999,1741836207.928981
0.215,-0.00625,0.02375,-0.0025787498,-0.02064525,0.0005645,1741836207.944936
0.19925,-0.00225,0.0315,-0.0029145,-0.02247625,0.0007325,1741836207.958462
0.1975,0.00075,0.04075,-0.0053252503,-0.02807625,0.001587,1741836207.974928
0.20725,-0.00525,0.08,-0.0054932497,-0.029601999,0.002121,1741836207.9875782
0.21075,-0.00725,0.09525,-0.0030975002,-0.02810675,0.00157175,1741836208.0021918
0.21325,-0.01075,0.114,-0.002411,-0.02742,0.00108325,1741836208.016843
0.21175,-0.0115,0.1215,0.0019685,-0.02604675,-0.00157175,1741836208.031457
0.202,-0.0155,0.127,0.0042115003,-0.025055,-0.0033875,1741836208.0460448
0.202,-0.01975,0.127,0.00305175,-0.024078252,-0.00514225,1741836208.060769
0.2015,-0.0235,0.11975,0.00064075,-0.02374275,-0.0045625,1741836208.075447
0.20075,-0.02425,0.11375,-0.00314325,-0.02433775,-0.0016632499,1741836208.0901492
0.2,-0.02225,0.11825,-0.00279225,-0.025421249,-0.0004425,1741836208.1051898
0.19525,-0.01625,0.12775,-0.001068,-0.026764,0.00039675,1741836208.120001
0.19,-0.0065,0.151,-0.0020295,-0.02645875,0.00068675,1741836208.135233
0.187,-0.00475,0.15325,-0.0040587503,-0.025466999,0.00108325,1741836208.1492622
0.18,-0.0185,0.15,-0.0038757501,-0.02601625,0.001114,1741836208.1649
0.17625,-0.024,0.1605,-0.0032347501,-0.027542,0.0013275,1741836208.1784909
0.1725,-0.0185,0.17725,-0.001175,-0.0288085,0.0014037499,1741836208.194206
0.17625,0.00425,0.20475,-0.0016785001,-0.0282135,0.00125125,1741836208.207566
0.17275,0.00525,0.19825,-0.005005,-0.026550248,0.000763,1741836208.222247
0.16625,-0.00025,0.18125,-0.0053709997,-0.025543248,0.00016775,1741836208.2370088
0.15825,-0.0015,0.17675,-0.0037385002,-0.0272065,-0.0012207499,1741836208.25197
0.1405,-0.00375,0.17275,-0.00328075,-0.0298615,-0.00143425,1741836208.266669
0.1375,-0.007,0.18225,-0.0028687501,-0.034362752,0.00065625,1741836208.281344
0.12925,-0.00975,0.2025,-0.00325,-0.03480525,0.0015565,1741836208.2959812
0.12375,-0.008,0.207,-0.004593,-0.03474425,0.0017395001,1741836208.3104808
0.11175,0.00025,0.21575,-0.00561525,-0.035278253,0.00160225,1741836208.3251069
0.10575,0.0025,0.224,-0.00833125,-0.036026,0.0017242499,1741836208.339584
0.0965,-0.003,0.23325,-0.00868225,-0.036163248,0.00157175,1741836208.3541398
0.0885,-0.00125,0.231,-0.00747675,-0.037460253,0.00105275,1741836208.368804
0.0715,0.00675,0.215,-0.00715625,-0.039978,0.0018005001,1741836208.385227
0.06375,0.008,0.2065,-0.00798025,-0.04724125,0.0029449998,1741836208.3980951
0.049,0.0135,0.21425,-0.009216251,-0.049881,0.00242625,1741836208.41279
0.04325,0.016,0.2265,-0.0106965,-0.050536998,0.00169375,1741836208.427386
0.02575,0.01125,0.24,-0.01260375,-0.04765325,-0.00035100002,1741836208.441917
0.00425,0.00925,0.2445,-0.01380925,-0.04606625,-0.00148,1741836208.4574149
-0.0205,0.0155,0.24875,-0.0101775,-0.047409,-0.00054925,1741836208.471384
-0.04725,0.02975,0.262,-0.00463875,-0.0503845,0.00181575,1741836208.485933
-0.049,0.03125,0.284,0.0052185003,-0.054947,0.0069885002,1741836208.5005062
-0.00725,0.0155,0.39975,0.00717175,-0.05281075,0.00845325,1741836208.515061
0.0325,0.01825,0.487,0.008606,-0.03370675,0.0088195,1741836208.5296042
0.06,0.0485,0.60025,0.0091705,-0.01838675,0.0068207504,1741836208.544771
0.066,0.045,0.67675,0.0078735,0.0222015,0.0063934997,1741836208.5585558
0.074,0.04375,0.8805,0.009597749,0.0489655,0.0075682504,1741836208.574701
0.02625,0.0625,0.94275,0.02041625,0.116104,0.00308225,1741836208.587308
-0.1635,0.0875,0.92525,0.02708425,0.153778,-0.00317375,1741836208.6019251
-0.26475,0.0565,0.855,0.03186025,0.19013976,-0.0086975,1741836208.616499
-0.351,-0.05275,0.63875,0.029571502,0.2331085,-0.0042115003,1741836208.631145
-0.3815,-0.03075,0.48025,0.0202485,0.23338325,0.00343325,1741836208.645969
-0.4095,0.0225,0.30325,-0.010727,0.21313475,0.00833125,1741836208.660476
-0.41575,-0.052,-0.1105,-0.022049,0.19862375,0.004547,1741836208.6751308
-0.40575,-0.09975,-0.40275,-0.01800525,0.15904225,-0.00325,1741836208.689953
-0.2925,-0.10525,-0.80425,-0.0075835,0.13070676,-0.00369275,1741836208.704726
-0.227,-0.061,-0.785,0.01197825,0.047638,-0.000229,1741836208.719541
-0.0935,0.053,-0.41925,0.01322925,0.0073395,0.0012207499,1741836208.73454
-0.0165,0.083,-0.25175,0.0075072497,-0.037841752,-0.0012817499,1741836208.748862
0.15775,0.04775,-0.02275,0.0066985004,-0.045043997,-0.0020752498,1741836208.764641
0.235,0.04675,0.07875,0.0038605002,-0.040710498,-0.000473,1741836208.7780569
0.34325,0.038,0.16675,-0.00029,-0.03331,-0.00033575002,1741836208.7947688
0.3725,0.00425,0.1495,-0.0046234997,-0.02000425,-0.0028687501,1741836208.808237
0.36,-0.05475,0.0705,-0.003891,-0.0174865,-0.00325,1741836208.822256
0.3265,-0.0565,0.031,-0.00146475,-0.016983,-0.0020905002,1741836208.837034
0.2555,-0.04225,-0.016,-6.1000002e-05,-0.017883249,-0.001892,1741836208.8517919
0.23725,-0.0395,-0.01325,0.0029449998,-0.02114875,-0.00238025,1741836208.866534
0.229,-0.034,0.02875,0.00416575,-0.02351375,-0.00184625,1741836208.881186
0.22625,-0.02775,0.0435,0.00029,-0.030136,0.002411,1741836208.895728
0.2205,-0.01825,0.06425,-0.0004425,-0.02958675,0.0036010002,1741836208.910398
0.21075,-0.0155,0.048,0.001068,-0.026702998,0.0031585,1741836208.925094
0.18925,-0.01625,-0.009,3.0500001e-05,-0.02911375,0.0034942501,1741836208.939627
0.183,-0.0155,-0.01925,-0.00154125,-0.033584498,0.0042725,1741836208.9544199
0.17525,0.0,0.0265,-0.004776,-0.043762248,0.0054932497,1741836208.9690518
0.1675,0.00925,0.0605,-0.0061950004,-0.0473175,0.00555425,1741836208.9843268
0.1605,0.00425,0.08725,-0.006363,-0.04872125,0.0049895,1741836208.998045
0.16725,-0.0325,0.12975,-0.00399775,-0.048935,0.0047912505,1741836209.012631
0.173,-0.03975,0.14375,0.00251775,-0.0500945,0.00276175,1741836209.02717
0.167,-0.02725,0.15375,0.0027312501,-0.050918497,0.00239575,1741836209.041724
0.159,-0.01625,0.15925,-0.0029907501,-0.051101748,0.00390625,1741836209.057339
0.148,0.01025,0.1795,-0.0059205,-0.049118,0.004074,1741836209.071053
0.1465,0.01375,0.19925,-0.00697325,-0.043640252,0.0043639997,1741836209.0856478
0.15575,-0.01025,0.25725,-0.0054015,-0.040283248,0.0044555003,1741836209.100209
0.167,-0.0125,0.27375,-0.000229,-0.030548,0.002411,1741836209.114938
0.17325,-0.00075,0.26475,0.00093075,-0.025512751,0.00119025,1741836209.129469
0.16675,0.0115,0.24875,-0.002472,-0.018859752,0.0010375,1741836209.144831
0.1425,0.034,0.21325,-0.00491325,-0.01805125,0.0021057501,1741836209.1585548
0.134,0.034,0.2015,-0.00662225,-0.019638,0.0033875,1741836209.174807
0.12775,0.02425,0.1955,-0.0072937496,-0.025115998,0.00334175,1741836209.1875572
0.1305,-0.0035,0.225,-0.0052947504,-0.0260315,0.0025634998,1741836209.202139
0.13475,-0.005,0.25025,0.0012665,-0.0246125,0.00137325,1741836209.216745
0.1255,0.01675,0.2725,0.0027465,-0.023071252,0.000473,1741836209.231244
0.11775,0.02075,0.2675,0.0003205,-0.020904498,-0.000122000005,1741836209.245934
0.10725,0.01625,0.237,-0.001526,-0.021041749,0.00030525,1741836209.2604742
0.10325,0.01225,0.22175,-0.004486,-0.024292,0.0004425,1741836209.2750652
0.095,0.017,0.209,-0.0052337497,-0.02633675,-6.1000002e-05,1741836209.289763
0.08625,0.0235,0.21425,-0.00367725,-0.029693501,-0.00010675,1741836209.304354
0.07075,0.02625,0.235,-0.00254825,-0.03155525,-4.575e-05,1741836209.319038
0.0685,0.02075,0.2415,-0.0017242499,-0.035675,-0.0009155,1741836209.334759
0.054,0.006,0.24875,-0.001892,-0.037323,-0.001236,1741836209.348368
0.0395,0.005,0.247,-0.00320425,-0.04072575,-0.00163275,1741836209.363044
0.02525,0.002,0.26375,-0.0039825,-0.0430145,-0.00086975005,1741836209.3776388
0.026,0.008,0.287,-0.003952,-0.04492175,0.00059500005,1741836209.392156
0.017,0.039,0.29925,-0.000229,-0.046584997,0.00064075,1741836209.407368
0.00475,0.042,0.2855,0.00149525,-0.04682925,-0.00061025,1741836209.421149
-0.011,0.03275,0.27325,0.0019225,-0.04783625,-0.0023345,1741836209.435765
-0.04825,0.016,0.278,0.0015105,-0.049087502,-0.00204475,1741836209.4504478
-0.06775,0.00875,0.307,0.00402825,-0.0500945,0.00119025,1741836209.465064
-0.04825,-0.02125,0.5205,0.00694275,-0.045868002,0.0044707498,1741836209.479862
0.02675,-0.02625,0.733,0.01893625,-0.01216125,0.014221249,1741836209.494592
0.1565,0.0695,1.0,0.03022775,0.02345275,0.01667775,1741836209.5086012
0.05325,0.11825,1.0,0.0384675,0.1242675,0.0078735,1741836209.5246668
-0.306,0.0645,0.957,0.02490225,0.17176825,0.00033575002,1741836209.53724
-0.42175,-0.0475,0.8515,0.0058135,0.24002075,-0.00016775,1741836209.551947
-0.48675,-0.12725,0.56125,0.0125275,0.25729376,0.00747675,1741836209.5664918
-0.518,-0.0375,0.4285,0.0239715,0.26493827,0.0158385,1741836209.580964
-0.62475,0.066,0.125,0.025115998,0.258957,0.02038575,1741836209.595476
-0.65025,-0.00325,-0.169,0.0078125,0.24317925,0.01756275,1741836209.6100311
-0.63175,-0.07075,-0.5345,-0.015396,0.1837615,0.01345825,1741836209.624871
-0.487,-0.05375,-0.94975,-0.01033025,0.137329,0.011078,1741836209.639601
-0.41975,-0.00725,-0.89,0.00314325,0.0185395,0.00640875,1741836209.654134
-0.248,0.1195,-0.462,0.0044707498,-0.028,0.0026092501,1741836209.668767
-0.1445,0.137,-0.30525,-0.00267025,-0.07362375,-0.0078125,1741836209.685256
0.112,0.06375,-0.046,-0.009201,-0.0821075,-0.00846875,1741836209.698231
0.2355,0.0365,0.10075,-0.0041044997,-0.07684325,-0.009491,1741836209.714426
0.3855,-0.01975,0.295,-0.0041810004,-0.06965625,-0.009796251,1741836209.7275531
0.41675,-0.0555,0.322,-0.01599125,-0.05340575,-0.00062550005,1741836209.742204
0.40275,-0.075,0.22975,-0.019104,-0.04391475,0.00119025,1741836209.7577899
0.368,-0.07325,0.158,-0.0062407497,-0.03158575,-0.00399775,1741836209.771626
0.28875,-0.06175,0.072,0.00325,-0.030243,-0.00567625,1741836209.7861362
0.25575,-0.0495,0.05725,0.010376001,-0.028594999,-0.0046845004,1741836209.800781
0.21575,-0.037,0.0685,0.008285499,-0.027893,-0.00328075,1741836209.815446
0.2165,-0.029,0.099,0.0019989999,-0.029953,0.00090025004,1741836209.829998
0.2235,-0.0255,0.14275,0.0040435,-0.02778625,0.00125125,1741836209.8451111
0.213,-0.02825,0.126,0.0067902496,-0.02345275,0.000412,1741836209.859017
0.204,-0.025,0.104,0.0042572496,-0.0220185,-0.00039675,1741836209.8748999
0.18525,-0.01425,0.0725,0.00125125,-0.0247345,0.00027475,1741836209.888198
0.1755,-0.007,0.06675,-0.003662,-0.029129,0.0021057501,1741836209.9028559
0.1655,-0.00475,0.09575,-0.00469975,-0.030548,0.00302125,1741836209.917407
0.1725,-0.01725,0.13125,-0.002411,-0.02948,0.0038605002,1741836209.932137
0.194,-0.0335,0.1855,-0.00059500005,-0.02687075,0.002884,1741836209.946787
0.19925,-0.033,0.191,-0.00030525,-0.022064252,0.0007325,1741836209.9614441
0.201,-0.02625,0.177,-0.0016785001,-0.021469,0.00071725,1741836209.976147
0.194,-0.02425,0.15825,-0.00434875,-0.02050775,0.00125125,1741836209.990726
0.18325,-0.0185,0.14275,-0.004547,-0.020629998,0.0009765,1741836210.005431
0.18225,-0.017,0.15175,-0.0034790002,-0.0223235,-0.00036625,1741836210.0201979
0.1825,-0.02075,0.17625,-0.00216675,-0.022491502,-0.0008545,1741836210.034928
0.178,-0.02475,0.181,9.15e-05,-0.02095025,-0.00187675,1741836210.0494652
0.1745,-0.025,0.18825,-0.00030525,-0.020874001,-0.0010375,1741836210.065082
0.16925,-0.02225,0.18625,-0.00320425,-0.02487175,0.001648,1741836210.078646
0.15225,-0.014,0.17775,-0.0047607496,-0.026702998,0.002365,1741836210.094817
0.14975,-0.007,0.182,-0.00570675,-0.02835075,0.00302125,1741836210.108098
0.149,-0.00025,0.19,-0.005539,-0.0318755,0.00328075,1741836210.122406
0.13975,0.00425,0.204,-0.00488275,-0.03274525,0.00263975,1741836210.1368299
0.13175,0.00225,0.20775,-0.00384525,-0.032348752,0.00109875,1741836210.1514602
0.1155,-0.00325,0.2105,-0.0040435,-0.032486,0.00109875,1741836210.1661131
0.10725,-0.008,0.20875,-0.0043639997,-0.03541575,0.0013275,1741836210.180761
0.08975,-0.022,0.2055,-0.00411975,-0.037735,0.0012055,1741836210.195337
0.084,-0.022,0.21225,-0.0032195,-0.042831503,0.0013885,1741836210.2098281
0.07075,-0.01025,0.235,-0.0028535,-0.044616748,0.00125125,1741836210.224462
0.0645,-0.0015,0.25075,-0.003006,-0.045898497,0.00105275,1741836210.2390862
0.05575,0.00975,0.269,-0.0040435,-0.04679875,0.000763,1741836210.253676
0.04775,0.0165,0.269,-0.00665275,-0.0502625,-0.0008545,1741836210.268212
0.03525,0.01425,0.2665,-0.0073395,-0.051864497,-0.00157175,1741836210.282846
0.01625,0.00125,0.2675,-0.0065155,-0.05252075,-0.0046234997,1741836210.29745
-0.0135,-0.00225,0.25675,-0.0053252503,-0.05270375,-0.0056915004,1741836210.312435
-0.0205,0.00525,0.2515,-0.0043639997,-0.0542755,-0.0051880004,1741836210.327211
-0.04325,0.01725,0.24825,-0.0021057501,-0.06077575,-0.0002135,1741836210.341912
-0.05075,0.01225,0.2555,-0.001236,-0.0639495,0.0020599999,1741836210.357812
-0.0525,-0.0,0.3545,-0.033432,-0.06973275,0.004837,1741836210.371136
-0.0475,0.09125,0.422,-0.06437675,-0.0698395,0.0072632497,1741836210.3857439
-0.051,0.07675,0.482,-0.0256195,-0.029129,0.012176501,1741836210.400504
0.0365,-0.04425,0.84575,0.0234375,0.0045165,0.012909001,1741836210.414998
0.106,0.04275,1.0,0.0595855,0.07089225,0.01095575,1741836210.4293098
-0.07275,0.26825,0.98075,0.044342,0.10337825,0.007187,1741836210.4444082
-0.25125,0.22225,0.8735,0.0033264998,0.1872405,-0.00982675,1741836210.458347
-0.42025,-0.0535,0.67775,-0.00054925,0.2299805,-0.01747125,1741836210.474491
-0.428,-0.0895,0.5625,0.027481,0.261917,-0.01579275,1741836210.487775
-0.41475,0.03125,0.30075,0.03756725,0.24937426,-0.0135345,1741836210.502351
-0.42675,0.05125,0.12325,0.014557,0.19514474,-0.00668325,1741836210.516945
-0.391,-0.0575,-0.375,0.00030525,0.1659545,-0.00068675,1741836210.531648
-0.34425,-0.09625,-0.597,-0.00738525,0.11195375,0.00852975,1741836210.5462232
-0.20875,-0.0385,-0.683,-0.00868225,0.081024244,0.009613,1741836210.560946
-0.1335,-0.00475,-0.55425,-0.0091095,0.04467775,0.00823975,1741836210.57568
0.039,0.05825,-0.1825,-0.002472,-0.016235251,0.00119025,1741836210.590231
0.12425,0.0505,-0.05275,0.00340275,-0.02908325,-0.0030975002,1741836210.6048121
0.19675,0.02425,0.01675,0.0047607496,-0.034225497,-0.006607,1741836210.619452
0.283,-0.00425,0.09225,0.0007325,-0.032897998,-0.0054932497,1741836210.634568
0.31,-0.004,0.1375,-0.003662,-0.02845775,-0.00270075,1741836210.648739
0.341,-0.025,0.19775,-0.0028687501,-0.02513125,-0.0026854998,1741836210.664778
0.342,-0.0415,0.19925,-0.00068675,-0.01374825,-0.00314325,1741836210.6782331
0.3155,-0.06025,0.1525,-0.00125125,-0.0074920002,-0.00198375,1741836210.69463
0.2955,-0.0625,0.11275,-0.0017242499,0.00102225,0.002121,1741836210.707454
0.256,-0.048,0.0455,-0.00071725,0.00204475,0.00314325,1741836210.722015
0.23825,-0.031,0.02625,0.00086975005,-0.00086975005,0.0033264998,1741836210.7365508
0.22075,-0.002,0.0265,0.000534,-0.002655,0.0033722501,1741836210.7510169
0.2185,0.003,0.0365,-0.00029,-0.0050355,0.00225825,1741836210.7654881
0.21725,-0.003,0.055,-0.00036625,-0.0059510004,0.0014037499,1741836210.780123
0.21625,-0.00725,0.06,-0.00074775,-0.00839225,0.00115975,1741836210.794868
0.21675,-0.01475,0.07075,-0.0009155,-0.00897225,0.0017395001,1741836210.8092659
0.21325,-0.01525,0.07025,-0.00109875,-0.009002751,0.00242625,1741836210.824863
0.209,-0.01525,0.06325,-0.00169375,-0.0099945,0.0026092501,1741836210.838465
0.2065,-0.01825,0.0415,-0.00204475,-0.011901749,0.0024414998,1741836210.8530931
0.2045,-0.0205,0.03575,-0.00231925,-0.01599125,0.00289925,1741836210.86762
0.20525,-0.01725,0.05575,-0.0022277501,-0.0177155,0.00314325,1741836210.882313
0.2085,-0.01325,0.07175,-0.0015105,-0.020034749,0.0026245,1741836210.896806
0.213,-0.0095,0.08825,-0.0016632499,-0.02105725,0.0020905002,1741836210.9114182
0.21225,-0.01375,0.08975,-0.0028687501,-0.0229035,0.002121,1741836210.926125
0.206,-0.03,0.09025,-0.00276175,-0.02360525,0.00263975,1741836210.94081
0.20825,-0.03175,0.104,-0.000763,-0.025970502,0.00334175,1741836210.957582
0.2135,-0.0155,0.1335,-0.00029,-0.0273895,0.0032655,1741836210.97008
0.20825,-0.00675,0.134,-0.003296,-0.028411752,0.0038299998,1741836210.985387
0.20925,0.011,0.1445,-0.0042115003,-0.02763375,0.0040435,1741836210.99904
0.202,0.007,0.14825,-0.00154125,-0.024475,0.00276175,1741836211.014473
0.19125,-0.00325,0.15675,-0.00077825,-0.02389525,0.002365,1741836211.028098
0.1925,-0.006,0.16325,-0.00064075,-0.02436825,0.0025787498,1741836211.0427258
0.18875,-0.00325,0.1615,-0.00108325,-0.02522275,0.0028687501,1741836211.057471
0.18325,0.0015,0.15525,-0.0017852499,-0.02557375,0.00279225,1741836211.0719192
0.1765,0.00525,0.14825,-0.00453175,-0.0279235,0.0029145,1741836211.086637
0.16375,0.0045,0.14775,-0.0059510004,-0.0300445,0.0028074998,1741836211.101137
0.161,0.002,0.15875,-0.0062712496,-0.035492,0.0021819999,1741836211.115722
0.1535,-0.011,0.188,-0.0051269997,-0.038085997,0.0020905002,1741836211.13045
0.1505,-0.01625,0.203,-0.00184625,-0.041031,0.0037079998,1741836211.145132
0.13675,-0.0045,0.21275,-0.00086975005,-0.041320752,0.0045012496,1741836211.1596391
0.12725,0.00025,0.2125,-0.00469975,-0.041214,0.0056609996,1741836211.174832
0.11625,-0.007,0.2215,-0.0065002497,-0.041275002,0.0063325,1741836211.18871
0.11425,-0.00425,0.23025,-0.0038605002,-0.040512,0.00579825,1741836211.203317
0.103,0.0205,0.23575,-0.001831,-0.040237498,0.0044707498,1741836211.217818
0.093,0.029,0.23425,-0.001175,-0.040802,0.002884,1741836211.232439
0.07975,0.033,0.2405,-0.0024872501,-0.04129025,0.0030365,1741836211.247023
0.07125,0.02675,0.2425,-0.00358575,-0.04164125,0.0033722501,1741836211.2614489
0.06075,0.02325,0.243,-0.00402825,-0.041961752,0.0028229998,1741836211.276049
0.04075,0.01025,0.2355,-0.0036010002,-0.0431365,0.0026092501,1741836211.290543
0.02975,0.00175,0.23375,-0.001648,-0.046997003,0.0025787498,1741836211.305027
0.008,0.01275,0.2425,-0.000183,-0.048584,0.00231925,1741836211.319564
0.001,0.02875,0.2455,0.0015565,-0.05078125,-0.00029,1741836211.335078
-0.03,0.04775,0.248,0.0023039998,-0.051818747,-0.0016632499,1741836211.348635
-0.04075,0.0415,0.24875,0.0019685,-0.05537425,-0.0012665,1741836211.3645928
-0.04025,0.023,0.2805,0.0012055,-0.056808498,-6.1000002e-05,1741836211.377803
-0.0275,0.006,0.3355,0.0020905002,-0.0537415,0.0040435,1741836211.392433
0.05675,-0.04775,0.6225,0.0032655,-0.04403675,0.007599,1741836211.407878
0.12725,-0.0265,0.8275,0.0135955,0.00567625,0.0159455,1741836211.42146
0.106,0.13575,1.0,0.0215455,0.04296875,0.01716625,1741836211.4357471
-0.0425,0.183,0.98725,0.02452075,0.083221495,0.0142365,1741836211.450277
-0.185,0.15475,0.8785,0.011550999,0.16000375,-0.00505075,1741836211.4648478
-0.335,-0.03975,0.6925,0.0069885002,0.195694,-0.0142365,1741836211.479489
-0.3415,-0.0815,0.61875,0.023940999,0.23904425,-0.019714251,1741836211.4949539
-0.33875,0.02575,0.43675,0.0355225,0.24113475,-0.01811225,1741836211.508663
-0.3455,0.0385,0.30025,0.02607725,0.22212225,-0.008377,1741836211.5250401
-0.3385,-0.0635,-0.09225,0.0105742505,0.20677175,-0.0021819999,1741836211.537997
-0.3295,-0.08725,-0.33,-0.0059815003,0.16201775,0.01062,1741836211.55282
-0.25575,-0.035,-0.668,-0.010559,0.128296,0.013931249,1741836211.567747
-0.19675,-0.00925,-0.67825,-0.01570125,0.04830925,0.010681249,1741836211.582459
-0.05675,0.05225,-0.4035,-0.012313751,0.012375,0.0062255003,1741836211.597107
0.02475,0.073,-0.22575,-0.0021972498,-0.030716,-0.0028535,1741836211.611681
0.154,0.04175,-0.0505,-0.0010375,-0.03689575,-0.00460825,1741836211.626457
0.2055,0.0235,-0.009,-0.0063325,-0.032409754,-0.0018615,1741836211.641345
0.287,0.00075,0.064,-0.0077210004,-0.02920525,-0.00019825,1741836211.657894
0.31375,-0.01425,0.09375,-0.005005,-0.0254975,-0.00019825,1741836211.6705081
0.331,-0.05,0.11825,-0.0042572496,-0.023346001,-0.00033575002,1741836211.685618
0.3275,-0.05925,0.115,-0.0042267498,-0.01728825,0.00061025,1741836211.6999922
0.29675,-0.05025,0.09225,-0.0028687501,-0.014038,0.00061025,1741836211.71472
0.27625,-0.043,0.077,0.001114,-0.0078125,-7.625e-05,1741836211.7292612
0.2475,-0.0445,0.0355,0.0020295,-0.0058899997,-0.00013725001,1741836211.744677
0.2395,-0.04675,0.0175,0.0019685,-0.0054015,0.00030525,1741836211.758504
0.2315,-0.04275,0.00225,0.0013275,-0.008194,0.0017852499,1741836211.7747982
0.216,-0.0215,-0.0125,0.00045775,-0.010498,0.0028229998,1741836211.78768
0.21275,-0.01125,-0.00725,-0.001892,-0.01531975,0.0047150003,1741836211.8023858
0.21075,0.0015,0.0135,-0.00198375,-0.0174865,0.004837,1741836211.8169851
0.21075,0.004,0.025,-0.0028535,-0.021179251,0.00367725,1741836211.831614
0.2125,-0.01075,0.0525,-0.0038605002,-0.02244575,0.0036162501,1741836211.846308
0.21575,-0.017,0.06775,-0.00225825,-0.0228425,0.0034484998,1741836211.860872
0.222,-0.03125,0.0885,-0.00062550005,-0.02268975,0.0035095,1741836211.875503
0.2255,-0.03025,0.0935,0.00067150005,-0.021514999,0.00369275,1741836211.889963
0.22925,-0.0125,0.086,4.575e-05,-0.02105725,0.00283825,1741836211.904533
0.2265,0.001,0.075,-0.0042115003,-0.0219575,0.0023345,1741836211.919041
0.20975,0.0025,0.052,-0.006546,-0.02278125,0.002533,1741836211.935078
0.2005,-0.00675,0.0515,-0.00889575,-0.0253295,0.0028687501,1741836211.94827
0.2035,-0.00875,0.0925,-0.00897225,-0.0274505,0.00340275,1741836211.962879
0.20925,-0.00325,0.12075,-0.00862125,-0.029022248,0.00396725,1741836211.9775941
0.2165,0.006,0.15375,-0.00738525,-0.02731325,0.00372325,1741836211.992248
0.21825,0.006,0.15225,-0.0069274995,-0.026000999,0.0035704998,1741836212.007263
0.21425,0.00225,0.1425,-0.00794975,-0.026062,0.0045012496,1741836212.0213
0.19925,-0.002,0.1275,-0.00880425,-0.026855499,0.0052337497,1741836212.035883
0.1915,0.001,0.12725,-0.0076142503,-0.028594999,0.0052185003,1741836212.050412
0.18825,0.00775,0.152,-0.0060882503,-0.02911375,0.0046539996,1741836212.065022
0.19075,0.0145,0.16925,-0.0038299998,-0.027893,0.0027160002,1741836212.079541
0.19125,0.01425,0.1815,-0.00343325,-0.026657,0.0017395001,1741836212.094448
0.186,0.00875,0.17675,-0.0032195,-0.02534475,0.00057975,1741836212.108516
0.1675,0.004,0.158,-0.0036315,-0.02589425,0.00051875,1741836212.1245718
0.16,0.00025,0.15325,-0.0051880004,-0.028991751,0.0017852499,1741836212.13752
0.1525,0.0015,0.166,-0.0049895,-0.0308685,0.00279225,1741836212.15198
0.15025,0.01,0.1775,-0.00419625,-0.032486,0.00354,1741836212.166535
0.144,0.03,0.1955,-0.0047302498,-0.0345155,0.00328075,1741836212.1811159
0.13925,0.03075,0.2005,-0.006363,-0.035049498,0.00302125,1741836212.1957061
0.1335,0.024,0.20425,-0.008255,-0.036209,0.00408925,1741836212.2104142
0.11825,0.01225,0.20375,-0.0081025,-0.03730775,0.00514225,1741836212.22512
0.10675,0.01075,0.19525,-0.00640875,-0.042221002,0.005783,1741836212.239715
0.086,0.0,0.2025,-0.0052185003,-0.0457915,0.0054015,1741836212.254226
0.07925,0.005,0.22425,-0.00109875,-0.051468,0.0051574996,1741836212.2688289
0.0595,0.03775,0.2445,0.00070200005,-0.053512502,0.00488275,1741836212.284575
0.05325,0.0535,0.237,-0.00289925,-0.0581055,0.0061035,1741836212.2977731
0.025,0.0555,0.227,-0.00741575,-0.060135,0.00668325,1741836212.312264
0.0005,0.04725,0.22825,-0.012909001,-0.06520075,0.0069885002,1741836212.326716
-0.0285,0.02675,0.2335,-0.013137749,-0.0691375,0.00785825,1741836212.341326
-0.035,0.01575,0.264,-0.010253999,-0.074585,0.0078735,1741836212.356997
0.0015,0.02575,0.4505,-0.0075225,-0.071579,0.008651749,1741836212.37049
0.052,0.04575,0.61325,-0.002411,-0.0609435,0.011260999,1741836212.3849568
0.113,0.08825,0.7985,0.012634249,-0.009842,0.01278675,1741836212.399384
0.11225,0.23575,1.0,0.018280001,0.029876752,0.0064545004,1741836212.4146738
-0.01075,0.25325,0.996,0.00982675,0.117446996,-0.017151,1741836212.428326
-0.20725,0.14675,0.755,-0.00064075,0.1566315,-0.0302735,1741836212.444663
-0.24525,0.10325,0.652,0.0039215,0.204605,-0.04989625,1741836212.457768
-0.28375,0.07775,0.40925,0.01368725,0.207718,-0.054428,1741836212.471978
-0.28325,0.01425,0.2455,0.001526,0.1936645,-0.04629525,1741836212.486441
-0.24925,-0.13675,-0.16625,-0.013382,0.17997749,-0.035827752,1741836212.501344
-0.21525,-0.15125,-0.33375,-0.025466999,0.13241576,-0.013778751,1741836212.51614
-0.14,-0.13725,-0.4625,-0.023056,0.10357675,-0.00697325,1741836212.5310478
-0.10525,-0.12425,-0.45775,-0.0105742505,0.04768375,-7.625e-05,1741836212.5459268
-0.02075,-0.02575,-0.31875,-0.00788875,0.0228425,0.00343325,1741836212.560653
0.03275,0.02025,-0.22,-0.0057525,-0.01104725,0.008788999,1741836212.575444
0.135,0.03825,-0.05225,-0.0037079998,-0.019806,0.009277251,1741836212.590057
0.19325,0.0405,0.03925,-0.001236,-0.02763375,0.0080415,1741836212.6047301
0.304,0.059,0.19675,0.0010375,-0.0272675,0.00517275,1741836212.619324
0.33875,0.04825,0.2365,0.00367725,-0.0247955,0.00112925,1741836212.635165
0.35225,0.02225,0.244,0.0077972496,-0.014923001,-0.00590525,1741836212.6482391
0.31925,-0.0205,0.16675,0.008850001,-0.00930775,-0.00688175,1741836212.66277
0.2895,-0.02675,0.10825,0.007843,-0.00364675,-0.0044555003,1741836212.677501
0.241,-0.01575,0.0315,0.00791925,-0.0047607496,-0.00334175,1741836212.692109
0.22675,-0.00525,0.022,0.00947575,-0.010803251,-0.0028535,1741836212.707998
0.223,0.0045,0.052,0.009002751,-0.01307675,-0.0025634998,1741836212.721199
0.226,0.007,0.07275,0.0070495,-0.0135345,-0.00181575,1741836212.735744
0.22025,0.00275,0.076,0.0065002497,-0.013153,-0.00125125,1741836212.750228
0.2145,-0.00225,0.066,0.004547,-0.0142365,0.00070200005,1741836212.7648268
0.1985,-0.009,0.04475,0.0043335,-0.01658625,0.0015105,1741836212.779349
0.1905,-0.0085,0.04775,0.00621025,-0.02301025,0.00228875,1741836212.79507
0.18925,-0.00625,0.10125,0.007599,-0.02490225,0.002411,1741836212.8087199
0.19675,-0.002,0.13825,0.00982675,-0.023254499,0.0018615,1741836212.824853
0.20875,-0.003,0.15775,0.0095672505,-0.020813,0.00149525,1741836212.837795
0.20825,-0.00875,0.1435,0.00773625,-0.018753,0.00163275,1741836212.852306
0.2045,-0.01425,0.12325,0.0026854998,-0.01814275,0.0033570002,1741836212.866967
0.19175,-0.01825,0.08,0.001587,-0.01976025,0.00402825,1741836212.881653
0.18475,-0.019,0.0785,0.00231925,-0.025421249,0.0043944996,1741836212.896225
0.1965,-0.0075,0.149,0.00444025,-0.02680975,0.00378425,1741836212.91071
0.206,-0.0015,0.18075,0.010604749,-0.02418525,0.00160225,1741836212.925366
0.2015,-0.001,0.192,0.01048275,-0.022033751,0.0016175,1741836212.94
0.19625,-0.00325,0.1745,0.00408925,-0.018753,0.0027312501,1741836212.954539
0.18225,-0.00475,0.1325,0.0022125002,-0.018585252,0.003296,1741836212.968996
0.17375,-0.0095,0.1245,0.0002135,-0.02278125,0.00505075,1741836212.9846132
0.16975,-0.0055,0.159,-0.00086975005,-0.0256195,0.0061645,1741836212.998091
0.17225,0.0045,0.1905,0.0009765,-0.026702998,0.003952,1741836213.012588
0.17475,0.00575,0.228,0.00175475,-0.024826,0.0019225,1741836213.027115
0.1725,0.00275,0.22475,0.00105275,-0.023040751,0.0012055,1741836213.041628
0.15375,0.00025,0.193,-0.0028687501,-0.02256775,0.00187675,1741836213.058506
0.14325,-0.00425,0.17425,-0.004593,-0.023925751,0.0020752498,1741836213.070761
0.1345,-0.008,0.16325,-0.0048674997,-0.029449498,0.001892,1741836213.085393
0.12675,0.001,0.178,-0.0039215,-0.0328675,0.00143425,1741836213.100023
0.12475,0.00425,0.1975,-0.00308225,-0.038269002,0.00137325,1741836213.114829
0.1265,0.0055,0.23675,-0.003418,-0.03958125,0.002472,1741836213.129081
0.12625,0.00625,0.2445,-0.00460825,-0.03898625,0.0030975002,1741836213.144889
0.107,0.00175,0.2425,-0.00419625,-0.037155252,0.0019225,1741836213.158443
0.09125,-0.001,0.2355,-0.00143425,-0.03471375,-0.0012817499,1741836213.1746612
0.069,0.00025,0.222,-0.000412,-0.03598025,-0.0020295,1741836213.187808
0.06575,-0.00225,0.2295,6.1000002e-05,-0.041153,0.000183,1741836213.202296
0.07625,0.007,0.27775,-0.0004425,-0.04176325,0.00157175,1741836213.216817
0.07175,0.01825,0.29175,-0.001587,-0.03837575,0.001831,1741836213.231423
0.048,0.0225,0.2765,-0.0032195,-0.037506,0.00187675,1741836213.246051
0.0405,0.0195,0.26325,-0.00538625,-0.03762825,0.00193775,1741836213.260542
0.0265,0.01925,0.24875,-0.0063934997,-0.0383605,0.00077825,1741836213.27499
0.0185,0.0165,0.246,-0.0044555003,-0.03869625,0.00013725001,1741836213.289529
0.0095,0.01225,0.24725,0.001114,-0.03958125,-0.000824,1741836213.303963
-0.00225,0.016,0.28075,0.00238025,-0.040527247,-0.0007325,1741836213.318497
0.00125,0.02625,0.31475,0.0015105,-0.03878775,0.001007,1741836213.3329148
0.02725,0.008,0.41175,0.0018005001,-0.03433225,0.0020905002,1741836213.347384
0.0565,-0.01825,0.49325,0.0017395001,-0.014434749,0.0072480002,1741836213.362093
0.07475,0.0225,0.6405,0.00325,0.0024872501,0.0084379995,1741836213.376423
0.062,0.04,0.67975,0.010299751,0.0451965,0.00276175,1741836213.390826
0.03,0.0105,0.7785,0.011627249,0.06953425,-0.00131225,1741836213.405451
-0.0085,-0.0005,0.762,0.0216675,0.12615976,-0.013321,1741836213.4200718
-0.08,-0.0235,0.651,0.02873225,0.15419,-0.01832575,1741836213.4346979
-0.09375,-0.03425,0.626,0.0345155,0.17613225,-0.01791375,1741836213.449321
-0.1275,-0.0255,0.57125,0.0394135,0.19776925,-0.0022277501,1741836213.4648051
-0.2005,0.01525,0.39275,0.0332185,0.20031725,0.008148249,1741836213.4784052
-0.227,-0.014,0.278,0.009613,0.1904145,0.018615749,1741836213.4946508
-0.275,-0.08475,-0.128,0.002884,0.175888,0.0187835,1741836213.5084171
-0.27375,-0.048,-0.346,-0.008590749,0.12533575,0.0237885,1741836213.522412
-0.222,0.03525,-0.5525,-0.01693725,0.0933075,0.02487175,1741836213.537003
-0.17875,0.05675,-0.5255,-0.0070037497,0.0378265,0.0089569995,1741836213.551728
-0.0755,0.064,-0.32575,0.0021972498,0.015533499,-0.0007325,1741836213.566329
-0.01075,0.0515,-0.21975,0.00437925,-0.01368725,-0.00567625,1741836213.5809789
0.11225,0.0295,-0.08975,0.0021819999,-0.019989,-0.0035704998,1741836213.595619
0.17475,0.02325,-0.04575,-0.0067445002,-0.02604675,0.0014495,1741836213.610223
0.29125,0.0255,0.08,-0.00930775,-0.02845775,0.00296025,1741836213.6249611
0.33125,0.0145,0.135,-0.0073547503,-0.02778625,0.00065625,1741836213.639206
0.3465,-0.023,0.12325,-0.0044555003,-0.023956249,-0.00305175,1741836213.6538801
0.33175,-0.037,0.09625,-0.0012970001,-0.019989,-0.0062865,1741836213.668571
0.2965,-0.035,0.068,0.0037385002,-0.014800999,-0.00817875,1741836213.683224
0.2775,-0.03325,0.04525,0.0041044997,-0.0137635,-0.0067445002,1741836213.697813
0.25875,-0.02925,0.01725,0.0014495,-0.013336251,-0.0028074998,1741836213.712399
0.22875,-0.01175,-0.0185,0.00033575002,-0.015090999,-0.00187675,1741836213.72706
0.217,-0.004,-0.02575,-0.0012665,-0.02333075,-0.00239575,1741836213.7418802
0.19625,-0.0085,-0.008,-0.0030669998,-0.02772525,-0.002411,1741836213.757789
0.1985,-0.01575,0.03275,-0.004837,-0.032226503,-0.00061025,1741836213.7713778
0.21375,-0.01125,0.1025,-0.0030669998,-0.03215025,-0.00071725,1741836213.786072
0.20875,-0.01675,0.1,-0.00216675,-0.03096,-0.002121,1741836213.8009331
0.192,-0.01775,0.066,-0.0041504996,-0.03189075,-0.0020295,1741836213.8156302
0.18425,-0.011,0.055,-0.00997925,-0.0372925,0.00090025004,1741836213.830374
0.172,-0.0185,0.0625,-0.0115205,-0.04043575,0.0022277501,1741836213.8450718
0.16925,-0.0295,0.0825,-0.00868225,-0.045639,0.0030975002,1741836213.8596249
0.18175,-0.0175,0.16275,-0.0060425,-0.04609675,0.00289925,1741836213.8747149
0.188,-0.005,0.19775,-0.00463875,-0.04060375,0.0018005001,1741836213.8888052
0.19375,-0.0185,0.20775,-0.0047455,-0.03601075,0.00096125,1741836213.9034612
0.189,-0.02675,0.19,-0.00340275,-0.02977,-0.00093075,1741836213.918135
0.16925,-0.0255,0.14125,-0.0033722501,-0.030761749,-0.00051875,1741836213.932889
0.1575,-0.0245,0.12475,-0.0049590003,-0.037277248,0.00238025,1741836213.9475021
0.14825,-0.0185,0.1515,-0.004593,-0.04011525,0.00340275,1741836213.962013
0.15275,-0.0065,0.18925,-0.00328075,-0.04216,0.0039825,1741836213.976602
0.16775,0.01075,0.2675,-0.00019825,-0.041061502,0.00283825,1741836213.9912
0.17075,0.01125,0.2855,0.00065625,-0.03768925,0.0012970001,1741836214.007224
0.165,0.00575,0.283,-0.000229,-0.029541,-0.000763,1741836214.02026
0.1445,-0.0075,0.24675,-0.001648,-0.026596,-0.000763,1741836214.034977
0.13575,-0.00375,0.226,-0.003296,-0.0259095,-0.0003205,1741836214.049651
0.121,0.0045,0.207,-0.00367725,-0.027709998,-0.00013725001,1741836214.064526
0.11875,-0.00725,0.2165,-0.0031585,-0.0308075,0.00068675,1741836214.078996
0.11925,-0.0165,0.25925,-0.00245675,-0.030487,0.001419,1741836214.094178
0.11475,-0.005,0.27125,-0.00305175,-0.027176,0.00228875,1741836214.108329
0.1,0.00925,0.25925,-0.0045165,-0.0258025,0.0022735,1741836214.1247628
0.08925,0.00825,0.243,-0.00646975,-0.0266265,0.00283825,1741836214.137434
0.072,-0.00275,0.20775,-0.0064239996,-0.02934275,0.0034790002,1741836214.152013
0.065,-0.00275,0.199,-0.00579825,-0.0366975,0.00384525,1741836214.1667058
0.05625,0.014,0.218,-0.0054932497,-0.03958125,0.00367725,1741836214.181324
0.0515,0.021,0.23375,-0.00590525,-0.042831503,0.0028229998,1741836214.195898
0.0325,0.0105,0.241,-0.0073395,-0.043991,0.0030975002,1741836214.210416
0.01725,0.007,0.23875,-0.009430001,-0.044983003,0.00396725,1741836214.224891
0.001,0.00925,0.23875,-0.010803251,-0.048401,0.00561525,1741836214.2394419
-0.01275,0.0055,0.2655,-0.0094604995,-0.051239,0.006668,1741836214.253978
-0.00775,-0.002,0.30825,-0.0058287503,-0.05160525,0.0099639995,1741836214.268739
0.0605,-0.021,0.542,-0.0038757501,-0.043975748,0.0122985,1741836214.284693
0.13275,0.009,0.725,0.0042572496,0.0034637498,0.013412501,1741836214.2977128
0.1315,0.117,0.971,0.0150605,0.043899503,0.00852975,1741836214.3121128
0.00075,0.13975,0.96425,0.01620475,0.13435374,-0.00694275,1741836214.326614
-0.15725,0.01825,0.76,0.0059510004,0.17419425,-0.01142875,1741836214.3412852
-0.162,-0.01325,0.67575,0.002365,0.2214355,-0.014221249,1741836214.3578072
-0.184,0.056,0.49575,0.010559,0.22680674,-0.015533499,1741836214.370403
-0.22025,0.0415,0.3805,0.0162505,0.2187195,-0.017303498,1741836214.385271
-0.27625,-0.031,0.0455,0.0113525,0.21041875,-0.01979075,1741836214.399724
-0.25375,-0.0445,-0.142,0.0065155,0.19892876,-0.02012625,1741836214.414879
-0.22975,-0.01975,-0.4675,0.010101249,0.15272525,-0.010513251,1741836214.429227
-0.201,-0.00175,-0.5015,0.0129700005,0.114975,-0.0044707498,1741836214.444879
-0.0905,0.0445,-0.2955,0.01295475,0.040451,-0.0002135,1741836214.458484
-0.0205,0.06325,-0.18875,0.009445249,0.018737748,-0.000412,1741836214.4748008
0.056,0.0525,-0.14075,0.0022125002,0.0029755002,0.00131225,1741836214.487432
0.1505,0.013,-0.16725,-0.00051875,-0.00029,0.0019225,1741836214.501956
0.16675,0.011,-0.1845,-0.0046845004,-0.0172425,0.00334175,1741836214.516648
0.2265,0.015,-0.1015,-0.00469975,-0.02845775,0.0028074998,1741836214.5314188
0.26525,0.007,-0.026,-0.0030669998,-0.03926075,-0.0018615,1741836214.5462139
0.3225,-0.0265,0.0755,-0.0030975002,-0.036560003,-0.00343325,1741836214.560895
0.33275,-0.038,0.092,-0.0047455,-0.023224002,-0.00149525,1741836214.575575
0.30825,-0.04575,0.03775,-0.0046234997,-0.01734925,0.000473,1741836214.5902772
0.28075,-0.04525,-0.0105,-0.002121,-0.0151215,0.0029449998,1741836214.604962
0.23225,-0.03125,-0.07475,-0.001114,-0.01918025,0.00340275,1741836214.61961
0.21525,-0.02525,-0.0825,7.625e-05,-0.032074,0.0034637498,1741836214.634685
0.20075,-0.02175,-0.04225,0.000412,-0.03889475,0.003769,1741836214.648957
0.2055,-0.02175,0.007,-0.00051875,-0.047881998,0.00697325,1741836214.6647491
0.23125,-0.0015,0.0865,-0.002365,-0.04765325,0.00862125,1741836214.678064
0.23625,0.006,0.09375,-0.00466925,-0.0447845,0.009323,1741836214.6926541
0.21325,0.0055,0.05475,-0.0076295,-0.039276,0.00794975,1741836214.707606
0.1985,-0.0025,0.038,-0.0072785,-0.040161252,0.00723275,1741836214.721768
0.1905,-0.0095,0.03775,-0.00225825,-0.0488435,0.0063325,1741836214.7363808
0.1785,-0.016,0.06825,0.000229,-0.0546875,0.00517275,1741836214.750891
0.1785,-0.0125,0.1055,0.00029,-0.0618745,0.0030975002,1741836214.765395
0.208,0.02025,0.21775,-0.0013885,-0.059265252,0.0033264998,1741836214.779878
0.22075,0.02825,0.24725,-0.00384525,-0.0433655,0.00355525,1741836214.794781
0.21625,0.011,0.215,-0.0055695,-0.035659753,0.00352475,1741836214.8089721
0.20175,-0.0035,0.177,-0.0081635,-0.030243,0.0054475004,1741836214.824776
0.1755,-0.011,0.14175,-0.00668325,-0.032180753,0.00621025,1741836214.838329
0.17425,-0.0075,0.163,-0.00010675,-0.03677375,0.00668325,1741836214.852967
0.19525,0.0075,0.25775,0.00367725,-0.035659753,0.00621025,1741836214.867512
0.196,0.01875,0.2795,0.006302,-0.025421249,0.002365,1741836214.8818932
0.1725,0.0265,0.24575,0.00283825,-0.01953125,0.0009765,1741836214.896271
0.16625,0.02325,0.215,-0.00187675,-0.0155030005,0.00143425,1741836214.9107578
0.1615,0.019,0.18775,-0.00444025,-0.014495751,0.003891,1741836214.92525
0.145,0.023,0.15225,-0.002243,-0.017028749,0.00369275,1741836214.939703
0.14025,0.02425,0.153,0.00093075,-0.023697,0.0025940002,1741836214.954071
0.13775,0.014,0.17775,0.00169375,-0.0256805,0.00254825,1741836214.968596
0.133,0.0135,0.19175,0.001175,-0.026550248,0.00308225,1741836214.983043
0.125,0.01875,0.2205,-0.0004425,-0.02575675,0.0030669998,1741836214.9975832
0.12425,0.01975,0.23025,-0.0022277501,-0.023407,0.002243,1741836215.012198
0.11475,0.0175,0.23275,-0.00149525,-0.02259825,0.00181575,1741836215.02671
0.11075,0.01525,0.22475,0.001114,-0.02409375,0.0020295,1741836215.041121
0.09875,0.01275,0.196,0.0017242499,-0.026550248,0.00245675,1741836215.057355
0.0925,0.0125,0.188,0.0018005001,-0.02949525,0.0024414998,1741836215.069979
0.08825,0.01125,0.193,0.00239575,-0.033935502,0.00013725001,1741836215.0849862
0.08425,0.00275,0.22825,0.0035704998,-0.0347595,-0.00090025004,1741836215.098878
0.0785,0.00425,0.24375,0.0031585,-0.032943748,-0.00099175,1741836215.114624
0.05775,0.01925,0.242,0.00074775,-0.030716,-0.00024425,1741836215.1278799
0.04575,0.02225,0.23475,-0.00416575,-0.0283355,0.000946,1741836215.142415
0.03375,0.02825,0.22875,-0.0049742498,-0.02876275,0.0013427499,1741836215.1571689
0.031,0.02375,0.23175,-0.001709,-0.033935502,0.0026092501,1741836215.171401
0.023,0.024,0.2355,0.0004425,-0.038345248,0.0024414998,1741836215.185879
0.0185,0.02625,0.239,0.0021819999,-0.0446015,0.001007,1741836215.200263
-0.006,0.02375,0.2555,0.0020905002,-0.0460205,-0.000183,1741836215.214987
-0.01425,0.02175,0.26625,0.0019225,-0.046402,-0.00067150005,1741836215.229632
-0.00075,0.0005,0.3165,0.0016632499,-0.04467775,0.001892,1741836215.244622
0.04075,-0.0255,0.4125,0.0017242499,-0.04119875,0.00434875,1741836215.258673
0.119,-0.04575,0.58625,0.0038757501,-0.01197825,0.0150605,1741836215.274762
0.2455,0.0645,0.963,0.01071175,0.02079775,0.01997375,1741836215.287703
0.15075,0.1635,1.0,0.028473,0.11090075,0.0066374997,1741836215.302051
-0.14625,0.118,0.78,0.02592475,0.15672301,-0.008667,1741836215.316551
-0.204,0.01025,0.694,0.019622749,0.2346955,-0.02070625,1741836215.331163
-0.20775,-0.041,0.5675,0.034134,0.25576773,-0.01956175,1741836215.345792
-0.20175,-0.0025,0.4565,0.04936225,0.24530025,-0.0239105,1741836215.3603818
-0.20375,-0.05475,0.1145,0.038513247,0.22471625,-0.02124025,1741836215.3749561
-0.20225,-0.1095,-0.04925,0.01805125,0.176468,0.0020905002,1741836215.3896909
-0.2735,-0.06875,-0.35975,0.0128785,0.14860526,0.01463325,1741836215.4042711
-0.2755,-0.00725,-0.4505,-0.0047607496,0.082138,0.02790825,1741836215.419173
-0.169,0.08525,-0.414,-0.0124665005,0.046981752,0.02711475,1741836215.434516
-0.0905,0.0945,-0.3325,-0.01368725,0.017334,0.021087749,1741836215.448483
0.056,0.073,-0.2015,-0.0060577504,-0.019439751,0.0051269997,1741836215.4648352
0.116,0.048,-0.14825,-0.0060882503,-0.03132625,0.00225825,1741836215.477925
0.178,0.03,-0.074,-0.009872501,-0.04451,0.0026854998,1741836215.49249
0.29675,0.0055,0.084,-0.0091095,-0.043457,0.00146475,1741836215.507933
0.33825,-0.01925,0.12575,-0.0054015,-0.03022775,-0.0020752498,1741836215.521869
0.36375,-0.06375,0.1285,-0.00413525,-0.0222015,-0.002121,1741836215.536591
0.351,-0.06425,0.103,-0.00024425,-0.0101775,-0.0012055,1741836215.55139
0.29525,-0.0495,0.029,0.0017395001,-0.007599,-0.00131225,1741836215.5660748
0.268,-0.04125,-0.0005,0.0044250004,-0.0088195,-0.002121,1741836215.5807512
0.23475,-0.024,-0.02175,0.00491325,-0.010818499,-0.00239575,1741836215.5954719
0.22825,-0.01925,-0.01375,0.0032347501,-0.01345825,-0.00131225,1741836215.61021
0.2345,-0.0205,0.01425,0.0023345,-0.013503999,-0.00070200005,1741836215.625004
0.235,-0.02125,0.017,0.00143425,-0.01351925,-0.00029,1741836215.63947
0.23025,-0.0145,0.0095,0.00030525,-0.01440425,6.1000002e-05,1741836215.6539352
0.22375,-0.0085,0.00375,-0.0043335,-0.018753,0.00062550005,1741836215.6684852
0.202,-0.00225,-0.0175,-0.006073,-0.02256775,0.0007325,1741836215.683211
0.1895,-0.011,-0.02,-0.00505075,-0.031662002,0.00131225,1741836215.6978781
0.1815,-0.03225,0.013,-0.0028535,-0.036331248,0.0015565,1741836215.712488
0.1915,-0.0365,0.04525,-0.00045775,-0.040420502,0.0017395001,1741836215.727207
0.2185,-0.0225,0.09475,0.0017395001,-0.043624748,0.00148,1741836215.7416918
0.224,-0.009,0.1015,0.00067150005,-0.042648252,0.001068,1741836215.757591
0.2175,-0.00325,0.09675,-0.0048979996,-0.040466253,0.001831,1741836215.770957
0.196,-0.0225,0.08625,-0.0072480002,-0.040893503,0.0029145,1741836215.785482
0.1905,-0.0305,0.0885,-0.007187,-0.0454865,0.0032347501,1741836215.8002539
0.17375,-0.036,0.0955,-0.00614925,-0.049057,0.0024872501,1741836215.814977
0.16825,-0.039,0.1075,-0.0026245,-0.054977503,0.0017852499,1741836215.829751
0.16325,-0.0335,0.15125,0.00010675,-0.056305,0.0015105,1741836215.844967
0.162,-0.024,0.1705,0.0023497501,-0.0559845,0.0008545,1741836215.858891
0.15275,0.00175,0.19625,0.000824,-0.055069,0.0010375,1741836215.8746529
0.14725,0.00625,0.199,-0.00469975,-0.05296325,0.00149525,1741836215.887979
0.142,-0.00125,0.218,-0.00640875,-0.05068975,0.00193775,1741836215.9026
0.1375,-0.0065,0.2305,-0.00535575,-0.04603575,0.001709,1741836215.9171789
0.1225,-0.0275,0.248,-0.0037995,-0.044403,0.0014495,1741836215.931883
0.117,-0.03525,0.25775,-0.00057975,-0.04119875,0.001648,1741836215.946368
0.10975,-0.02,0.273,0.00067150005,-0.03958125,0.0012665,1741836215.9610088
0.1045,-0.0065,0.2725,0.001587,-0.0381165,0.00035100002,1741836215.975512
0.103,0.00725,0.25675,0.001236,-0.036087003,-0.00175475,1741836215.9901052
0.10075,0.01175,0.2465,-0.00016775,-0.03521725,-0.00193775,1741836216.0047722
0.09125,0.011,0.2385,-0.004486,-0.0328065,-0.00143425,1741836216.019396
0.0675,-0.0015,0.226,-0.0061950004,-0.032364,-0.001709,1741836216.034632
0.05875,-0.008,0.2235,-0.0064545004,-0.033325247,-0.0019685,1741836216.048743
0.04075,-0.0235,0.2375,-0.005249,-0.03471375,-0.001953,1741836216.064718
0.03525,-0.02625,0.257,-0.002121,-0.036499,-0.00137325,1741836216.07809
0.0395,-0.01225,0.29075,-0.00086975005,-0.035705503,-0.0003815,1741836216.092747
0.04025,-0.0015,0.2955,-0.001068,-0.032608002,0.0028687501,1741836216.107816
0.039,0.00125,0.29225,-0.00276175,-0.030731251,0.0043182503,1741836216.121849
0.03175,0.00425,0.2875,-0.0054475004,-0.02616875,0.004074,1741836216.136383
0.014,0.008,0.275,-0.005005,-0.02442925,0.002533,1741836216.15088
0.0045,0.00875,0.26775,-0.0025940002,-0.02449025,-0.00099175,1741836216.165581
-0.00775,0.00375,0.25,-0.00184625,-0.0262145,-0.00193775,1741836216.180368
-0.0085,-0.007,0.25425,-0.0023345,-0.02920525,-0.0012817499,1741836216.1951501
0.0305,-0.03975,0.35675,-0.0027465,-0.02690125,0.00093075,1741836216.209743
0.083,-0.06625,0.47975,0.00045775,-0.0013275,0.0114744995,1741836216.224703
0.2055,-0.0105,0.79875,0.0052642496,0.0265045,0.018585252,1741836216.238751
0.1585,0.09825,0.8505,0.0114135,0.06144725,0.0204925,1741836216.253247
0.06025,0.17375,0.81525,0.011031999,0.13244624,0.00177,1741836216.267658
-0.05675,0.0845,0.7515,0.00543225,0.1660155,-0.00891125,1741836216.282387
-0.06875,0.0145,0.75,0.018890498,0.21411125,-0.022918751,1741836216.296979
-0.12,-0.038,0.59225,0.035903998,0.22195426,-0.029022248,1741836216.311559
-0.1225,-0.04675,0.4565,0.043045,0.207901,-0.026275748,1741836216.326244
-0.16725,-0.033,0.1405,0.034668,0.19415276,-0.016922,1741836216.3409832
-0.22575,-0.06,-0.06025,0.0156555,0.15771475,0.0069580004,1741836216.357645
-0.28275,-0.039,-0.4005,0.009872501,0.1325835,0.0154725,1741836216.370257
-0.262,0.009,-0.4675,0.00378425,0.071029745,0.02101125,1741836216.3853052
-0.1575,0.056,-0.3985,0.00115975,0.04100025,0.01832575,1741836216.39938
-0.09025,0.054,-0.30975,-0.0037537501,-0.0028229998,0.007782,1741836216.4150348
0.05425,0.029,-0.1385,-0.00460825,-0.016570998,0.0031585,1741836216.428662
0.12425,0.013,-0.064,-0.00564575,-0.030365,-0.000229,1741836216.44491
0.26725,0.0045,0.08725,-0.0065002497,-0.02964775,0.0,1741836216.458051
0.3095,-0.00575,0.11025,-0.0067597497,-0.025085501,-0.00027475,1741836216.472768
0.32375,-0.0465,0.06525,-0.00614925,-0.01380925,-0.0019989999,1741836216.4876
0.3095,-0.052,0.03475,-0.0056609996,-0.01142875,-0.0024414998,1741836216.502291
0.291,-0.04825,0.01125,-0.00463875,-0.013153,-0.0029907501,1741836216.517096
0.263,-0.0365,-0.00025,-0.00292975,-0.014587499,-0.00428775,1741836216.531884
0.25,-0.039,0.0,3.0500001e-05,-0.0154115,-0.00614925,1741836216.5464928
0.24275,-0.0515,0.02175,0.0002595,-0.01498425,-0.0053709997,1741836216.561177
0.242,-0.0525,0.02525,-0.00064075,-0.01440425,-0.0022735,1741836216.575996
0.229,-0.04175,0.00225,-0.001709,-0.014800999,-0.00059500005,1741836216.590643
0.21575,-0.03475,-0.01425,-0.00381475,-0.01937875,0.00201425,1741836216.60721
0.191,-0.0195,-0.04,-0.004303,-0.02433775,0.002533,1741836216.620157
0.1785,-0.014,-0.04725,-0.0040587503,-0.03866575,0.00296025,1741836216.6352599
0.159,-0.0195,-0.0285,-0.0038757501,-0.04623425,0.00314325,1741836216.649677
0.1565,-0.024,0.00175,-0.00369275,-0.05735775,0.00283825,1741836216.66498
0.16475,-0.03475,0.0815,-0.0026092501,-0.05998225,0.0025634998,1741836216.6789749
0.169,-0.04075,0.11475,-0.0009155,-0.059387248,0.001892,1741836216.694908
0.17225,-0.044,0.13575,-0.0022125002,-0.057922248,0.00204475,1741836216.708205
0.17025,-0.04,0.1335,-0.0075835,-0.05555725,0.004242,1741836216.7246761
0.158,-0.032,0.14275,-0.009155249,-0.055297747,0.0058899997,1741836216.7375429
0.15575,-0.0345,0.159,-0.007309,-0.055953998,0.008712751,1741836216.752373
0.16025,-0.043,0.20625,-0.004547,-0.05511475,0.008788999,1741836216.7669609
0.166,-0.04,0.2355,-0.00016775,-0.050277747,0.0060272496,1741836216.781543
0.17625,-0.01725,0.27425,-9.15e-05,-0.046371497,0.0047302498,1741836216.796184
0.17025,-0.008,0.273,-0.00077825,-0.0418395,0.00340275,1741836216.810784
0.15125,-0.0075,0.25,-0.0023039998,-0.034195,0.00077825,1741836216.825398
0.14275,-0.01125,0.23525,-0.0024872501,-0.03300475,0.00042725,1741836216.839961
0.13475,-0.0145,0.22475,-0.00071725,-0.034317,7.625e-05,1741836216.854591
0.1225,-0.02175,0.222,0.00057975,-0.035263002,-1.5250001e-05,1741836216.869338
0.1175,-0.02475,0.225,0.0025025,-0.036239497,-0.001114,1741836216.885335
0.11,-0.02025,0.24,0.0027312501,-0.03578175,-0.0018005001,1741836216.898752
0.105,-0.012,0.2475,0.0014037499,-0.03424075,-0.00231925,1741836216.9143739
0.07925,-0.00875,0.242,-0.00064075,-0.0344695,-0.0025787498,1741836216.928082
0.06825,-0.017,0.23775,-0.0053405,-0.0361785,-0.00225825,1741836216.942699
0.055,-0.03225,0.2445,-0.0061645,-0.03718575,-0.0020295,1741836216.9575071
0.05,-0.03075,0.2475,-0.00511175,-0.04069525,-0.0012665,1741836216.972212
0.0455,-0.01375,0.25675,-0.0045625,-0.042389,-0.00054925,1741836216.986934
0.0455,-0.0065,0.265,-0.0043335,-0.042221002,0.00096125,1741836217.001624
0.027,0.00275,0.2715,-0.00466925,-0.041153,0.00070200005,1741836217.016202
0.015,0.004,0.2695,-0.0057372497,-0.042175252,0.00061025,1741836217.0307891
-0.01125,0.00125,0.25575,-0.0060272496,-0.044433497,0.00137325,1741836217.04538
-0.01975,-0.00075,0.2525,-0.007187,-0.0488435,0.0012970001,1741836217.06012
-0.02575,-0.0015,0.2705,-0.00839225,-0.04983525,0.0012665,1741836217.074877
-0.0235,-0.0095,0.3035,-0.00941475,-0.049347,0.0025634998,1741836217.089536
0.0385,-0.0425,0.48,-0.010299751,-0.037902746,0.0088195,1741836217.10428
0.10175,-0.029,0.611,-0.008361749,-0.021881001,0.012924249,1741836217.1189709
0.18925,0.081,0.86675,0.0053709997,0.03427125,0.0178985,1741836217.133331
0.13025,0.1475,0.913,0.012115501,0.07115175,0.0159455,1741836217.147712
0.02075,0.1905,0.876,0.01033025,0.1486205,-0.00390625,1741836217.162187
-0.14175,0.10575,0.7815,0.00764475,0.1852875,-0.018020751,1741836217.176675
-0.1645,-0.00325,0.749,0.01811225,0.22705075,-0.0360565,1741836217.191382
-0.18475,-0.02925,0.5715,0.029541,0.22717275,-0.03862,1741836217.2076921
-0.22175,0.00925,0.44025,0.0363465,0.21102901,-0.0247345,1741836217.220628
-0.28,-0.06775,0.045,0.02661125,0.196457,-0.0125275,1741836217.235349
-0.30225,-0.12625,-0.198,0.0065612504,0.14915475,0.013412501,1741836217.2499661
-0.2865,-0.06075,-0.492,-6.1000002e-05,0.116851754,0.022995,1741836217.264904
-0.25475,-0.011,-0.5005,-0.0025940002,0.051452752,0.02354425,1741836217.279365
-0.167,0.024,-0.3825,0.0002135,0.024841249,0.01589975,1741836217.295001
-0.09975,0.0285,-0.3065,0.0021515,-0.016265752,0.0030669998,1741836217.30838
0.03775,0.02475,-0.147,0.000763,-0.032424998,0.001175,1741836217.3228319
0.118,0.03025,-0.03525,-0.000473,-0.042785753,0.0005035,1741836217.33747
0.1945,0.02875,0.063,-0.000122000005,-0.043945253,-0.003006,1741836217.352122
0.3,-0.028,0.1585,-0.0009155,-0.0391235,-0.0048979996,1741836217.366863
0.3385,-0.05775,0.1855,-0.003296,-0.028778,-0.004074,1741836217.381672
0.36925,-0.06775,0.183,-0.0031889998,-0.0227355,-0.0029145,1741836217.3964548
0.3525,-0.0635,0.1475,-0.00119025,-0.01095575,-0.00320425,1741836217.411183
0.29775,-0.04825,0.06675,0.0,-0.008270251,-0.0037995,1741836217.4257128
0.27575,-0.04075,0.043,0.0002135,-0.008316,-0.0034484998,1741836217.440332
0.25,-0.03025,0.026,-0.00048825,-0.00924675,-0.0027465,1741836217.455063
0.24425,-0.02625,0.03375,-0.001831,-0.010681249,-0.00057975,1741836217.4697149
0.244,-0.027,0.06625,-0.00292975,-0.01086425,0.00083925005,1741836217.484965
0.24025,-0.03075,0.069,-0.0048979996,-0.0110932505,0.0021515,1741836217.498923
0.22175,-0.02875,0.0505,-0.0051574996,-0.012085,0.00190725,1741836217.514715
0.208,-0.022,0.03975,-0.0051880004,-0.01708975,0.00112925,1741836217.5281029
0.185,-0.014,0.02375,-0.00570675,-0.02073675,0.000824,1741836217.542835
0.177,-0.01575,0.0275,-0.0063477503,-0.0285035,0.000763,1741836217.557778
0.176,-0.0285,0.0745,-0.0059815003,-0.03123475,0.00137325,1741836217.572167
0.18175,-0.03125,0.09425,-0.0056609996,-0.03291325,0.002655,1741836217.586839
0.18425,-0.0355,0.09675,-0.00708,-0.0330505,0.0031585,1741836217.60147
0.1805,-0.03675,0.0895,-0.009079001,-0.03376775,0.0037385002,1741836217.616069
0.176,-0.035,0.08125,-0.0106965,-0.03828425,0.004074,1741836217.630635
0.17225,-0.03275,0.10075,-0.0100555,-0.041061502,0.0039215,1741836217.645438
0.181,-0.031,0.13525,-0.0056609996,-0.04255675,0.00367725,1741836217.659948
0.19825,-0.0085,0.19475,-0.0041044997,-0.04110725,0.0030975002,1741836217.674834
0.20225,-0.0035,0.213,-0.0065765,-0.03521725,0.003418,1741836217.689161
0.19175,-0.009,0.2155,-0.008667,-0.032470748,0.003128,1741836217.703723
0.1825,-0.0125,0.20525,-0.010086001,-0.03005975,0.0025787498,1741836217.718337
0.17325,-0.00175,0.1985,-0.00846875,-0.029571502,0.00292975,1741836217.73447
0.17075,0.00325,0.2075,-0.0048674997,-0.02864075,0.0027465,1741836217.747485
0.165,-0.0025,0.237,-0.00354,-0.02781675,0.001709,1741836217.762145
0.167,-0.005,0.24725,-0.00305175,-0.0254975,-0.0012207499,1741836217.7768462
0.167,-0.0035,0.2435,-0.002777,-0.023925751,-0.00201425,1741836217.791594
0.15825,-0.00375,0.227,-0.00242625,-0.02139275,-0.00146475,1741836217.807735
0.13625,0.00425,0.202,-0.0028535,-0.020477248,-0.00080875,1741836217.820928
0.12825,0.00275,0.20025,-0.0037079998,-0.02171325,0.00154125,1741836217.8355782
0.1195,-0.0065,0.192,-0.0040435,-0.02386475,0.00276175,1741836217.85025
0.11925,-0.00975,0.18925,-0.0042572496,-0.0259095,0.00334175,1741836217.864896
0.1035,-0.003,0.1855,-0.00279225,-0.02896125,0.001709,1741836217.8794901
0.09025,0.005,0.18175,-0.0023039998,-0.031265248,0.0003815,1741836217.894827
0.07825,0.00775,0.17825,-0.00437925,-0.038940497,0.000885,1741836217.90857
0.0575,0.00725,0.186,-0.005783,-0.04373175,0.00225825,1741836217.924559
0.04775,0.0065,0.195,-0.0063325,-0.053970248,0.00596625,1741836217.9376378
0.0275,-0.005,0.19825,-0.0065155,-0.05885325,0.00688175,1741836217.9522638
0.0145,-0.005,0.209,-0.006668,-0.064453006,0.0057220003,1741836217.966999
-0.0095,-0.00125,0.23975,-0.0059815003,-0.0661315,0.0060272496,1741836217.981672
-0.01825,0.0005,0.2505,-0.0052337497,-0.06811525,0.0064239996,1741836217.996175
-0.0165,0.02025,0.29425,-0.00505075,-0.06738275,0.00631725,1741836218.0108328
-0.0075,0.02375,0.33275,-0.0048065,-0.060058497,0.0073395,1741836218.0253708
0.024,0.014,0.46825,-0.0052337497,-0.050277747,0.008590749,1741836218.039886
0.0525,0.01375,0.5565,-0.0027465,-0.013183501,0.0105742505,1741836218.0543518
0.13625,0.04775,0.755,0.0016632499,0.01419075,0.01092525,1741836218.0687108
0.12,0.0855,0.8035,0.0077210004,0.0467835,0.00982675,1741836218.083182
0.0425,0.11125,0.779,0.012771499,0.116561994,-0.00419625,1741836218.097544
-0.08,0.07525,0.668,0.009658749,0.1503295,-0.01560975,1741836218.1120791
-0.0955,0.0445,0.6505,0.017028749,0.20307925,-0.030151252,1741836218.126643
-0.1135,0.025,0.5785,0.028122,0.21614075,-0.02857975,1741836218.1411781
-0.141,0.0055,0.503,0.033249002,0.22100826,-0.012375,1741836218.157523
-0.18425,-0.017,0.2865,0.021576,0.21136475,-0.0065765,1741836218.1703198
-0.16675,-0.05975,0.1195,0.0032655,0.17056274,-0.0026092501,1741836218.185299
-0.1685,-0.0825,-0.234,0.00543225,0.14845274,0.0017395001,1741836218.199593
-0.18025,-0.0365,-0.35625,0.0012970001,0.09945675,0.012191749,1741836218.214628
-0.1275,0.026,-0.40925,-0.0034790002,0.071106,0.014206001,1741836218.228856
-0.0795,0.0455,-0.348,0.0022125002,0.02244575,0.0055847503,1741836218.244788
0.0445,0.0495,-0.17275,0.0038605002,0.0062407497,0.002243,1741836218.257731
0.093,0.03625,-0.12925,0.0026854998,-0.004303,0.0017242499,1741836218.272235
0.12975,0.02275,-0.11725,-0.0048979996,-0.016235251,0.00444025,1741836218.286816
0.21,0.00025,-0.05525,-0.008316,-0.02301025,0.0056,1741836218.301327
0.25925,-0.0035,0.0195,-0.0062255003,-0.03274525,0.0022125002,1741836218.315948
0.33975,-0.017,0.1365,-0.00331125,-0.03070075,-0.0014495,1741836218.330642
0.354,-0.03225,0.13825,9.15e-05,-0.016998248,-0.0048674997,1741836218.345338
0.3335,-0.0495,0.0745,0.00070200005,-0.01036075,-0.00367725,1741836218.359941
0.30925,-0.04275,0.0365,0.00062550005,-0.0048674997,-0.0008545,1741836218.3750799
0.2585,-0.021,-0.02025,0.00064075,-0.00621025,-0.00077825,1741836218.3892438
0.242,-0.017,-0.026,0.0011445,-0.01127625,-0.0022125002,1741836218.403944
0.236,-0.00675,0.01325,0.0014495,-0.012771499,-0.00270075,1741836218.418535
0.24275,-0.003,0.036,0.00157175,-0.0110015,-0.0021057501,1741836218.434432
0.2495,0.00175,0.051,0.0009155,-0.00883475,-0.0014495,1741836218.4476538
0.24125,-0.00225,0.0375,-0.00154125,-0.0063325,-0.00045775,1741836218.4623418
0.222,-0.00125,0.0055,-0.0024872501,-0.0073395,-0.00064075,1741836218.477036
0.21325,0.00275,-0.005,-0.0033264998,-0.009734999,-0.00112925,1741836218.49172
0.20075,-0.0065,-0.00725,-0.00413525,-0.016098,-0.00198375,1741836218.5077639
0.2,-0.01275,0.006,-0.00320425,-0.019226,-0.00238025,1741836218.5211709
0.2075,-0.0265,0.05075,-0.0017852499,-0.02351375,-0.0022735,1741836218.535944
0.21225,-0.03325,0.06925,-0.001175,-0.02412425,-0.0020599999,1741836218.55064
0.21525,-0.04025,0.078,-0.00029,-0.023956249,-0.001068,1741836218.5653272
0.2225,-0.03475,0.0785,-0.0017242499,-0.02415475,0.00029,1741836218.579936
0.2205,-0.028,0.07125,-0.0061035,-0.026596,0.004074,1741836218.594951
0.20825,-0.0275,0.0485,-0.00671375,-0.02886975,0.0055695,1741836218.609178
0.201,-0.0265,0.04375,-0.0033264998,-0.03421025,0.006607,1741836218.624929
0.199,-0.01075,0.06175,-0.0014495,-0.037033,0.00611875,1741836218.6383271
0.19725,-0.001,0.0835,-0.0014037499,-0.0414275,0.00488275,1741836218.652929
0.19875,-0.0015,0.141,-0.00181575,-0.04141225,0.00440975,1741836218.667661
0.20375,-0.0015,0.15725,-0.000946,-0.03862,0.00302125,1741836218.682241
0.1885,-0.00525,0.15375,-0.0017852499,-0.0381165,0.003296,1741836218.696842
0.18125,-0.00175,0.14975,-0.0052337497,-0.041031,0.00564575,1741836218.7114618
0.1735,0.0095,0.1475,-0.0073242504,-0.04359425,0.00691225,1741836218.725953
0.167,0.00425,0.1515,-0.00889575,-0.0464325,0.00801075,1741836218.740448
0.16275,-0.0145,0.18325,-0.0072175004,-0.04618825,0.0072785,1741836218.75516
0.168,-0.01675,0.21025,-0.004303,-0.0446015,0.0062865,1741836218.7697
0.16325,-0.00775,0.234,0.00149525,-0.03996275,0.0041044997,1741836218.785184
0.1505,0.0025,0.22875,0.0017242499,-0.0381165,0.00317375,1741836218.798663
0.138,0.00775,0.21925,-0.002121,-0.03671275,0.004074,1741836218.814569
0.12325,0.00025,0.20275,-0.0033722501,-0.037155252,0.0052337497,1741836218.8277419
0.116,0.001,0.20125,-0.00279225,-0.039276,0.0057677496,1741836218.8422642
0.101,0.0105,0.21275,-0.0018005001,-0.040924,0.0051269997,1741836218.858037
0.0985,0.01075,0.23075,-0.00061025,-0.043289248,0.00378425,1741836218.8713012
0.1185,0.00925,0.28575,-0.00030525,-0.04188525,0.0032655,1741836218.8858292
0.12175,0.01525,0.299,-0.0002135,-0.0338745,-0.00019825,1741836218.9004622
0.0935,0.0375,0.2855,-0.0012817499,-0.02978525,-0.00190725,1741836218.9151192
0.0735,0.03825,0.266,-0.004547,-0.028167749,0.0002135,1741836218.929613
0.04325,0.0205,0.21775,-0.0055847503,-0.0309905,0.0017852499,1741836218.944623
0.03875,0.01425,0.20175,-0.0052642496,-0.03494275,0.00204475,1741836218.958703
0.0315,0.00925,0.20375,-0.0013427499,-0.043747,0.00059500005,1741836218.9746041
0.025,0.013,0.21775,-0.00035100002,-0.04777525,0.00048825,1741836218.9877398
0.0145,0.016,0.23425,-0.0018005001,-0.052719,0.0030365,1741836219.002232
-0.0055,0.017,0.2595,-0.00355525,-0.0532075,0.00428775,1741836219.016843
-0.01075,0.019,0.27625,-0.0061339997,-0.049881,0.0060882503,1741836219.031438
-0.00275,0.03275,0.3305,-0.00672925,-0.04682925,0.0077210004,1741836219.046101
0.01175,0.03175,0.37425,-0.007309,-0.035476748,0.011078,1741836219.060711
0.064,0.01525,0.524,-0.00646975,-0.02357475,0.011688249,1741836219.075365
0.108,0.033,0.61275,0.0016175,0.018219,0.010253999,1741836219.08968
0.12675,0.0775,0.719,0.00811775,0.04493725,0.00833125,1741836219.104098
0.09675,0.08575,0.74975,0.01402275,0.10420225,-0.0013427499,1741836219.118489
0.03275,0.07175,0.8,0.013992251,0.13745125,-0.010788,1741836219.132946
-0.023,0.0595,0.8005,0.01374825,0.17005925,-0.024353001,1741836219.14748
-0.08925,0.054,0.77375,0.01823425,0.2130585,-0.047668498,1741836219.162017
-0.213,0.0945,0.56275,0.02348325,0.21949776,-0.049850497,1741836219.176446
-0.218,0.097,0.4405,0.027007999,0.214264,-0.035903998,1741836219.1910112
-0.26275,-0.036,0.1355,0.029373249,0.20425425,-0.024383498,1741836219.205578
-0.32375,-0.09525,-0.095,0.03208925,0.16445924,0.0,1741836219.2202308
-0.351,-0.081,-0.4865,0.02575675,0.135315,0.01194775,1741836219.234824
-0.30875,-0.0165,-0.54225,0.01368725,0.070556745,0.019470248,1741836219.2494552
-0.16275,0.07975,-0.40725,0.010589501,0.039688,0.014068499,1741836219.2648041
-0.069,0.093,-0.29675,0.009323,-0.009384249,-0.002884,1741836219.278673
0.09325,0.0605,-0.134,0.008865249,-0.024704,-0.008255,1741836219.29472
0.17025,0.039,-0.0555,0.00201425,-0.03645325,-0.0089875,1741836219.307957
0.31275,-0.00925,0.09575,-0.0020752498,-0.03509525,-0.0072937496,1741836219.322592
0.3605,-0.043,0.13325,-0.00514225,-0.0245515,-0.0052795,1741836219.337342
0.37725,-0.08525,0.1195,-0.00541675,-0.017578252,-0.004013,1741836219.352059
0.35225,-0.08975,0.08625,-0.0055847503,-0.0109709995,-0.00238025,1741836219.366695
0.28375,-0.0635,0.011,-0.0041504996,-0.00390625,-0.00051875,1741836219.381461
0.264,-0.04525,-0.0055,-0.00334175,-0.00390625,-0.00013725001,1741836219.396353
0.24,-0.0255,-0.0145,-0.0021819999,-0.0054780003,-0.00019825,1741836219.411135
0.23425,-0.021,-0.01325,-0.00175475,-0.00611875,-6.1000002e-05,1741836219.425966
0.238,-0.01825,-0.00225,-0.0020752498,-0.00737,0.00102225,1741836219.4405959
0.241,-0.021,0.01425,-0.00216675,-0.00712575,0.0008545,1741836219.455132
0.23675,-0.0235,0.0115,-0.00267025,-0.00782775,0.000534,1741836219.46981
0.234,-0.02475,0.013,-0.00364675,-0.00852975,0.00096125,1741836219.484988
0.23,-0.024,0.01325,-0.0054475004,-0.01042175,0.0016175,1741836219.499138
0.22225,-0.0265,0.01925,-0.0060272496,-0.011810251,0.00181575,1741836219.514685
0.22075,-0.0275,0.026,-0.0060425,-0.0138245,0.00175475,1741836219.5283468
0.22375,-0.033,0.04325,-0.0062712496,-0.01425175,0.0019225,1741836219.544728
0.22525,-0.03475,0.0465,-0.0068207504,-0.013793999,0.002472,1741836219.557547
0.22025,-0.0335,0.0335,-0.0068207504,-0.0139770005,0.0029449998,1741836219.572086
0.2185,-0.03425,0.02375,-0.0074004997,-0.01716625,0.0042572496,1741836219.586721
0.2195,-0.03375,0.027,-0.007187,-0.019348249,0.0044555003,1741836219.601334
0.22525,-0.0285,0.04575,-0.0045165,-0.02247625,0.003006,1741836219.615979
0.239,-0.01375,0.08975,-0.00314325,-0.02316275,0.00181575,1741836219.630507
0.2425,-0.011,0.102,-0.0025634998,-0.022827249,0.00083925005,1741836219.645122
0.24225,-0.0205,0.0995,-0.00402825,-0.020049999,0.0007325,1741836219.659721
0.237,-0.028,0.086,-0.00520325,-0.018859752,0.00169375,1741836219.674746
0.22875,-0.02925,0.07125,-0.006668,-0.01924125,0.0033264998,1741836219.688951
0.21075,-0.01875,0.05975,-0.00691225,-0.02114875,0.0037385002,1741836219.703559
0.20725,-0.014,0.06775,-0.0056915004,-0.02604675,0.003418,1741836219.7181509
0.2155,-0.015,0.1045,-0.0042267498,-0.027542,0.002884,1741836219.73282
0.21675,-0.01525,0.119,-0.00251775,-0.0270385,0.0018005001,1741836219.747395
0.20325,-0.01575,0.119,-0.0033570002,-0.026397752,0.00181575,1741836219.762017
0.192,-0.01625,0.111,-0.0059205,-0.0280305,0.0030975002,1741836219.7766342
0.18525,-0.01375,0.114,-0.00643925,-0.030181998,0.00419625,1741836219.791308
0.187,-0.01,0.124,-0.0057677496,-0.033691503,0.00564575,1741836219.807416
0.1835,0.001,0.14625,-0.00541675,-0.03424075,0.00561525,1741836219.820437
0.17925,0.006,0.15425,-0.00535575,-0.03489675,0.00390625,1741836219.835155
0.1615,0.0135,0.15475,-0.00543225,-0.036239497,0.0027465,1741836219.8494139
0.157,0.00625,0.15675,-0.0050355,-0.04019175,0.0022277501,1741836219.8646212
0.15825,-0.01425,0.1815,-0.0033875,-0.0417175,0.002777,1741836219.8785439
0.15975,-0.014,0.19775,-0.00148,-0.042236254,0.0034790002,1741836219.894604
0.15925,-0.00775,0.2115,-0.00064075,-0.0391235,0.0039215,1741836219.907806
0.14925,0.0075,0.2135,-0.00148,-0.036789,0.0033264998,1741836219.922286
0.1435,0.01025,0.208,-0.00267025,-0.035492,0.0022735,1741836219.9368892
0.13075,0.00025,0.20025,-0.00242625,-0.036804248,0.00242625,1741836219.9514391
0.128,-0.00575,0.2065,-0.0005645,-0.0385285,0.0025025,1741836219.966054
0.1215,0.0005,0.22975,0.00086975005,-0.0386505,0.0020905002,1741836219.980455
0.1145,0.0065,0.241,0.000534,-0.038208,0.00160225,1741836219.9949398
0.10375,0.00475,0.25175,-0.000534,-0.037048247,0.001526,1741836220.009421
0.09925,-0.0,0.247,-0.00090025004,-0.035553,0.0012665,1741836220.024898
0.0915,-0.00775,0.243,-0.00061025,-0.035339247,0.0011445,1741836220.038691
0.0805,-0.003,0.25,-0.00024425,-0.03424075,-0.00033575002,1741836220.053422
0.06425,0.004,0.25,-0.00033575002,-0.03427125,0.00054925,1741836220.0679748
0.0585,0.00275,0.24775,-0.00112925,-0.03474425,0.0019989999,1741836220.0824609
0.04975,-0.001,0.2545,-0.001587,-0.03424075,0.00225825,1741836220.097014
0.05,-0.00225,0.26275,-0.00109875,-0.0335235,0.0018005001,1741836220.1116118
