acc_x,acc_y,acc_z,gyro_x,gyro_y,gyro_z,timestamp
0.241,0.0385,-0.022,0.00027475,0.00099175,0.00045775,1742092509.69831
0.24225,0.03375,-0.024,-0.00068675,0.0008545,0.001419,1742092509.711537
0.24425,0.02875,-0.02375,-0.0014037499,0.00080875,0.0038299998,1742092509.725929
0.24375,0.02875,-0.02325,-0.0008545,0.00109875,0.00428775,1742092509.740252
0.2415,0.0325,-0.024,-0.00013725001,0.0013885,0.004303,1742092509.7545311
0.24175,0.041,-0.02375,0.0007325,0.001587,0.0043182503,1742092509.768963
0.2395,0.045,-0.024,0.00093075,0.00177,0.0041504996,1742092509.783218
0.23825,0.04625,-0.024,0.000473,0.001709,0.00334175,1742092509.797707
0.242,0.0445,-0.02325,0.00029,0.00131225,0.0029907501,1742092509.8119512
0.24275,0.04325,-0.02375,0.00065625,0.0005645,0.0026245,1742092509.826248
0.243,0.04475,-0.023,0.00090025004,0.00042725,0.0024872501,1742092509.840647
0.24275,0.04775,-0.02225,0.00148,0.000473,0.001892,1742092509.85515
0.23925,0.0545,-0.02325,0.001709,0.00054925,0.0012817499,1742092509.869578
0.2385,0.05625,-0.024,0.00160225,0.00057975,0.00068675,1742092509.883816
0.239,0.05425,-0.025,0.000229,0.000473,0.00074775,1742092509.898203
0.23975,0.04525,-0.0275,-0.00039675,0.000412,0.0014037499,1742092509.912755
0.2395,0.04225,-0.02775,-0.0005645,0.00048825,0.002121,1742092509.927849
0.23975,0.04375,-0.027,-0.0003815,0.0005645,0.00216675,1742092509.941629
0.2395,0.046,-0.02675,-0.0002595,0.00059500005,0.00263975,1742092509.95615
0.24025,0.04375,-0.02625,-0.00030525,0.00067150005,0.0027312501,1742092509.9705758
0.24125,0.0405,-0.0255,-0.00019825,0.00070200005,0.0025787498,1742092509.985049
0.247,0.03325,-0.02175,0.00042725,0.00048825,0.002777,1742092510.001004
0.25125,0.02975,-0.0185,0.00042725,0.0008545,0.003952,1742092510.013739
0.2525,0.0295,-0.01625,7.625e-05,0.003006,0.0081025,1742092510.028249
0.23275,0.05375,-0.00625,0.00062550005,0.0046845004,0.009582501,1742092510.0425532
0.1925,0.104,-0.00225,0.00535575,0.012496999,0.00413525,1742092510.058166
0.008,0.394,-0.07525,0.00720225,0.018448,-0.0072480002,1742092510.0715032
-0.11575,0.6135,-0.14725,-0.00187675,0.018631,-0.059784,1742092510.0861518
-0.34675,0.8465,-0.23125,-0.00738525,0.0081025,-0.1092225,1742092510.100609
-0.451,0.7815,-0.2465,-0.0035095,-0.0078125,-0.176056,1742092510.1153312
-0.63525,0.43825,-0.18325,0.02085875,-0.04449475,-0.30786124,1742092510.130068
-0.6505,0.151,0.00425,0.02348325,-0.0625,-0.3433075,1742092510.144544
-0.59675,-0.2585,0.30075,0.0153502505,-0.06375125,-0.33688352,1742092510.1593442
-0.48075,-1.0,0.381,0.00912475,-0.0346375,-0.28683475,1742092510.17381
-0.503,-1.0,0.17225,-0.0155030005,0.02268975,-0.12480175,1742092510.18865
-0.44225,-0.92725,-0.029,-0.02507025,0.02674875,-0.062683,1742092510.203274
-0.356,-0.797,-0.07675,-0.01440425,0.01098625,-0.01643375,1742092510.218511
-0.15575,-0.52575,-0.1175,-0.0052642496,0.00083925005,-0.0111085,1742092510.2325592
-0.0575,-0.41875,-0.09675,0.0027160002,-0.008484,-0.0088195,1742092510.247319
0.0595,-0.30625,-0.05525,0.00331125,-0.007843,-0.0089875,1742092510.261814
0.073,-0.305,-0.047,0.0021819999,-0.002777,-0.00393675,1742092510.276445
0.05075,-0.326,-0.03625,0.0021515,-0.001068,0.00068675,1742092510.290847
0.03625,-0.3225,-0.0265,0.002121,0.00029,0.00541675,1742092510.3053708
0.02425,-0.314,-0.01575,0.0028229998,0.0014495,0.008361749,1742092510.319843
-0.00275,-0.31025,-0.015,0.0046539996,0.00027475,0.0066985004,1742092510.33422
-0.00675,-0.3105,-0.013,0.00541675,-0.00119025,0.0112305,1742092510.348851
-0.0005,-0.29725,0.00475,0.0042267498,-0.00068675,0.01622,1742092510.3633149
-0.00325,-0.28025,0.004,0.00289925,0.00109875,0.02168275,1742092510.378847
-0.013,-0.2395,-0.0115,0.0026854998,0.0016785001,0.0224,1742092510.392364
-0.01525,-0.22,-0.017,0.003006,0.00125125,0.0196685,1742092510.4080489
-0.01175,-0.2105,-0.02225,0.00317375,0.00027475,0.017028749,1742092510.421383
-0.00775,-0.22,-0.01975,0.002884,-0.00071725,0.01496875,1742092510.436055
0.00225,-0.24725,-0.01125,0.0007325,-0.0013885,0.01554875,1742092510.4512
0.009,-0.25875,-0.00825,-0.00080875,-0.0010375,0.018188499,1742092510.4653409
0.01675,-0.26475,-0.008,-0.0026245,0.00016775,0.023498502,1742092510.47974
0.02425,-0.25125,-0.0165,-0.0023345,0.0004425,0.0239105,1742092510.494357
0.028,-0.2425,-0.021,-0.0014037499,-0.0007935,0.0215455,1742092510.5091279
0.044,-0.248,-0.01375,-0.001419,-0.00175475,0.0210725,1742092510.523835
0.052,-0.2595,-0.00675,-0.0021819999,-0.0020599999,0.02389525,1742092510.5386932
0.0635,-0.276,0.002,-0.0025940002,-0.00108325,0.02636725,1742092510.5528939
0.06625,-0.2745,0.00275,-0.0025940002,0.001114,0.030456498,1742092510.568428
0.06875,-0.2585,-0.002,-0.0023345,0.001648,0.0313415,1742092510.581766
0.07075,-0.251,-0.005,-0.001892,0.00163275,0.031188998,1742092510.596472
0.07625,-0.2545,-0.0075,-0.00157175,0.00086975005,0.030899,1742092510.6109529
0.07925,-0.25625,-0.006,-0.00238025,0.00070200005,0.032608002,1742092510.625338
0.0825,-0.2545,-0.00325,-0.0045777503,0.0005035,0.03842175,1742092510.6398342
0.09575,-0.2495,-0.00325,-0.0055695,0.00064075,0.04148875,1742092510.6543732
0.102,-0.24225,-0.00525,-0.004776,0.0021515,0.0432435,1742092510.6688461
0.10675,-0.21575,-0.00925,-0.0034484998,0.0023497501,0.041748002,1742092510.6832159
0.1115,-0.2055,-0.012,-0.0013427499,0.00090025004,0.0368805,1742092510.697954
0.126,-0.20425,-0.00875,-0.0001525,0.00024425,0.03471375,1742092510.712276
0.13,-0.2085,-0.0055,0.00083925005,-7.625e-05,0.034011748,1742092510.728076
0.134,-0.21075,-0.00175,-0.0003815,0.00061025,0.0399475,1742092510.7411158
0.1475,-0.203,0.00375,-0.00228875,0.00143425,0.0452575,1742092510.755434
0.15425,-0.18975,0.003,-0.004593,0.0025787498,0.05154425,1742092510.769962
0.16075,-0.1555,-0.00625,-0.0039215,0.00228875,0.050583,1742092510.784498
0.1645,-0.14125,-0.0105,-0.00059500005,0.00042725,0.043273997,1742092510.7989702
0.18175,-0.12725,-0.004,0.00057975,-0.00042725,0.039367747,1742092510.813335
0.19325,-0.13,0.00575,-0.00051875,-0.0004425,0.03828425,1742092510.8286002
0.20425,-0.1435,0.0115,-0.00251775,0.000534,0.0420685,1742092510.842209
0.207,-0.138,0.00875,-0.00460825,0.0020905002,0.0467835,1742092510.856658
0.20825,-0.12325,0.00575,-0.00585925,0.0044250004,0.052368253,1742092510.871043
0.211,-0.09,0.00125,-0.0046845004,0.004547,0.0515595,1742092510.885775
0.21625,-0.07775,0.002,-0.00115975,0.0034637498,0.04476925,1742092510.900864
0.226,-0.06925,0.00525,-0.00013725001,0.00283825,0.04208375,1742092510.914567
0.2295,-0.069,0.00775,-0.0022125002,0.00254825,0.043945253,1742092510.929179
0.23225,-0.0615,0.0115,-0.00434875,0.0028687501,0.0467835,1742092510.943566
0.2305,-0.055,0.00475,-0.0050202496,0.00325,0.051437248,1742092510.9587479
0.2185,-0.0305,-0.00975,-0.0032195,0.0030365,0.05201725,1742092510.9724212
0.22075,-0.0165,-0.00625,-0.00143425,0.002655,0.051513746,1742092510.988681
0.2265,-0.00325,0.0035,-0.0021819999,0.002121,0.0507965,1742092511.0012548
0.23525,0.01875,0.017,-0.00485225,0.0021972498,0.05184925,1742092511.015641
0.238,0.0275,0.01625,-0.0094604995,0.0029145,0.055297747,1742092511.03013
0.233,0.046,0.00525,-0.0094604995,0.0036315,0.055618253,1742092511.044502
0.22775,0.05575,-0.0015,-0.0060577504,0.00567625,0.0512085,1742092511.0590951
0.2225,0.08025,-0.00525,-0.00402825,0.00672925,0.0473175,1742092511.0737112
0.218,0.09625,-0.004,-0.0034790002,0.0078735,0.04122925,1742092511.088532
0.209,0.121,-0.006,-0.0053252503,0.00773625,0.03993225,1742092511.102539
0.20725,0.128,-0.009,-0.0069885002,0.00737,0.038345248,1742092511.118588
0.208,0.13025,-0.0115,-0.008026,0.00723275,0.032364,1742092511.131645
0.20825,0.12225,-0.0225,-0.0071105,0.0074920002,0.028991751,1742092511.146229
0.19925,0.13125,-0.0285,0.000183,0.009872501,0.01548775,1742092511.160686
0.14775,0.233,-0.02875,0.003952,0.0125885,0.004547,1742092511.174923
0.07925,0.35425,-0.0415,0.0076599997,0.01911925,-0.03480525,1742092511.18935
-0.1375,0.66525,-0.125,0.0069580004,0.0190735,-0.06962575,1742092511.203806
-0.202,0.76075,-0.15975,-0.00019825,0.00555425,-0.1574555,1742092511.218677
-0.36025,0.7845,-0.19875,-0.00030525,-0.0029449998,-0.19741824,1742092511.233048
-0.4655,0.76225,-0.18125,0.0015105,-0.011550999,-0.2301025,1742092511.247807
-0.54,0.70775,-0.083,-0.0053709997,-0.02996825,-0.279892,1742092511.262516
-0.6075,0.1305,0.3155,-0.012741,-0.03291325,-0.29898074,1742092511.277164
-0.596,-0.45675,0.436,-0.0278015,-0.0093995,-0.27124026,1742092511.291682
-0.56475,-1.0,0.2305,-0.031540003,0.009521499,-0.21496575,1742092511.306437
-0.55625,-1.0,0.10775,-0.02977,0.014862,-0.090927005,1742092511.320925
-0.36925,-0.88725,-0.01325,-0.022796748,0.0043639997,-0.057251,1742092511.335566
-0.2595,-0.76375,-0.0395,-0.0032347501,-0.00846875,-0.04341125,1742092511.351396
-0.0965,-0.56125,-0.06325,0.0030975002,-0.011321999,-0.03923025,1742092511.364983
-0.03025,-0.45825,-0.068,0.0057372497,-0.01301575,-0.01460275,1742092511.3796842
0.06875,-0.305,-0.063,0.0053252503,-0.01193225,-0.00535575,1742092511.394449
0.0935,-0.27925,-0.05175,0.006607,-0.008941749,-0.004837,1742092511.409117
0.10175,-0.287,-0.01525,0.0065307496,-0.0075835,-0.0055085,1742092511.423838
0.0915,-0.29975,0.002,0.00596625,-0.0063934997,-0.0045012496,1742092511.438829
0.058,-0.311,0.0165,0.0063325,-0.0048065,-0.00059500005,1742092511.453008
0.0435,-0.304,0.019,0.0065765,-0.00369275,0.00320425,1742092511.4687538
0.02975,-0.28925,0.017,0.00444025,7.625e-05,0.01525875,1742092511.481717
0.00275,-0.2325,0.01,0.0033875,0.0014495,0.018814,1742092511.496004
-0.011,-0.21375,-0.001,0.003006,0.0017395001,0.015289251,1742092511.5105112
-0.02925,-0.2245,-0.02225,0.0028535,0.00064075,0.0127105,1742092511.525099
-0.026,-0.237,-0.024,0.00169375,-0.001892,0.01251225,1742092511.539773
-0.0075,-0.252,-0.02475,0.00083925005,-0.00228875,0.014495751,1742092511.554197
0.003,-0.24875,-0.02325,9.15e-05,-0.0022277501,0.016693002,1742092511.568672
0.01175,-0.24425,-0.021,0.00019825,-0.00251775,0.01681525,1742092511.5831208
0.02275,-0.25375,-0.019,0.00067150005,-0.00289925,0.015518251,1742092511.597619
0.028,-0.2635,-0.01725,0.00146475,-0.00355525,0.014724749,1742092511.612093
0.04525,-0.27425,-0.008,0.0016785001,-0.0037079998,0.015564,1742092511.6266081
0.057,-0.274,-0.00125,0.0007325,-0.00292975,0.01991275,1742092511.641002
0.07225,-0.273,0.00325,-0.00030525,-0.0019225,0.02285775,1742092511.655821
0.07375,-0.272,0.0005,-0.00160225,-0.00036625,0.0276185,1742092511.670217
0.074,-0.26375,-0.003,-0.00102225,-0.00035100002,0.027954001,1742092511.68484
0.0745,-0.25825,-0.0025,0.0012207499,-0.00146475,0.02592475,1742092511.700375
0.07925,-0.2525,0.004,0.0017242499,-0.0020752498,0.025589,1742092511.7139058
0.0835,-0.25375,0.006,0.0013580001,-0.0021819999,0.026535,1742092511.728331
0.08825,-0.25625,0.005,-0.000183,-0.00059500005,0.02948,1742092511.742817
0.0915,-0.253,-0.007,-9.15e-05,0.00045775,0.02961725,1742092511.75877
0.0925,-0.24275,-0.01275,0.00175475,0.0008545,0.027557248,1742092511.771731
0.097,-0.2275,-0.01575,0.00279225,0.00019825,0.02607725,1742092511.78602
0.10075,-0.2245,-0.0135,0.00399775,-0.0014495,0.022766002,1742092511.8016992
0.10675,-0.2285,-0.011,0.003769,-0.0022125002,0.023040751,1742092511.815109
0.111,-0.22875,-0.00825,0.0019989999,-0.0021819999,0.028015248,1742092511.82951
0.119,-0.22025,-0.0055,0.0012970001,-0.00143425,0.03019725,1742092511.8439832
0.12225,-0.21625,-0.00825,0.00090025004,-0.000763,0.0313415,1742092511.858623
0.12625,-0.21425,-0.01225,0.00115975,-0.00102225,0.031356752,1742092511.872802
0.13275,-0.21125,-0.0145,0.00160225,-0.00143425,0.03125,1742092511.88859
0.1365,-0.21,-0.01125,0.00086975005,-0.00181575,0.034057498,1742092511.901925
0.1445,-0.20325,-0.0075,-0.0005035,-0.001831,0.03712475,1742092511.9164228
0.14975,-0.19875,-0.009,-0.0025787498,-0.0019685,0.042328,1742092511.930919
0.158,-0.184,-0.01275,-0.002243,-0.0021515,0.04249575,1742092511.945477
0.16,-0.17625,-0.01275,0.00143425,-0.00364675,0.038437,1742092511.959957
0.16825,-0.16375,-0.00375,0.0029755002,-0.0044555003,0.036743253,1742092511.9745548
0.1775,-0.1615,0.0045,0.00331125,-0.0047912505,0.0366515,1742092511.989022
0.1865,-0.1595,0.01,0.0009765,-0.00302125,0.04141225,1742092512.0034502
0.19775,-0.14525,0.0105,-0.0005035,-0.00105275,0.04435725,1742092512.0185668
0.20275,-0.1365,0.01125,-0.000473,0.00177,0.04650875,1742092512.032609
0.204,-0.1235,0.0095,0.00048825,0.00238025,0.04628,1742092512.047041
0.20325,-0.116,0.0075,0.000946,0.0036010002,0.04704275,1742092512.061328
0.20825,-0.0945,0.0095,0.00035100002,0.00411975,0.0477905,1742092512.0756228
0.211,-0.083,0.00975,-0.000824,0.0046234997,0.048828,1742092512.089996
0.214,-0.064,0.00675,-0.00399775,0.00546275,0.05239875,1742092512.1070201
0.216,-0.0535,0.0075,-0.00587475,0.00564575,0.054794252,1742092512.119541
0.219,-0.0405,0.00775,-0.008377,0.0047455,0.057449248,1742092512.133999
0.21825,-0.01175,0.00425,-0.0088805,0.0043335,0.057602,1742092512.148397
0.21725,0.0005,0.00375,-0.01171875,0.0047455,0.0587615,1742092512.162753
0.2175,0.0225,0.00325,-0.014419501,0.0049590003,0.06169125,1742092512.177118
0.215,0.0415,0.0025,-0.01956175,0.00541675,0.06811525,1742092512.1913102
0.21,0.081,0.00375,-0.020599252,0.0062407497,0.069198504,1742092512.2056231
0.194,0.10775,0.002,-0.0202485,0.008361749,0.06839,1742092512.220005
0.15325,0.1455,-0.00825,-0.015442001,0.016296498,0.058609,1742092512.234445
0.012,0.32225,-0.07725,-0.013061499,0.020752002,0.04704275,1742092512.2487528
-0.073,0.50125,-0.1305,-0.014358499,0.020446751,-0.0035095,1742092512.263447
-0.21575,0.822,-0.184,-0.0152435,0.009155249,-0.044860747,1742092512.2790022
-0.24825,0.8235,-0.17875,-0.014510999,-0.022949249,-0.14320375,1742092512.2928262
-0.3135,0.7225,-0.13975,-0.01501475,-0.03189075,-0.184265,1742092512.307876
-0.3835,0.66925,-0.05375,-0.02212525,-0.044983003,-0.2541045,1742092512.3223171
-0.4275,0.003,0.3115,-0.029724,-0.05169675,-0.27407825,1742092512.3369339
-0.3525,-0.60375,0.409,-0.033981252,-0.03907775,-0.233261,1742092512.3515031
-0.27575,-1.0,0.285,-0.02497875,-0.02348325,-0.18759151,1742092512.3661911
-0.2925,-1.0,0.1885,-0.0133667495,-0.01402275,-0.1480865,1742092512.38079
-0.264,-0.78125,0.03575,0.0057677496,-0.014328,-0.1107635,1742092512.3954291
-0.21875,-0.7655,-0.0135,0.00924675,-0.015304499,-0.09573375,1742092512.410136
-0.175,-0.71025,-0.04225,0.011245751,-0.013137749,-0.058471747,1742092512.424703
-0.0855,-0.413,-0.044,0.0114744995,-0.012771499,-0.04451,1742092512.439483
-0.0385,-0.32075,-0.04425,0.009842,-0.013031,-0.03300475,1742092512.454208
0.0235,-0.32675,-0.05825,0.009445249,-0.01345825,-0.03050225,1742092512.4688
0.04425,-0.34375,-0.03775,0.008514499,-0.012741,-0.0187225,1742092512.4835021
0.07575,-0.33175,0.0105,0.00671375,-0.010376001,-0.009017999,1742092512.497809
0.08175,-0.3125,0.0265,0.0031585,-0.0048065,0.0065002497,1742092512.512179
0.06375,-0.2865,0.02925,0.0028687501,-0.002777,0.009552,1742092512.5266292
0.04425,-0.2775,0.02,0.0034484998,-0.00125125,0.010513251,1742092512.541192
0.013,-0.2425,0.01275,0.0042115003,0.00016775,0.010803251,1742092512.5556211
0.002,-0.22975,0.00575,0.0034637498,0.000122000005,0.0114135,1742092512.569959
-0.008,-0.21925,-0.0025,0.0004425,0.000473,0.014419501,1742092512.584339
-0.01675,-0.19875,-0.00325,-0.00077825,0.000229,0.0141145,1742092512.600977
-0.01425,-0.20775,-0.00275,-0.001587,-0.0018615,0.00962825,1742092512.6138968
-0.005,-0.259,-0.0005,-0.0012055,-0.002884,0.00785825,1742092512.6292439
-0.00075,-0.2825,0.00025,-0.0002595,-0.00343325,0.008788999,1742092512.643093
0.01425,-0.2855,0.0065,-0.0002135,-0.0032347501,0.0114135,1742092512.658901
0.02675,-0.2675,0.011,-0.0016632499,-0.0023039998,0.017608749,1742092512.672114
0.04225,-0.236,0.0105,-0.0023497501,-0.0017395001,0.019027751,1742092512.686535
0.04325,-0.2305,0.0065,-0.00239575,-0.00160225,0.018448,1742092512.701335
0.04475,-0.23425,0.00475,-0.0013275,-0.00254825,0.014648501,1742092512.715622
0.0475,-0.26725,0.00925,-0.00070200005,-0.00302125,0.013641249,1742092512.7301
0.04875,-0.28975,0.01325,-0.00016775,-0.0029145,0.015808,1742092512.744545
0.05875,-0.319,0.02225,-0.00013725001,-0.00238025,0.018615749,1742092512.759105
0.064,-0.323,0.0225,-0.00016775,-0.0009765,0.026397752,1742092512.7737322
0.0715,-0.31175,0.01825,-0.000183,-0.00029,0.03012075,1742092512.788675
0.0735,-0.30075,0.0145,0.000473,0.00033575002,0.03445425,1742092512.80269
0.077,-0.2855,0.00775,0.001068,0.00030525,0.035476748,1742092512.81863
0.0785,-0.2785,0.006,0.00157175,0.000229,0.036300752,1742092512.831498
0.08,-0.269,0.00575,0.00184625,-0.0001525,0.038269002,1742092512.8459399
0.092,-0.2545,0.009,0.0016175,-0.0001525,0.03970325,1742092512.860439
0.102,-0.2535,0.01075,0.00074775,0.000229,0.043151747,1742092512.874919
0.116,-0.23025,0.00875,0.0010375,-0.000229,0.0437775,1742092512.889311
0.12175,-0.2155,0.00975,0.00270075,-0.00125125,0.0421295,1742092512.9037309
0.1305,-0.19475,0.01075,0.00308225,-0.00099175,0.040969748,1742092512.918632
0.1355,-0.189,0.01025,0.00245675,0.00057975,0.040451,1742092512.932538
0.1465,-0.17625,0.0095,0.0021515,0.00080875,0.040573,1742092512.946927
0.15425,-0.16725,0.0105,0.001953,0.00057975,0.0405425,1742092512.961248
0.16,-0.15575,0.0105,0.00228875,-0.0004425,0.03837575,1742092512.9756548
0.16825,-0.1395,0.00875,0.0026854998,-0.0007325,0.036163248,1742092512.990002
0.17325,-0.13875,0.00975,0.0027312501,-0.00013725001,0.032318,1742092513.004406
0.18225,-0.14375,0.01325,0.002411,0.0004425,0.031601,1742092513.018763
0.1845,-0.14325,0.01375,0.0016785001,0.0013580001,0.032196,1742092513.032897
0.186,-0.133,0.01375,0.00149525,0.001587,0.032364,1742092513.047222
0.1875,-0.131,0.01375,0.00146475,0.001648,0.03224175,1742092513.061483
0.18925,-0.1305,0.014,0.001236,0.001831,0.031997748,1742092513.0759392
0.197,-0.1255,0.01325,0.000229,0.0021515,0.03312675,1742092513.0903249
0.2015,-0.12075,0.01225,-0.0025787498,0.0030975002,0.037445,1742092513.1049118
0.205,-0.11175,0.008,-0.00331125,0.00343325,0.039093,1742092513.1193442
0.20675,-0.10625,0.0075,-0.0033722501,0.00340275,0.04078675,1742092513.1337888
0.213,-0.0915,0.0095,-0.0029907501,0.0031585,0.04093925,1742092513.148298
0.21875,-0.08025,0.0125,-0.002121,0.00317375,0.038742002,1742092513.162805
0.22475,-0.05675,0.01425,-0.002243,0.00364675,0.037262,1742092513.178577
0.228,-0.0535,0.01375,-0.0031889998,0.00444025,0.03666675,1742092513.191822
0.2305,-0.054,0.012,-0.00590525,0.00593575,0.038208,1742092513.2062988
0.227,-0.051,0.00325,-0.0067902496,0.0062865,0.040069498,1742092513.2208462
0.22625,-0.04225,0.00275,-0.0068207504,0.006363,0.042923,1742092513.235323
0.2285,-0.01875,0.0075,-0.0065917503,0.00621025,0.043151747,1742092513.251194
0.23525,-0.0085,0.014,-0.00764475,0.0072175004,0.04252625,1742092513.264415
0.24975,0.0035,0.02425,-0.0088195,0.00889575,0.0427705,1742092513.2787561
0.25425,0.00325,0.0255,-0.0139465,0.0139770005,0.046737753,1742092513.2929778
0.25625,0.009,0.0155,-0.0168,0.0166015,0.0505065,1742092513.308384
0.2485,0.015,0.00425,-0.018814,0.01879875,0.0546265,1742092513.322006
0.235,0.02725,-0.01,-0.019592252,0.0222625,0.0614165,1742092513.3363929
0.20225,0.06175,-0.02925,-0.0170135,0.023758,0.061035253,1742092513.351346
0.185,0.08775,-0.03125,-0.00596625,0.02810675,0.049087502,1742092513.365334
0.09925,0.1925,-0.04875,0.000946,0.031692497,0.037658747,1742092513.379642
0.009,0.3145,-0.08375,0.00671375,0.035431,0.0019685,1742092513.393897
-0.21925,0.7355,-0.19625,0.002472,0.029174749,-0.027069,1742092513.408684
-0.286,0.841,-0.23925,-0.00466925,0.014419501,-0.063919,1742092513.423007
-0.3665,0.759,-0.26325,-0.01194775,-0.0168,-0.15313725,1742092513.4388218
-0.41525,0.7025,-0.23625,-0.01091,-0.026062,-0.19902025,1742092513.452472
-0.449,0.6305,-0.14525,-0.01982125,-0.04989625,-0.2733765,1742092513.468867
-0.44475,0.1565,0.24475,-0.025970502,-0.059372,-0.2967225,1742092513.481822
-0.44875,-0.2195,0.40825,-0.021560749,-0.042678747,-0.3048095,1742092513.49651
-0.55525,-0.9505,0.408,-0.01460275,-0.021927001,-0.2777405,1742092513.511231
-0.58575,-1.0,0.20725,-0.017303498,0.012039251,-0.13902275,1742092513.525908
-0.47625,-0.94775,-0.00825,-0.021453751,0.0152435,-0.0692445,1742092513.540606
-0.37275,-0.7825,-0.02475,-0.009719751,-0.0009155,-0.01950075,1742092513.555278
-0.20025,-0.521,-0.0725,0.00149525,-0.00738525,-0.02503975,1742092513.56997
-0.1265,-0.44825,-0.0795,0.009491,-0.01206975,-0.028885,1742092513.584681
-0.0165,-0.339,-0.06625,0.00738525,-0.0112305,-0.02127075,1742092513.601842
0.01625,-0.3115,-0.06475,0.0012665,-0.0077210004,-0.0025025,1742092513.6144269
0.052,-0.27875,-0.05075,7.625e-05,-0.006607,0.00204475,1742092513.629112
0.0645,-0.27175,-0.0295,0.00027475,-0.0064545004,0.0022735,1742092513.64368
0.06275,-0.298,-0.001,0.0019685,-0.00671375,-0.00177,1742092513.658279
0.05125,-0.31275,0.00375,0.00242625,-0.0062255003,-0.001419,1742092513.672895
0.04025,-0.31775,0.00975,0.0023497501,-0.0038605002,0.006546,1742092513.68862
0.0165,-0.29975,0.01175,0.001831,-0.0022277501,0.012115501,1742092513.703476
0.0045,-0.28175,0.005,0.00013725001,0.00033575002,0.02114875,1742092513.716015
-0.011,-0.2465,-0.00775,-0.00033575002,0.000824,0.022186251,1742092513.730703
-0.01775,-0.241,-0.0155,6.1000002e-05,-0.00071725,0.019317752,1742092513.745409
-0.01525,-0.25375,-0.01675,0.000122000005,-0.00181575,0.0180665,1742092513.760028
-0.00825,-0.2685,-0.01525,-7.625e-05,-0.002411,0.017685,1742092513.774701
0.0075,-0.2905,-0.01475,-7.625e-05,-0.0026092501,0.01890575,1742092513.789356
0.019,-0.29025,-0.0115,-0.000122000005,-0.00296025,0.02076725,1742092513.8038971
0.032,-0.27775,-0.011,-0.00064075,-0.00270075,0.0245515,1742092513.8186061
0.03275,-0.269,-0.01025,-0.00071725,-0.0023497501,0.025421249,1742092513.83291
0.03575,-0.264,-0.00975,0.0009155,-0.00302125,0.023407,1742092513.847454
0.0445,-0.26675,-0.01075,0.0024414998,-0.0034790002,0.02171325,1742092513.861907
0.046,-0.26575,-0.011,0.0034637498,-0.0037537501,0.02265925,1742092513.876506
0.05775,-0.25825,-0.00725,0.002655,-0.0036315,0.025314251,1742092513.891008
0.06775,-0.25075,-0.003,0.000946,-0.00263975,0.03022775,1742092513.905699
0.08275,-0.23175,0.00025,0.0009155,-0.0020599999,0.030883752,1742092513.920129
0.086,-0.2245,-0.002,0.00119025,-0.0012970001,0.02996825,1742092513.9345841
0.08875,-0.22,-0.007,0.0012817499,-0.00115975,0.0291595,1742092513.949107
0.089,-0.22075,-0.009,0.00143425,-0.00115975,0.02838125,1742092513.963773
0.0885,-0.22175,-0.0105,0.001175,-0.0012207499,0.02835075,1742092513.978892
0.0955,-0.218,-0.00975,0.0004425,-0.0012207499,0.02958675,1742092513.992796
0.1,-0.2135,-0.00975,-0.00074775,-0.0013580001,0.032364,1742092514.007923
0.11175,-0.19975,-0.0095,-0.00096125,-0.0013580001,0.032669,1742092514.0220191
0.1175,-0.1935,-0.01,3.0500001e-05,-0.00190725,0.03019725,1742092514.0365472
0.128,-0.185,-0.00975,0.0009765,-0.002655,0.027740499,1742092514.051053
0.134,-0.184,-0.005,0.00289925,-0.0042572496,0.022583,1742092514.065653
0.1465,-0.2005,0.0035,0.0028074998,-0.0040435,0.022216748,1742092514.080039
0.15175,-0.21,0.0055,0.00184625,-0.0030669998,0.02445975,1742092514.094432
0.1565,-0.20375,0.00225,-0.00070200005,-0.00086975005,0.033264253,1742092514.108896
0.15675,-0.19,-0.00175,-0.001587,-0.00029,0.03663625,1742092514.1235251
0.15825,-0.1765,-0.0045,-0.0012817499,-0.0005035,0.0375825,1742092514.138381
0.16725,-0.15875,-0.0045,-0.00024425,-0.0012817499,0.0361175,1742092514.15272
0.173,-0.1545,0.00025,0.000412,-0.0025025,0.03395075,1742092514.168013
0.18425,-0.1525,0.00725,-0.000473,-0.002472,0.034668,1742092514.181761
0.18925,-0.15125,0.009,-0.00283825,-0.00131225,0.03804025,1742092514.196349
0.1965,-0.14575,0.00675,-0.0034484998,-0.000763,0.039794996,1742092514.210803
0.20175,-0.14,0.00675,-0.00358575,-0.00027475,0.04151925,1742092514.2253902
0.20875,-0.122,0.0095,-0.0034942501,0.00013725001,0.04110725,1742092514.2397912
0.212,-0.1115,0.0125,-0.0033264998,0.000763,0.0401305,1742092514.254312
0.2165,-0.10375,0.015,-0.00276175,0.0020295,0.03822325,1742092514.268688
0.22525,-0.09975,0.01675,-0.002777,0.0025787498,0.037887502,1742092514.283225
0.22825,-0.0995,0.01625,-0.0039215,0.00411975,0.038772497,1742092514.2978308
0.2275,-0.08925,0.0115,-0.0045625,0.0048979996,0.039779752,1742092514.312236
0.22675,-0.0795,0.01075,-0.006073,0.0065612504,0.04208375,1742092514.3280342
0.22975,-0.05975,0.01475,-0.0074004997,0.0075377496,0.04335025,1742092514.3412092
0.23475,-0.05725,0.0165,-0.011016751,0.009384249,0.047104,1742092514.3557088
0.241,-0.04825,0.01375,-0.0127105,0.0101775,0.04881275,1742092514.370317
0.246,-0.0375,0.01075,-0.01380925,0.010727,0.04983525,1742092514.384695
0.24875,-0.0275,0.00975,-0.014663749,0.0116425,0.051330503,1742092514.399414
0.2415,-0.01675,0.00725,-0.0158385,0.012436,0.05229175,1742092514.414023
0.23575,-0.01,0.002,-0.020813,0.014419501,0.05796825,1742092514.428597
0.22875,0.01625,-0.002,-0.02265925,0.0154725,0.06095875,1742092514.443038
0.2285,0.03675,-0.0025,-0.02256775,0.01782225,0.06172175,1742092514.458484
0.219,0.075,-0.0195,-0.020141501,0.0186005,0.058776747,1742092514.472002
0.20025,0.0925,-0.03675,-0.0105742505,0.01855475,0.04727175,1742092514.486634
0.1245,0.1675,-0.083,-0.0050202496,0.018020751,0.03854375,1742092514.500999
0.0625,0.25525,-0.123,-0.00036625,0.016876249,0.026947001,1742092514.515445
-0.08325,0.54275,-0.216,0.0050812503,0.008773751,-0.012405501,1742092514.5299819
-0.15125,0.66875,-0.2655,0.007843,-0.00016775,-0.045287997,1742092514.544823
-0.20175,0.7465,-0.2955,0.013488751,-0.02159125,-0.13383475,1742092514.5595012
-0.28875,0.80625,-0.299,0.00982675,-0.031188998,-0.173355,1742092514.5740778
-0.33175,0.78525,-0.25875,-0.005249,-0.050964247,-0.2415925,1742092514.588806
-0.44875,0.5025,0.04125,-0.0053252503,-0.0614165,-0.278244,1742092514.60322
-0.521,0.15675,0.24725,0.0043335,-0.06333925,-0.32690424,1742092514.618784
-0.6415,-0.75575,0.4095,0.01104725,-0.046768248,-0.3170625,1742092514.632391
-0.691,-1.0,0.33425,0.010849,0.00065625,-0.2060395,1742092514.646794
-0.64925,-1.0,0.097,-0.0031889998,0.017105,-0.123108,1742092514.6614249
-0.5495,-0.9135,0.01475,-0.01808175,0.02439875,-0.0521545,1742092514.676068
-0.32525,-0.56975,-0.10025,-0.009719751,0.0084379995,-0.009796251,1742092514.690774
-0.20175,-0.45625,-0.11125,0.00279225,-0.00570675,-0.0194245,1742092514.705524
-0.09475,-0.38325,-0.09075,0.009521499,-0.01855475,-0.02572625,1742092514.720203
0.01875,-0.28425,-0.03425,0.006012,-0.016159,-0.01823425,1742092514.734748
0.04025,-0.2745,-0.021,-0.0016632499,-0.00646975,0.00115975,1742092514.751286
0.05,-0.3005,-0.011,-0.003418,-0.0026245,0.008316,1742092514.7642891
0.04725,-0.306,-0.00375,-0.00216675,-0.00027475,0.011169501,1742092514.778989
0.02875,-0.29525,0.0015,0.00039675,-0.00169375,0.0078735,1742092514.7935412
0.023,-0.2895,0.004,0.00396725,-0.00546275,0.0034942501,1742092514.808301
0.01975,-0.281,0.0235,0.00390625,-0.0057220003,0.004593,1742092514.822577
0.016,-0.27575,0.029,0.0017852499,-0.0025025,0.0106965,1742092514.838881
-0.00725,-0.25875,0.014,0.000473,-0.0003205,0.0138702495,1742092514.851742
-0.01975,-0.24525,0.00375,-0.00051875,0.000885,0.015747,1742092514.8661811
-0.0275,-0.233,-0.0025,-0.00061025,-0.00039675,0.014587499,1742092514.88077
-0.02575,-0.227,-0.00425,-0.00062550005,-0.00160225,0.01361075,1742092514.895495
-0.01775,-0.23175,0.002,-0.0021972498,-0.0019989999,0.01380925,1742092514.910097
-0.00625,-0.26175,0.00375,-0.0030365,-0.0016632499,0.01454175,1742092514.924709
-0.00025,-0.276,0.002,-0.00402825,-0.00198375,0.017517,1742092514.93943
0.0165,-0.281,0.0095,-0.0038757501,-0.0022735,0.018707251,1742092514.954048
0.02275,-0.277,0.0135,-0.0030365,-0.0021057501,0.0198365,1742092514.968509
0.0315,-0.27325,0.0165,-0.0027312501,-0.00177,0.02053825,1742092514.98298
0.03675,-0.27075,0.0165,-0.000763,-0.0013427499,0.019897498,1742092514.997504
0.04075,-0.26625,0.01175,0.000473,-0.00149525,0.019287001,1742092515.012056
0.044,-0.26425,0.01125,0.00086975005,-0.00160225,0.019867001,1742092515.026623
0.055,-0.26375,0.014,-0.00067150005,-0.000534,0.024047751,1742092515.041077
0.05975,-0.26,0.0145,-0.0012665,0.00035100002,0.025833251,1742092515.055514
0.0635,-0.2535,0.013,-0.00077825,0.00112925,0.02575675,1742092515.0700202
0.069,-0.24225,0.00725,-7.625e-05,0.00083925005,0.02436825,1742092515.0845141
0.06925,-0.24,0.005,0.0016175,-0.0003815,0.021041749,1742092515.098976
0.069,-0.23875,0.00425,0.002121,-0.001007,0.01985175,1742092515.1136
0.069,-0.23875,0.00325,0.0019225,-0.00238025,0.01976025,1742092515.1282141
0.07675,-0.23575,0.0025,0.0016175,-0.0030669998,0.02029425,1742092515.142671
0.08225,-0.232,0.00175,0.0017242499,-0.00378425,0.02041625,1742092515.158198
0.089,-0.226,0.0025,0.0033570002,-0.0049895,0.01826475,1742092515.171804
0.09075,-0.222,0.0035,0.00434875,-0.00546275,0.0163575,1742092515.1864069
0.093,-0.2195,0.00625,0.0057677496,-0.0062407497,0.0129700005,1742092515.2023292
0.103,-0.22525,0.015,0.00541675,-0.0061950004,0.01310725,1742092515.215286
0.10825,-0.2335,0.019,0.00193775,-0.004074,0.0194245,1742092515.229653
0.115,-0.251,0.025,-0.00042725,-0.00228875,0.0246125,1742092515.2440991
0.11575,-0.2535,0.02275,-0.0048674997,0.00115975,0.03515625,1742092515.258482
0.11375,-0.24,0.00975,-0.0058287503,0.0019225,0.03862,1742092515.27376
0.1145,-0.2305,0.006,-0.0045777503,0.00067150005,0.04072575,1742092515.288578
0.1275,-0.2235,0.016,-0.0034637498,-0.000412,0.040969748,1742092515.302774
0.139,-0.22575,0.0215,-0.0030365,-0.00096125,0.04245,1742092515.318531
0.151,-0.2265,0.025,-0.0050355,0.00067150005,0.05036925,1742092515.3316228
0.16875,-0.2035,0.02925,-0.00593575,0.00198375,0.053527746,1742092515.345953
0.17475,-0.18575,0.02625,-0.00325,0.0022735,0.053542998,1742092515.3603919
0.1825,-0.158,0.018,-0.0009765,0.00148,0.051773,1742092515.3749702
0.186,-0.146,0.017,0.0009155,0.0004425,0.048568748,1742092515.389336
0.19325,-0.12125,0.017,0.00119025,6.1000002e-05,0.04653925,1742092515.4035358
0.19525,-0.11275,0.016,0.0041810004,-0.001587,0.0387115,1742092515.4187179
0.1935,-0.103,0.0135,0.00637825,-0.0025634998,0.034057498,1742092515.432249
0.1915,-0.09875,0.0125,0.008270251,-0.0034637498,0.0301665,1742092515.446804
0.1895,-0.09425,0.01425,0.0103455,-0.005249,0.0263825,1742092515.461411
0.1935,-0.09,0.01975,0.01062,-0.0062407497,0.0265045,1742092515.475769
0.20025,-0.08975,0.0255,0.0084379995,-0.0060882503,0.029449498,1742092515.490226
0.21275,-0.08575,0.0355,0.005539,-0.004837,0.032135,1742092515.504732
0.21725,-0.0795,0.037,-0.0003205,-0.001419,0.036789,1742092515.519239
0.22475,-0.07375,0.03675,-0.001831,-9.15e-05,0.037735,1742092515.533777
0.2255,-0.074,0.03775,-0.00358575,0.0012207499,0.039276,1742092515.5484009
0.232,-0.07225,0.045,-0.0054932497,0.002121,0.0414735,1742092515.562876
0.237,-0.06775,0.0505,-0.008545,0.00372325,0.045105,1742092515.577257
0.24325,-0.06175,0.0535,-0.013931249,0.00773625,0.05255125,1742092515.5916219
0.2485,-0.0415,0.05,-0.014068499,0.009658749,0.054809503,1742092515.6061099
0.24475,-0.02725,0.04475,-0.01098625,0.013061499,0.053680502,1742092515.620546
0.23,0.00025,0.03025,-0.01048275,0.01445,0.05264275,1742092515.634788
0.2245,0.01575,0.022,-0.01248175,0.016983,0.054947,1742092515.6492329
0.2125,0.05925,0.00825,-0.012436,0.018448,0.056259252,1742092515.663594
0.20025,0.10075,0.004,-0.010559,0.020019501,0.055419996,1742092515.67926
0.17925,0.162,-0.001,-0.0042725,0.023650998,0.04322825,1742092515.692207
0.0935,0.38525,-0.03925,-0.00317375,0.02575675,0.030609248,1742092515.70651
0.019,0.579,-0.09925,-0.00579825,0.024383498,-0.017181499,1742092515.721039
-0.1835,0.87675,-0.24175,-0.0075682504,0.015625,-0.051513746,1742092515.735774
-0.23225,0.8315,-0.2435,-0.0097045,-0.009292499,-0.120926,1742092515.75122
-0.24775,0.74075,-0.162,-0.008865249,-0.01560975,-0.15187074,1742092515.765095
-0.2725,0.722,-0.09925,-0.01266475,-0.020049999,-0.218338,1742092515.779658
-0.4285,0.48275,0.13725,-0.01295475,-0.024810748,-0.25979626,1742092515.794231
-0.5255,0.134,0.3,-0.0150605,-0.025787251,-0.30542,1742092515.808898
-0.684,-0.80925,0.38125,-0.01504525,-0.0116425,-0.28739926,1742092515.823631
-0.73775,-1.0,0.25675,-0.0169525,0.008285499,-0.23869325,1742092515.83866
-0.729,-1.0,0.12275,-0.029541,0.02507025,-0.09667975,1742092515.852624
-0.49525,-0.897,0.0165,-0.028289748,0.0158385,-0.04986575,1742092515.868942
-0.3545,-0.7525,-0.02075,-0.008361749,-0.008316,-0.029541,1742092515.881705
-0.1565,-0.53725,-0.09625,0.00036625,-0.013382,-0.029220501,1742092515.89649
-0.0805,-0.441,-0.07875,0.00302125,-0.01133725,-0.0170135,1742092515.9112031
0.04475,-0.312,-0.0205,0.00105275,-0.00912475,-0.009933501,1742092515.9257998
0.08325,-0.29275,-0.01125,-0.00146475,-0.00672925,-0.000885,1742092515.940584
0.10475,-0.296,0.004,-0.00175475,-0.0052642496,0.0012207499,1742092515.954994
0.0935,-0.302,0.011,-0.0002595,-0.00314325,0.00048825,1742092515.969569
0.066,-0.30925,0.01525,0.0009765,-0.0035095,-0.00016775,1742092515.984097
0.05975,-0.30525,0.0195,0.00187675,-0.00419625,0.00070200005,1742092515.998493
0.0555,-0.29475,0.03125,0.0016785001,-0.00369275,0.0060577504,1742092516.012913
0.03775,-0.27725,0.04475,0.0008545,-0.0019989999,0.009002751,1742092516.0285661
0.0185,-0.27125,0.03375,-0.000473,0.0021057501,0.01460275,1742092516.041674
-0.017,-0.2495,0.00675,-0.00077825,0.00289925,0.016693002,1742092516.056318
-0.02425,-0.24225,-0.00075,-0.0001525,0.000763,0.0161895,1742092516.070799
-0.0235,-0.25925,-0.013,0.00013725001,-0.0009155,0.015289251,1742092516.085272
-0.0125,-0.271,-0.008,-0.00074775,-0.00270075,0.016967751,1742092516.100629
0.019,-0.28075,0.013,-0.00154125,-0.00267025,0.01852425,1742092516.114384
0.0305,-0.2825,0.01825,-0.00187675,-0.0024872501,0.01979075,1742092516.129066
0.0395,-0.28075,0.02175,-0.00045775,-0.00228875,0.020523,1742092516.143538
0.048,-0.27125,0.01925,0.001068,-0.0020905002,0.0194855,1742092516.1586041
0.0475,-0.266,0.013,0.00334175,-0.0021057501,0.01799,1742092516.172802
0.05075,-0.2595,0.01,0.00355525,-0.0023345,0.018509,1742092516.188668
0.05425,-0.2615,0.012,0.0030975002,-0.0022735,0.021514999,1742092516.20188
0.0645,-0.2615,0.01525,0.0024872501,-0.001892,0.0234375,1742092516.216328
0.071,-0.25775,0.01675,0.001648,-0.0012665,0.026291,1742092516.2306812
0.082,-0.24875,0.0205,0.0017395001,-0.0011445,0.02677925,1742092516.245176
0.08525,-0.24425,0.02125,0.0022735,-0.0010375,0.0266875,1742092516.259692
0.0845,-0.23675,0.019,0.003128,-0.0005035,0.026550248,1742092516.2741928
0.086,-0.234,0.019,0.00239575,-9.15e-05,0.0276185,1742092516.288917
0.0885,-0.23275,0.01675,-0.00010675,0.0007325,0.03108225,1742092516.303432
0.092,-0.22775,0.0105,-0.00062550005,0.00083925005,0.0318145,1742092516.318335
0.095,-0.2225,0.0095,0.0005035,-0.0001525,0.030014,1742092516.332371
0.10475,-0.21125,0.0085,0.0014037499,-0.0007325,0.028473,1742092516.346904
0.112,-0.21175,0.013,0.00276175,-0.0012665,0.025711,1742092516.361433
0.12025,-0.215,0.01,0.00354,-0.00137325,0.0247955,1742092516.376062
0.1225,-0.21375,0.00725,0.00437925,-0.0011445,0.02598575,1742092516.390485
0.12775,-0.2095,0.006,0.00413525,-0.00086975005,0.0280915,1742092516.405051
0.13225,-0.206,0.008,0.00355525,-0.00080875,0.0305175,1742092516.4195242
0.13825,-0.19975,0.011,0.00239575,-0.0012970001,0.03373725,1742092516.4339871
0.1485,-0.182,0.01375,0.0018005001,-0.00149525,0.034149252,1742092516.448492
0.15175,-0.1745,0.01125,0.00039675,-0.00160225,0.033935502,1742092516.463003
0.16075,-0.1705,0.00625,0.00010675,-0.001831,0.03370675,1742092516.479003
0.168,-0.17125,0.00575,0.00112925,-0.00242625,0.03256225,1742092516.49189
0.18,-0.16925,0.00875,0.0023039998,-0.00231925,0.0310975,1742092516.506392
0.18175,-0.16275,0.0105,0.00491325,-0.001648,0.027176,1742092516.5208929
0.182,-0.1475,0.01025,0.0055085,-0.00160225,0.0260315,1742092516.5353868
0.183,-0.14075,0.0085,0.0052642496,-0.00163275,0.025848499,1742092516.551929
0.186,-0.1365,0.00775,0.004547,-0.001175,0.026000999,1742092516.564608
0.19475,-0.133,0.01175,0.004593,-0.001007,0.0256805,1742092516.579196
0.2005,-0.132,0.01475,0.0042115003,-0.0014495,0.025879,1742092516.593716
0.20975,-0.1225,0.01725,0.0040587503,-0.0016632499,0.0261535,1742092516.6086478
0.21025,-0.11575,0.016,0.00488275,-0.0013885,0.0248565,1742092516.622781
0.21475,-0.10425,0.01325,0.0053252503,-0.00115975,0.0236665,1742092516.638874
0.2195,-0.10075,0.0145,0.0048065,-0.0005035,0.022934001,1742092516.65201
0.228,-0.10275,0.021,0.0034484998,0.000183,0.02445975,1742092516.666292
0.23125,-0.1085,0.02475,0.00016775,0.0018615,0.030777,1742092516.680682
0.23175,-0.115,0.022,-0.0012817499,0.0032195,0.0345155,1742092516.695432
0.2315,-0.1105,0.01725,-0.0020295,0.0047607496,0.03752125,1742092516.709899
0.229,-0.10125,0.012,0.00067150005,0.00567625,0.038681,1742092516.724189
0.22425,-0.07075,0.00725,0.0028229998,0.0046845004,0.038208,1742092516.739071
0.22425,-0.05525,0.009,0.00251775,0.0033875,0.0402985,1742092516.752898
0.23075,-0.036,0.019,-0.00065625,0.0040587503,0.04312125,1742092516.767292
0.23525,-0.031,0.0215,-0.00708,0.0062712496,0.04969775,1742092516.7816708
0.23225,-0.0195,0.0105,-0.0074920002,0.0069274995,0.050827,1742092516.796291
0.2275,-0.01475,0.004,-0.0059205,0.0071105,0.050003,1742092516.8105888
0.22525,-0.0125,0.00125,-0.00108325,0.0068055,0.047821,1742092516.824966
0.216,0.00725,0.00375,0.00035100002,0.00662225,0.048294,1742092516.839492
0.21125,0.0295,0.0085,-0.0003815,0.0070952503,0.0522155,1742092516.853878
0.18775,0.106,0.01875,0.00062550005,0.009017999,0.052124,1742092516.86832
0.14625,0.15325,0.0205,0.00770575,0.01661675,0.040634252,1742092516.882177
-0.0075,0.37275,-0.011,0.010101249,0.020355249,0.029739501,1742092516.896757
-0.0825,0.62775,-0.04875,-0.002655,0.017547501,-0.015396,1742092516.911427
-0.163,0.97275,-0.1015,-0.018920999,0.00561525,-0.04916375,1742092516.926165
-0.206,0.88925,-0.08925,-0.0342865,-0.0068969997,-0.087677,1742092516.941178
-0.33675,0.57325,-0.07575,-0.040954497,-0.01504525,-0.17103575,1742092516.95598
-0.44075,0.5195,-0.031,-0.028183,-0.017608749,-0.218689,1742092516.9706922
-0.541,0.35625,0.09475,0.0040435,-0.037048247,-0.30346674,1742092516.985197
-0.573,-0.4895,0.379,-6.1000002e-05,-0.04100025,-0.30979925,1742092517.001109
-0.539,-0.91175,0.3525,-0.027007999,-0.0045012496,-0.22499076,1742092517.014566
-0.458,-1.0,0.021,-0.03392025,0.01849375,-0.15885925,1742092517.02946
-0.38475,-0.9465,-0.048,-0.01890575,0.013626001,-0.086181745,1742092517.04406
-0.2475,-0.66525,-0.01375,-0.00982675,-0.000534,-0.0785065,1742092517.058802
-0.189,-0.64075,-0.01425,-0.0034484998,-0.0078125,-0.060379002,1742092517.073463
-0.0895,-0.5625,-0.06825,-0.0018005001,-0.00520325,-0.043975748,1742092517.089035
-0.0335,-0.46,-0.06725,-3.0500001e-05,-0.0019225,-0.013153,1742092517.1029189
0.05625,-0.29675,-0.0255,0.0012817499,-0.00292975,-0.00579825,1742092517.1187541
0.0705,-0.272,-0.00525,0.00355525,-0.004837,-0.004242,1742092517.13204
0.05225,-0.3135,0.019,0.0029755002,-0.0034942501,-0.00343325,1742092517.1464388
0.03425,-0.33875,0.02275,0.0017852499,-0.00177,-0.0005035,1742092517.160913
0.02025,-0.35175,0.02075,-0.00042725,0.00033575002,0.012146,1742092517.175393
0.0125,-0.31475,0.02,-0.001587,0.0012970001,0.019439751,1742092517.189759
0.0125,-0.2755,0.0265,-0.0023345,0.0030669998,0.025085501,1742092517.2040489
-0.002,-0.22475,0.02675,-0.0015105,0.00334175,0.022369498,1742092517.218466
-0.0165,-0.22525,0.01925,-0.00033575002,0.002777,0.01605225,1742092517.2328699
-0.035,-0.252,0.00275,-0.00064075,0.0023497501,0.01548775,1742092517.247394
-0.037,-0.26025,-0.003,-0.0013885,0.0020295,0.016739,1742092517.261955
-0.026,-0.264,-0.0035,-0.00343325,0.00090025004,0.0213165,1742092517.27663
-0.0155,-0.2665,-0.0005,-0.0039215,-9.15e-05,0.02288825,1742092517.291361
-0.00375,-0.26975,0.00325,-0.0034790002,-0.001892,0.023956249,1742092517.3059368
0.0215,-0.2755,0.0115,-0.002655,-0.002472,0.0235595,1742092517.320467
0.032,-0.28425,0.0145,-0.00045775,-0.0033264998,0.02288825,1742092517.3349671
0.045,-0.29775,0.017,0.00027475,-0.00352475,0.02374275,1742092517.349351
0.05225,-0.294,0.01975,0.00071725,-0.0038299998,0.02645875,1742092517.3637471
0.067,-0.2745,0.0265,0.00071725,-0.003952,0.027587999,1742092517.3790238
0.074,-0.26425,0.03,-0.0002135,-0.00358575,0.02931225,1742092517.39249
0.0855,-0.2535,0.0315,-0.00099175,-0.00305175,0.03009025,1742092517.406923
0.088,-0.25275,0.028,-0.0015565,-0.0023345,0.03079225,1742092517.4214668
0.088,-0.25425,0.0235,-0.0013427499,-0.00065625,0.031845,1742092517.4359522
0.09,-0.251,0.02375,-0.000473,4.575e-05,0.031952,1742092517.451045
0.0925,-0.24625,0.02475,0.00190725,0.00067150005,0.03117375,1742092517.464777
0.098,-0.233,0.026,0.0028074998,0.00083925005,0.03079225,1742092517.4790552
0.102,-0.22425,0.02725,0.0046234997,0.00067150005,0.02934275,1742092517.493269
0.108,-0.21,0.0245,0.0052795,0.00064075,0.028442498,1742092517.508676
0.1115,-0.20325,0.02425,0.0055695,0.00064075,0.027542,1742092517.521782
0.114,-0.1975,0.0215,0.0057677496,0.00027475,0.0256805,1742092517.535968
0.117,-0.19125,0.0135,0.0054932497,-0.0001525,0.025268499,1742092517.55157
0.11925,-0.192,0.01125,0.0038757501,-0.00070200005,0.026428249,1742092517.564973
0.126,-0.19525,0.01275,0.0025940002,-0.00086975005,0.02804575,1742092517.579396
0.1325,-0.19425,0.015,0.0002135,-0.0013427499,0.03149425,1742092517.5938802
0.14775,-0.1845,0.023,-0.000122000005,-0.0015565,0.03221125,1742092517.608372
0.1545,-0.17925,0.02675,0.00054925,-0.00177,0.0315095,1742092517.623102
0.1605,-0.175,0.0265,0.00036625,-0.00184625,0.03182975,1742092517.6388328
0.1635,-0.16925,0.02525,-0.00065625,-0.00184625,0.033264253,1742092517.65229
0.1695,-0.16125,0.02625,-0.00289925,-0.00099175,0.035675,1742092517.666743
0.18225,-0.1495,0.031,-0.00352475,-3.0500001e-05,0.03578175,1742092517.681221
0.18825,-0.14475,0.03175,-0.0047302498,0.00251775,0.03639225,1742092517.695782
0.19275,-0.1415,0.02725,-0.0045625,0.00358575,0.0364685,1742092517.710287
0.19475,-0.14,0.0265,-0.00238025,0.0043944996,0.035431,1742092517.7246451
0.2025,-0.13275,0.02725,-0.00093075,0.0043182503,0.034408502,1742092517.738985
0.20525,-0.1265,0.02425,0.00016775,0.004303,0.03300475,1742092517.753335
0.21,-0.115,0.01825,0.00030525,0.0042572496,0.032409754,1742092517.7686222
0.212,-0.112,0.02025,0.0009155,0.00408925,0.031662002,1742092517.781892
0.21375,-0.11175,0.02525,0.0029755002,0.00396725,0.030487,1742092517.796191
0.221,-0.1065,0.03475,0.0029755002,0.00413525,0.03120425,1742092517.810543
0.2235,-0.101,0.03325,0.00184625,0.0052642496,0.03385925,1742092517.8247528
0.221,-0.0865,0.02225,0.0019685,0.00579825,0.034134,1742092517.838974
0.219,-0.08275,0.017,0.0036315,0.005783,0.032714747,1742092517.853525
0.2205,-0.07225,0.015,0.00367725,0.00564575,0.0327605,1742092517.868706
0.22325,-0.063,0.0155,0.0030365,0.0057220003,0.033508252,1742092517.8823
0.22675,-0.054,0.01475,0.001892,0.00621025,0.0355835,1742092517.8966389
0.23,-0.0375,0.01275,0.0026245,0.0065307496,0.035659753,1742092517.9110122
0.2265,-0.0295,0.011,0.0054015,0.00697325,0.03439325,1742092517.925386
0.22325,-0.0115,0.01,0.0060577504,0.00715625,0.033996496,1742092517.93999
0.22425,-0.001,0.01,0.00463875,0.00770575,0.03459175,1742092517.9545338
0.22175,0.0185,0.00825,0.0021515,0.0081635,0.0358125,1742092517.9687822
0.225,0.02525,0.01,-0.0012665,0.008850001,0.038330004,1742092517.982931
0.229,0.0305,0.01075,-0.0065917503,0.01086425,0.04458625,1742092517.99743
0.226,0.0475,-0.00025,-0.0069580004,0.01193225,0.045730498,1742092518.011957
0.2165,0.06175,-0.009,-0.0029449998,0.013336251,0.041931253,1742092518.0263958
0.19925,0.1,-0.019,-0.0001525,0.01324475,0.037979253,1742092518.040951
0.1955,0.12425,-0.014,0.0031889998,0.012909001,0.0291595,1742092518.055277
0.2075,0.19175,0.0245,0.00352475,0.0141755,0.02316275,1742092518.06963
0.19525,0.22925,0.0395,0.0040435,0.01994325,0.0038605002,1742092518.084
0.1305,0.33675,0.0355,0.00320425,0.02427675,-0.0079955,1742092518.0983942
0.04775,0.43825,-0.0145,0.0013580001,0.029876752,-0.02168275,1742092518.113133
-0.07875,0.5695,-0.1055,-0.0154725,0.032256998,-0.052124,1742092518.128948
-0.25975,0.85625,-0.19925,-0.036972,0.0247955,-0.0708465,1742092518.142367
-0.30875,0.9055,-0.17025,-0.0681305,-0.00131225,-0.14117426,1742092518.158769
-0.50775,0.7565,-0.08425,-0.06372075,-0.016128499,-0.19329825,1742092518.171914
-0.64575,0.59025,-0.01325,-0.041626,-0.04800425,-0.29293826,1742092518.186423
-0.81675,-0.18425,0.40325,-0.038437,-0.0594635,-0.3160705,1742092518.201345
-0.74625,-0.733,0.58725,-0.038513247,-0.0378265,-0.27417,1742092518.215751
-0.5735,-1.0,0.361,-0.028473,-0.0049742498,-0.222046,1742092518.230459
-0.5565,-1.0,0.1105,-0.01519775,0.02412425,-0.0934295,1742092518.245182
-0.4165,-0.90075,-0.0925,-0.014419501,0.014328,-0.042984,1742092518.259874
-0.3125,-0.74275,-0.11725,-0.0080415,0.00242625,-0.022094749,1742092518.274378
-0.124,-0.403,-0.13725,0.012847999,-0.0110932505,-0.03312675,1742092518.289025
-0.0455,-0.2915,-0.11625,0.014785751,-0.013046251,-0.034423754,1742092518.30371
0.01275,-0.229,-0.0905,0.0075072497,-0.0138702495,-0.0206605,1742092518.3190908
0.07825,-0.23425,-0.03675,0.00399775,-0.0143737495,-0.01295475,1742092518.333131
0.0915,-0.2745,0.00475,-7.625e-05,-0.011627249,-0.000412,1742092518.3478541
0.07975,-0.36475,0.044,-0.00059500005,-0.008346501,0.00646975,1742092518.362401
0.062,-0.3725,0.0375,0.00109875,-0.0020599999,0.02127075,1742092518.3769758
0.031,-0.316,0.02475,0.002472,6.1000002e-05,0.026092501,1742092518.3913841
0.01225,-0.29,0.014,0.0043335,0.0022125002,0.02961725,1742092518.405767
-0.02825,-0.26175,-0.011,0.00485225,0.00190725,0.029739501,1742092518.420188
-0.0425,-0.25275,-0.01725,0.005249,0.0008545,0.02911375,1742092518.4346828
-0.04725,-0.2545,-0.0265,0.0047455,-0.0018615,0.028137252,1742092518.449314
-0.03975,-0.26175,-0.02925,0.0032347501,-0.002884,0.0291595,1742092518.463959
-0.0305,-0.2685,-0.031,-0.00035100002,-0.00434875,0.03250125,1742092518.4792662
-0.00975,-0.2715,-0.03225,-0.0018615,-0.00535575,0.034317,1742092518.493321
0.004,-0.27025,-0.03,-0.0045012496,-0.00747675,0.03840625,1742092518.508537
0.03525,-0.27125,-0.0215,-0.0050812503,-0.0079955,0.04008475,1742092518.522611
0.0495,-0.2715,-0.01725,-0.00276175,-0.00723275,0.040466253,1742092518.538523
0.0615,-0.26,-0.01075,-0.00080875,-0.00665275,0.039794996,1742092518.551571
0.0675,-0.2495,-0.0065,0.0014037499,-0.00611875,0.03907775,1742092518.565984
0.08625,-0.22925,-0.00125,0.0018005001,-0.006012,0.039093,1742092518.580535
0.096,-0.21925,0.0,0.00193775,-0.00585925,0.03910825,1742092518.594966
0.11225,-0.2005,0.005,0.002533,-0.00541675,0.0377655,1742092518.60937
0.1195,-0.19225,0.0085,0.00331125,-0.0050965,0.035843,1742092518.62396
0.125,-0.18675,0.01025,0.004593,-0.0037995,0.030578502,1742092518.6388202
0.13025,-0.1805,0.0085,0.004837,-0.00279225,0.02790825,1742092518.6525629
0.12975,-0.17725,0.0035,0.0048979996,-0.0014037499,0.024383498,1742092518.668604
0.1275,-0.172,-0.00575,0.0046845004,-0.0013275,0.023620501,1742092518.6813571
0.1285,-0.1695,-0.00725,0.0036315,-0.001892,0.022643998,1742092518.6959739
0.1405,-0.164,-0.001,0.003418,-0.0023497501,0.021469,1742092518.710528
0.147,-0.1615,0.00175,0.0037079998,-0.0027312501,0.0194245,1742092518.72486
0.14925,-0.1615,0.00175,0.0044707498,-0.0027465,0.0148772495,1742092518.739263
0.15125,-0.16775,-0.002,0.00399775,-0.0024414998,0.014160249,1742092518.75373
0.1545,-0.171,-0.00475,0.00198375,-0.001709,0.01608275,1742092518.7682319
0.16075,-0.17175,-0.00675,0.00112925,-0.001419,0.0173645,1742092518.782658
0.16475,-0.16875,-0.005,0.00146475,-0.00181575,0.01725775,1742092518.797259
0.17175,-0.15525,-0.00225,0.0023039998,-0.0021819999,0.015747,1742092518.8116438
0.17275,-0.14675,-0.00075,0.002655,-0.0024414998,0.012267999,1742092518.826207
0.1735,-0.14975,0.00125,0.0017242499,-0.00239575,0.011535751,1742092518.8407638
0.17575,-0.163,-0.00025,-1.5250001e-05,-0.0019989999,0.01239025,1742092518.855371
0.1805,-0.17325,-0.001,-0.0030975002,-0.00016775,0.0164795,1742092518.870006
0.187,-0.172,-0.00175,-0.00283825,0.00057975,0.01690675,1742092518.8844821
0.18675,-0.16375,-0.00425,-0.00016775,0.00030525,0.014053251,1742092518.900231
0.19025,-0.149,-0.0065,0.00096125,-0.0003205,0.0123442495,1742092518.913532
0.1915,-0.1485,-0.00575,0.00177,-0.00115975,0.0104674995,1742092518.928947
0.1935,-0.1585,-0.00075,0.000885,-0.00109875,0.01142875,1742092518.942652
0.19725,-0.1635,0.002,-0.00213625,0.00010675,0.0160675,1742092518.958775
0.2015,-0.16475,0.003,-0.0025025,0.00064075,0.01741025,1742092518.9715729
0.20025,-0.161,-0.00025,-0.00061025,0.00077825,0.01670825,1742092518.985963
0.198,-0.146,-0.006,0.0005035,0.00070200005,0.015625,1742092519.0009909
0.1995,-0.13925,-0.00675,0.00125125,0.0005035,0.014648501,1742092519.0149791
0.20175,-0.1355,-0.0065,0.000946,-0.000122000005,0.014358499,1742092519.029513
0.207,-0.134,-0.00425,-0.00019825,-0.00010675,0.015457249,1742092519.044064
0.2095,-0.134,-0.0025,-0.0018005001,0.00054925,0.01744075,1742092519.058784
0.21175,-0.13275,-0.0015,-0.001419,0.000763,0.017028749,1742092519.07331
0.21175,-0.13025,-0.0025,0.00065625,0.0005645,0.01469425,1742092519.088792
0.2095,-0.12325,-0.0055,0.0013275,0.00033575002,0.0139770005,1742092519.1021938
0.21025,-0.12125,-0.00575,0.00013725001,0.00039675,0.015686,1742092519.1166139
0.215,-0.12075,-0.0065,-0.0013427499,0.00059500005,0.0180665,1742092519.131192
0.21825,-0.11825,-0.006,-0.0027465,0.00080875,0.02073675,1742092519.1459289
0.221,-0.1125,-0.0045,-0.00378425,0.0013275,0.024002,1742092519.160406
0.22525,-0.096,-0.0015,-0.0036162501,0.0016785001,0.02409375,1742092519.175113
0.22675,-0.0885,-0.0015,-0.00355525,0.0021972498,0.022934001,1742092519.189593
0.23,-0.079,-0.00025,-0.00416575,0.002472,0.02262875,1742092519.204076
0.23,-0.0775,-0.00075,-0.0065002497,0.0031127501,0.0236665,1742092519.2186902
0.22975,-0.07525,-0.005,-0.00785825,0.00340275,0.02487175,1742092519.2329412
0.231,-0.072,-0.00675,-0.0090637505,0.0035704998,0.02674875,1742092519.2475631
0.23325,-0.05975,-0.00925,-0.008773751,0.00352475,0.026855499,1742092519.2621372
0.235,-0.052,-0.00825,-0.00817875,0.0033875,0.026291,1742092519.276565
0.23925,-0.035,-0.00625,-0.00720225,0.0032655,0.023758,1742092519.2911549
0.23925,-0.029,-0.007,-0.00671375,0.003418,0.021927001,1742092519.3056588
0.23825,-0.02475,-0.0085,-0.0059967497,0.00364675,0.01829525,1742092519.320302
0.23725,-0.02125,-0.01225,-0.00593575,0.0034942501,0.017120251,1742092519.334786
0.23775,-0.021,-0.013,-0.0056304997,0.0026854998,0.015579251,1742092519.351319
0.2415,-0.021,-0.013,-0.0050202496,0.0021515,0.014785751,1742092519.363998
0.2425,-0.01875,-0.0115,-0.0034484998,0.00131225,0.01307675,1742092519.3787699
0.24575,-0.01325,-0.0065,-0.0031585,0.00137325,0.01245125,1742092519.392986
0.248,-0.01,-0.0045,-0.0034942501,0.00198375,0.011321999,1742092519.408264
0.24425,-0.00675,-0.00925,-0.003952,0.0022735,0.01095575,1742092519.422009
0.2425,-0.00575,-0.012,-0.00428775,0.0025025,0.01065075,1742092519.436566
0.24175,-0.0055,-0.014,-0.00369275,0.0021819999,0.009613,1742092519.4509802
0.242,-0.00375,-0.01375,-0.0033570002,0.0019225,0.0091095,1742092519.465528
0.2435,0.00025,-0.01225,-0.0035095,0.0020295,0.0084379995,1742092519.4800022
0.24625,0.00625,-0.0115,-0.003769,0.0023345,0.008072,1742092519.4945228
0.24325,0.01,-0.0105,-0.0051574996,0.0030365,0.0071409997,1742092519.508951
