acc_x,acc_y,acc_z,gyro_x,gyro_y,gyro_z,timestamp
0.247,-0.01925,0.00675,-0.00068675,9.15e-05,-0.0005035,1742092474.142613
0.24575,-0.0195,0.00525,-0.0005035,0.0002135,-0.0004425,1742092474.157727
0.24475,-0.01675,0.00375,-0.00042725,0.0001525,-0.00051875,1742092474.171084
0.24475,-0.015,0.00325,-0.00016775,-3.0500001e-05,-0.000763,1742092474.185604
0.2455,-0.0095,0.00275,-0.00010675,-9.15e-05,-0.00077825,1742092474.2001128
0.24625,-0.00725,0.0025,-0.00035100002,-9.15e-05,-0.00071725,1742092474.214653
0.2475,-0.00725,0.0015,-0.00051875,-9.15e-05,-0.0007325,1742092474.229126
0.248,-0.0075,0.00125,-0.00048825,-0.00027475,-0.0012055,1742092474.2437088
0.2495,-0.00625,0.0025,-0.0003815,-0.00045775,-0.00157175,1742092474.258334
0.25075,-0.00475,0.004,-0.00062550005,-0.00054925,-0.00190725,1742092474.273057
0.2535,-0.00275,0.00675,-0.0011445,-0.00029,-0.001709,1742092474.288065
0.25475,-0.00425,0.00625,-0.0017242499,0.00013725001,-0.001587,1742092474.3020532
0.2545,-0.005,0.0035,-0.002365,0.00071725,-0.0024414998,1742092474.316542
0.24875,-0.0015,-0.006,-0.002777,0.00070200005,-0.0031127501,1742092474.331222
0.24825,0.00175,-0.01,-0.0050965,0.00051875,-0.00434875,1742092474.345587
0.255,-0.0055,-0.013,-0.00671375,0.0004425,-0.00555425,1742092474.3600829
0.26,-0.0265,-0.0085,-0.0099639995,-0.00112925,-0.00991825,1742092474.374811
0.27325,-0.13475,0.052,-0.01216125,-0.0025025,-0.012634249,1742092474.389389
0.27675,-0.24825,0.10625,-0.017028749,-0.0023497501,-0.0172425,1742092474.403913
0.2655,-0.6415,0.175,-0.013641249,0.000183,-0.0172425,1742092474.418345
0.2405,-0.8545,0.17575,-0.0024414998,0.003418,-0.014648501,1742092474.432815
0.19225,-0.96525,0.1845,0.029876752,0.00216675,0.00396725,1742092474.447402
0.1285,-0.76675,0.3005,0.04273975,-0.0023039998,0.019592252,1742092474.461767
0.1385,-0.507,0.35475,0.0607605,-0.00308225,0.044754002,1742092474.4762151
0.14925,0.16575,0.28775,0.0655365,0.0022125002,0.048462003,1742092474.490464
0.14425,0.49325,0.185,0.061737,0.014923001,0.0398255,1742092474.504831
0.16925,0.89125,-0.0525,0.05574025,0.018127501,0.030014,1742092474.5192242
0.1875,0.931,-0.15875,0.036804248,0.013122501,0.01501475,1742092474.533621
0.22675,0.78125,-0.20975,0.02595525,0.01440425,0.011856,1742092474.547991
0.22125,0.65,-0.18675,0.01651,0.013382,0.0080567505,1742092474.562312
0.198,0.52575,-0.159,0.0043182503,0.00579825,-0.00444025,1742092474.576691
0.17975,0.303,-0.0745,0.0005645,0.0027312501,-0.009292499,1742092474.591208
0.19275,0.18775,-0.02725,-0.0052185003,-0.0016175,-0.013702501,1742092474.605686
0.22,-0.0435,0.034,-0.0080872495,-0.001175,-0.012267999,1742092474.6202948
0.23075,-0.13625,0.0465,-0.0109709995,0.001587,-0.00369275,1742092474.634746
0.23975,-0.211,0.0455,-0.009369001,0.00181575,0.00062550005,1742092474.650312
0.23925,-0.19325,0.03525,-0.006668,0.001175,0.0043944996,1742092474.663636
0.24175,-0.105,0.00075,-0.00198375,0.0003205,0.010162249,1742092474.678277
0.24525,-0.05275,-0.0145,-0.001068,0.0005035,0.010803251,1742092474.69242
0.2475,-0.00725,-0.0275,-0.00067150005,0.000229,0.00640875,1742092474.708412
0.23925,0.0555,-0.05075,-0.000473,-0.00062550005,0.0038757501,1742092474.7213922
0.23625,0.075,-0.05575,-0.00238025,-0.000946,0.0034484998,1742092474.735847
0.25025,0.0895,-0.0405,-0.00408925,-0.000885,0.0041044997,1742092474.750709
0.26075,0.081,-0.026,-0.0055085,-0.00225825,0.0017852499,1742092474.764788
0.26775,0.052,-0.0075,-0.00555425,-0.00251775,0.0,1742092474.779356
0.26625,0.041,-0.00325,-0.0059815003,-0.00163275,-0.00074775,1742092474.793885
0.256,0.031,-0.004,-0.008148249,0.00131225,0.00054925,1742092474.8083122
0.25075,0.0235,-0.008,-0.009262,0.00204475,0.00125125,1742092474.822704
0.24575,0.01425,-0.01275,-0.009430001,0.00216675,0.00102225,1742092474.83837
0.2385,0.001,-0.0195,-0.008773751,0.0016632499,0.0005035,1742092474.8525681
0.23875,0.0015,-0.01775,-0.0070037497,0.000229,-0.0002595,1742092474.868097
0.24325,0.01625,-0.0155,-0.00646975,-0.00036625,-0.00030525,1742092474.881632
0.246,0.02425,-0.01425,-0.0070647504,-0.00029,4.575e-05,1742092474.89596
0.2465,0.02525,-0.017,-0.0075377496,1.5250001e-05,-1.5250001e-05,1742092474.910492
0.24425,0.02075,-0.02,-0.00767525,0.00033575002,-0.00033575002,1742092474.924876
0.23975,0.017,-0.0245,-0.007431,0.00030525,-0.00024425,1742092474.9395
0.239,0.02,-0.026,-0.0070495,0.0001525,-1.5250001e-05,1742092474.9539661
0.23875,0.02675,-0.02725,-0.0065307496,-0.000473,0.000122000005,1742092474.96851
0.2415,0.0395,-0.02475,-0.0065155,-0.000885,-0.000183,1742092474.983029
0.243,0.04,-0.0225,-0.00672925,-0.00143425,-0.00143425,1742092474.997579
0.248,0.0275,-0.017,-0.00672925,-0.00154125,-0.002121,1742092475.012053
0.2495,0.0215,-0.0145,-0.0065155,-0.0012665,-0.0023039998,1742092475.026727
0.2475,0.02275,-0.012,-0.0065002497,-0.000946,-0.0018005001,1742092475.0413089
0.24475,0.02875,-0.01375,-0.00694275,-0.00039675,-0.00068675,1742092475.055883
0.23975,0.0435,-0.02,-0.00770575,-0.00033575002,-0.00010675,1742092475.070503
0.2425,0.04425,-0.02075,-0.009216251,-0.00067150005,0.00080875,1742092475.085025
0.2505,0.03725,-0.02025,-0.00912475,-0.00086975005,0.00061025,1742092475.101172
0.252,0.03675,-0.02,-0.008712751,-0.00099175,3.0500001e-05,1742092475.113971
0.252,0.03775,-0.01825,-0.0079955,-0.000824,-0.001587,1742092475.128466
0.251,0.03625,-0.01475,-0.007843,-0.000534,-0.00238025,1742092475.143239
0.24825,0.0365,-0.01575,-0.00868225,0.00019825,-0.00157175,1742092475.158211
0.24375,0.0435,-0.02475,-0.010086001,0.0004425,-0.00027475,1742092475.1722188
0.24425,0.04175,-0.029,-0.0127105,0.00027475,0.0008545,1742092475.1866932
0.24175,0.023,-0.0325,-0.012634249,-0.00010675,-0.000229,1742092475.20115
0.2385,0.0165,-0.033,-0.01026925,-0.0014495,-0.003891,1742092475.215765
0.23525,0.01425,-0.027,-0.00903325,-0.0020905002,-0.0052642496,1742092475.230509
0.23625,0.01125,-0.0215,-0.008651749,-0.0023345,-0.00494375,1742092475.2451231
0.23625,0.0045,-0.0155,-0.009719751,-0.0016175,-0.00289925,1742092475.259681
0.2345,0.007,-0.01575,-0.01121525,-0.00062550005,-0.0005035,1742092475.274333
0.23325,0.01175,-0.018,-0.01358025,0.00016775,0.001587,1742092475.288714
0.23075,0.02375,-0.03025,-0.013641249,7.625e-05,0.000534,1742092475.303201
0.22825,0.032,-0.0365,-0.0125885,-0.00013725001,-0.003662,1742092475.31854
0.2275,0.02825,-0.03525,-0.0119934995,-0.00042725,-0.0063325,1742092475.332343
0.22775,0.011,-0.031,-0.01121525,-0.0011445,-0.01095575,1742092475.346926
0.23925,-0.02925,-0.022,-0.011749251,-0.001175,-0.011383001,1742092475.361443
0.246,-0.0425,-0.02125,-0.014572251,-0.00093075,-0.00868225,1742092475.376013
0.23825,-0.06025,-0.036,-0.015976,-0.00102225,-0.006836,1742092475.3906822
0.231,-0.06975,-0.04225,-0.016540501,-0.0012970001,-0.0055847503,1742092475.405392
0.2395,-0.09075,-0.0305,-0.014724749,-0.0032655,-0.0068512503,1742092475.420033
0.24525,-0.10925,-0.01375,-0.013854999,-0.00460825,-0.008361749,1742092475.434861
0.24325,-0.15025,0.0145,-0.0142365,-0.00694275,-0.009094249,1742092475.450727
0.23625,-0.36075,0.13625,-0.013793999,-0.00874325,-0.008514499,1742092475.463989
0.2415,-0.53325,0.224,0.0011445,-0.011825499,-0.010589501,1742092475.478693
0.227,-0.8585,0.329,0.014389,-0.011550999,-0.008377,1742092475.4928699
0.21,-0.91125,0.34725,0.040099997,-0.008255,0.021698,1742092475.50862
0.20725,-0.563,0.388,0.051880002,-0.0049590003,0.03955075,1742092475.521732
0.196,-0.21725,0.349,0.067276,0.0037385002,0.0513,1742092475.536114
0.15925,0.42125,0.10875,0.066986,0.006836,0.045410253,1742092475.550733
0.14425,0.659,-0.035,0.0638885,0.0060425,0.0361175,1742092475.564627
0.15975,0.84425,-0.13625,0.048233002,-0.0003205,0.011749251,1742092475.578999
0.29525,0.8445,-0.1635,0.039093,-0.00033575002,-0.0039215,1742092475.593567
0.32725,0.68775,-0.133,0.02386475,0.00535575,-0.024932751,1742092475.608021
0.3015,0.382,-0.04125,0.01655575,0.0072480002,-0.0234375,1742092475.6224809
0.26475,0.25975,-0.0145,0.005249,0.0104065,-0.009887749,1742092475.638551
0.21075,0.1025,-0.00225,0.0012665,0.015686,-0.0044250004,1742092475.651356
0.187,0.06,-0.0215,-0.0017242499,0.01766975,0.00010675,1742092475.6658401
0.166,-0.0255,-0.05975,-0.004242,0.0127105,0.00520325,1742092475.680398
0.17225,-0.067,-0.058,-0.00340275,0.01004025,0.0059815003,1742092475.694889
0.185,-0.0925,-0.04075,-0.00163275,0.0055085,0.006256,1742092475.709355
0.21875,-0.09425,-0.0075,-0.00030525,0.0026245,0.0061339997,1742092475.723923
0.237,-0.065,0.0055,0.00292975,-0.00115975,0.0070037497,1742092475.738816
0.261,0.0,0.005,0.0036010002,-0.001114,0.0079955,1742092475.752533
0.2625,0.028,-0.0025,0.0023345,0.00102225,0.00611875,1742092475.768511
0.241,0.061,-0.03475,0.0022277501,0.000534,0.0029907501,1742092475.781197
0.23525,0.064,-0.047,0.0022735,0.00010675,4.575e-05,1742092475.795556
0.23625,0.05975,-0.04775,0.0020905002,-0.00045775,-0.00190725,1742092475.810106
0.247,0.05075,-0.02925,0.0016785001,-0.00146475,-0.00148,1742092475.824569
0.2495,0.04675,-0.024,0.0003205,-0.0014495,-0.00024425,1742092475.839133
0.24875,0.03875,-0.0185,-0.0003205,-6.1000002e-05,0.00036625,1742092475.8535922
0.2475,0.03925,-0.01825,-0.00109875,0.00090025004,0.0020752498,1742092475.8685691
0.24125,0.03825,-0.02175,-0.00148,0.00070200005,0.0030975002,1742092475.8822558
0.24025,0.0365,-0.02275,-0.0017242499,0.00074775,0.002777,1742092475.8966908
0.2355,0.04075,-0.023,-0.0010375,-0.00010675,0.0013885,1742092475.911231
0.236,0.04325,-0.021,-0.00029,-0.0011445,0.000122000005,1742092475.9256608
0.238,0.04425,-0.01775,-0.000183,-0.0012970001,0.00019825,1742092475.940634
0.2415,0.04725,-0.01225,-0.00061025,-0.0009765,0.00096125,1742092475.954766
0.2415,0.052,-0.0135,-0.001419,-0.0009765,0.001526,1742092475.96929
0.23925,0.06175,-0.025,-0.0020905002,-0.00077825,0.0015565,1742092475.983783
0.24,0.06325,-0.02875,-0.00367725,-0.0002595,0.00160225,1742092475.998359
0.24325,0.0565,-0.02725,-0.0037995,-0.00064075,0.00099175,1742092476.012773
0.2455,0.0525,-0.02275,-0.0031585,-0.0017395001,-0.00074775,1742092476.028091
0.2445,0.05075,-0.01525,-0.00320425,-0.001831,-0.0009155,1742092476.041787
0.2415,0.05275,-0.013,-0.003662,-0.0017242499,-0.00057975,1742092476.056415
0.23825,0.0565,-0.01325,-0.00511175,-0.0011445,0.00042725,1742092476.0708869
0.23225,0.0615,-0.02425,-0.00590525,-0.000885,0.000824,1742092476.0854988
0.2325,0.0575,-0.028,-0.0065612504,-0.00148,0.0007325,1742092476.101429
0.24025,0.0435,-0.022,-0.0060882503,-0.00216675,0.00042725,1742092476.114597
0.24625,0.04125,-0.0135,-0.0054932497,-0.002655,0.0001525,1742092476.129279
0.25375,0.0465,-0.0,-0.0060425,-0.0023345,0.000473,1742092476.1438
0.25525,0.0485,0.001,-0.00738525,-0.00080875,0.0009765,1742092476.158195
0.2505,0.05375,-0.00975,-0.007553,-9.15e-05,0.00077825,1742092476.17269
0.24775,0.0555,-0.01825,-0.0072632497,0.00045775,-0.0002595,1742092476.188329
0.245,0.049,-0.0305,-0.0070495,0.00013725001,-0.00102225,1742092476.201587
0.24525,0.0445,-0.03025,-0.0068207504,-0.00042725,-0.0017852499,1742092476.216191
0.2475,0.042,-0.0255,-0.00668325,-0.0016632499,-0.00302125,1742092476.2308328
0.25125,0.0425,-0.01525,-0.0068969997,-0.001831,-0.00331125,1742092476.2453592
0.2505,0.04175,-0.012,-0.008361749,-0.00096125,-0.0030975002,1742092476.259973
0.25,0.03325,-0.0155,-0.0089569995,-0.00033575002,-0.0029755002,1742092476.274545
0.2495,0.02525,-0.0215,-0.008026,-3.0500001e-05,-0.004242,1742092476.28923
0.245,0.008,-0.02725,-0.006607,-0.0003205,-0.0057220003,1742092476.303883
0.243,0.0045,-0.0245,-0.0044707498,-0.00137325,-0.00741575,1742092476.3185248
0.2445,0.01025,-0.01375,-0.0048065,-0.00157175,-0.006775,1742092476.333128
0.24675,0.01475,-0.00925,-0.00715625,-0.00061025,-0.0034942501,1742092476.3478131
0.2425,0.021,-0.013,-0.0077515002,0.00027475,-0.00238025,1742092476.362355
0.23975,0.02525,-0.019,-0.0077667497,0.0009765,-0.00231925,1742092476.376786
0.23725,0.0285,-0.026,-0.0062255003,0.000885,-0.005539,1742092476.39134
0.229,0.0365,-0.033,-0.0048674997,0.00036625,-0.008407501,1742092476.4058921
0.22525,0.04075,-0.031,-0.0047150003,-0.0013427499,-0.01251225,1742092476.420489
0.2345,0.03225,-0.01475,-0.0065765,-0.001892,-0.01248175,1742092476.4353101
0.2425,0.02025,-0.009,-0.01257325,-0.0005645,-0.00791925,1742092476.45173
0.23875,0.0085,-0.0155,-0.01474,0.0010375,-0.0058287503,1742092476.4644842
0.23325,0.006,-0.02225,-0.0151825,0.00251775,-0.00747675,1742092476.47906
0.222,-0.0035,-0.03775,-0.014587499,0.0019989999,-0.0104674995,1742092476.493691
0.217,-0.01275,-0.03975,-0.014587499,0.00030525,-0.0162505,1742092476.508351
0.2195,-0.0405,-0.0285,-0.01605225,-0.000229,-0.017700251,1742092476.523058
0.219,-0.05325,-0.025,-0.018615749,-0.00033575002,-0.01794425,1742092476.538292
0.21125,-0.0695,-0.0235,-0.023819,-0.000412,-0.0170135,1742092476.5525079
0.1965,-0.134,-0.0005,-0.02436825,-0.0012970001,-0.01681525,1742092476.567925
0.201,-0.18975,0.03725,-0.020996,-0.0053405,-0.0197295,1742092476.581771
0.20325,-0.40325,0.157,-0.01808175,-0.008026,-0.0206605,1742092476.59641
0.21375,-0.56675,0.2235,-0.00646975,-0.01133725,-0.017974751,1742092476.611
0.2175,-0.86125,0.27475,0.00741575,-0.0110625,-0.01033025,1742092476.62549
0.19975,-0.87425,0.25525,0.039169252,-0.011734,0.02268975,1742092476.640078
0.16725,-0.49775,0.2455,0.05093375,-0.01504525,0.0426025,1742092476.654412
0.19225,-0.208,0.27975,0.06416325,-0.0193635,0.0606385,1742092476.668812
0.25525,0.349,0.253,0.065155,-0.016021749,0.053650003,1742092476.6830678
0.26975,0.553,0.15175,0.06277475,-0.009643501,0.039855998,1742092476.697629
0.2935,0.67175,0.03675,0.0520325,0.0055085,0.013412501,1742092476.7118132
0.33725,0.71475,-0.10925,0.04331975,0.01036075,0.0052337497,1742092476.7261891
0.32,0.65225,-0.13225,0.02731325,0.0104674995,-0.00181575,1742092476.7405949
0.21875,0.37875,-0.13675,0.021606501,0.010009751,-0.00276175,1742092476.754988
0.17925,0.25175,-0.10975,0.014800999,0.013122501,-0.00453175,1742092476.7694342
0.16,0.12475,-0.06825,0.01036075,0.00976575,-0.001587,1742092476.783971
0.1625,0.093,-0.058,0.0049895,0.0057677496,0.00334175,1742092476.798496
0.1745,0.01625,-0.03175,-0.00270075,0.00411975,0.0115815,1742092476.813011
0.18975,-0.02275,-0.01625,-0.0039825,0.00419625,0.012496999,1742092476.828253
0.2075,-0.04975,-0.00625,-0.00378425,0.00070200005,0.010009751,1742092476.8420138
0.25375,-0.04925,0.026,-0.00238025,-0.00115975,0.008194,1742092476.856504
0.27425,-0.0385,0.03,0.00086975005,-0.0028074998,0.00340275,1742092476.870954
0.289,0.00125,0.03075,0.0016175,-0.00251775,-0.000183,1742092476.885501
0.278,0.01325,0.0155,0.001831,-0.00112925,-0.00437925,1742092476.901361
0.256,0.0245,-0.00925,0.001114,0.00115975,-0.0034484998,1742092476.9144042
0.25175,0.03475,-0.01525,0.0003205,0.0024414998,-0.00108325,1742092476.928781
0.24025,0.0545,-0.029,-0.0011445,0.0007325,0.00314325,1742092476.943069
0.2365,0.0595,-0.03075,-0.0020599999,0.0012817499,0.0038757501,1742092476.95788
0.23325,0.059,-0.031,-0.003296,0.001068,0.00463875,1742092476.97196
0.2295,0.0575,-0.02725,-0.0031889998,-3.0500001e-05,0.0038299998,1742092476.986484
0.23075,0.05425,-0.02175,-0.00213625,-0.0012817499,0.00013725001,1742092477.000957
0.239,0.03725,0.0,-0.0017395001,-0.0018005001,-0.0012817499,1742092477.0156128
0.2445,0.0285,0.0085,-0.0016785001,-0.00251775,-0.00198375,1742092477.030293
0.25275,0.02025,0.01375,-0.0021515,-0.00187675,-0.0013427499,1742092477.044668
0.253,0.0195,0.012,-0.0028535,-0.00077825,-0.000473,1742092477.059205
0.24275,0.02225,-0.00175,-0.00411975,0.00068675,0.0013275,1742092477.073594
0.23575,0.02925,-0.0105,-0.0041504996,0.000885,0.00190725,1742092477.0885818
0.23075,0.03825,-0.01775,-0.0032347501,0.00033575002,0.001831,1742092477.102415
0.23275,0.0535,-0.02175,-0.0028074998,-0.00019825,0.0012207499,1742092477.118349
0.23675,0.054,-0.018,-0.0026854998,-0.001068,-0.00036625,1742092477.131558
0.2455,0.048,-0.00425,-0.0032655,-0.00109875,-0.00045775,1742092477.146294
0.2505,0.04375,0.0,-0.0057525,-0.0003205,0.00160225,1742092477.160699
0.25425,0.03225,-0.0025,-0.00672925,0.00039675,0.00289925,1742092477.175055
0.25225,0.0305,-0.00825,-0.006607,0.00160225,0.0046845004,1742092477.189555
0.24275,0.041,-0.01925,-0.00621025,0.00193775,0.00543225,1742092477.203893
0.2375,0.0525,-0.0205,-0.0061950004,0.00190725,0.0061035,1742092477.218563
0.2345,0.0625,-0.02125,-0.0081635,0.00071725,0.00697325,1742092477.232793
0.2395,0.06575,-0.0215,-0.009262,-7.625e-05,0.0066374997,1742092477.247576
0.24175,0.06025,-0.0205,-0.00801075,-0.00149525,0.0033570002,1742092477.262105
0.24525,0.057,-0.01,-0.0063934997,-0.0019685,0.0012055,1742092477.276565
0.248,0.05975,-0.00175,-0.004593,-0.00213625,-0.0023497501,1742092477.291191
0.24875,0.0605,0.00825,-0.0047302498,-0.00190725,-0.00355525,1742092477.305662
0.2495,0.05875,0.00575,-0.0074920002,-0.0009765,-0.0045012496,1742092477.320269
0.255,0.05075,-0.009,-0.009582501,-0.000183,-0.0037537501,1742092477.334839
0.253,0.04725,-0.01625,-0.011123749,0.00061025,-0.00251775,1742092477.349372
0.24725,0.0455,-0.021,-0.0116425,0.00125125,-0.0020752498,1742092477.363874
0.23725,0.044,-0.02125,-0.011321999,0.00096125,-0.0028074998,1742092477.378618
0.237,0.04125,-0.01875,-0.011169501,-6.1000002e-05,-0.00390625,1742092477.3929658
0.243,0.03225,-0.01225,-0.011398249,-0.00033575002,-0.00402825,1742092477.408215
0.24475,0.0305,-0.0125,-0.01194775,-6.1000002e-05,-0.0038605002,1742092477.422275
0.24525,0.03225,-0.017,-0.01228325,0.0002595,-0.0038605002,1742092477.438408
0.2425,0.0295,-0.01925,-0.013778751,0.000763,-0.0040435,1742092477.451274
0.23825,0.01725,-0.01925,-0.014648501,0.0009155,-0.00399775,1742092477.465684
0.238,0.012,-0.02,-0.01513675,0.0007935,-0.00354,1742092477.480273
0.23325,0.013,-0.02475,-0.0149535,0.000534,-0.003418,1742092477.4946802
0.23025,0.015,-0.0275,-0.01469425,0.0002595,-0.00364675,1742092477.509183
0.22875,0.0155,-0.0275,-0.013793999,-0.00033575002,-0.0055237496,1742092477.5237591
0.2325,0.01125,-0.019,-0.01310725,-0.00064075,-0.00691225,1742092477.53842
0.23625,0.00825,-0.01425,-0.011764499,-0.0017395001,-0.00941475,1742092477.553092
0.24425,0.00325,-0.00675,-0.01115425,-0.002472,-0.010391249,1742092477.568224
0.24875,0.001,-0.0025,-0.010681249,-0.0034942501,-0.011398249,1742092477.582355
0.25425,-0.008,0.004,-0.0113525,-0.003418,-0.0109709995,1742092477.596961
0.25575,-0.014,0.00575,-0.014343251,-0.001648,-0.009094249,1742092477.611506
0.254,-0.021,0.00825,-0.015533499,-0.00061025,-0.009017999,1742092477.626213
0.25325,-0.02975,0.006,-0.01634225,-1.5250001e-05,-0.010604749,1742092477.640769
0.25225,-0.06525,0.01475,-0.017120251,-0.0004425,-0.011306751,1742092477.655329
0.25425,-0.0935,0.03525,-0.018737748,-0.0011445,-0.011673001,1742092477.6698902
0.25675,-0.14125,0.0695,-0.023193251,-0.00157175,-0.01104725,1742092477.68451
0.2325,-0.3315,0.183,-0.02224725,-0.001007,-0.01036075,1742092477.700562
0.211,-0.50175,0.2485,-0.0022125002,-0.0023497501,-0.0065765,1742092477.713828
0.226,-0.873,0.30325,0.0144805005,-0.0051880004,-0.001007,1742092477.7283788
0.23525,-0.908,0.3325,0.04473875,-0.00883475,0.02006525,1742092477.742784
0.23525,-0.6185,0.40725,0.05508425,-0.0075682504,0.033889752,1742092477.7584052
0.25275,-0.3725,0.39575,0.0702515,0.00292975,0.047577,1742092477.771716
0.195,0.20525,0.214,0.07463075,0.0088195,0.045287997,1742092477.786103
0.16675,0.467,0.1055,0.07601925,0.0115967505,0.039566003,1742092477.800817
0.157,0.68675,0.00425,0.069503754,0.01197825,0.020172002,1742092477.8145652
0.17375,0.91275,-0.18125,0.06054675,0.0112305,0.0093385,1742092477.8288481
0.1995,0.87925,-0.22,0.03804025,0.011627249,-0.00567625,1742092477.843298
0.20775,0.64975,-0.1965,0.029754749,0.008499251,-0.00801075,1742092477.858565
0.19225,0.50675,-0.17175,0.011886501,0.014007499,-0.0030669998,1742092477.8720388
0.1945,0.2575,-0.057,0.0038757501,0.0127105,-0.0015565,1742092477.886487
0.17725,0.16475,-0.0385,-0.0005035,0.006302,-0.002365,1742092477.9012108
0.17425,0.0185,-0.01425,-0.00494375,0.002655,0.0020752498,1742092477.915594
0.191,-0.032,0.002,-0.0069274995,0.00460825,0.0069885002,1742092477.930051
0.2075,-0.07075,0.00875,-0.0068512503,0.00302125,0.0075072497,1742092477.944489
0.23125,-0.1115,0.00225,-0.004486,0.00115975,0.005005,1742092477.958924
0.238,-0.103,-0.00125,0.00016775,0.00027475,0.00378425,1742092477.973281
0.252,-0.032,-0.00425,0.0014495,-7.625e-05,0.00546275,1742092477.988897
0.255,0.00775,-0.00925,0.001892,-0.00024425,0.0054015,1742092478.0022871
0.24975,0.06625,-0.0275,0.00198375,-0.00027475,0.0021972498,1742092478.01865
0.24525,0.08225,-0.03525,0.002121,-4.575e-05,-0.0013275,1742092478.0313878
0.24075,0.09275,-0.04125,0.0009765,-0.00090025004,-0.0037079998,1742092478.04596
0.24375,0.08725,-0.03975,-0.00027475,-0.00131225,-0.00216675,1742092478.06069
0.2485,0.08025,-0.0335,-0.00283825,9.15e-05,0.00071725,1742092478.075176
0.2525,0.07225,-0.0265,-0.00305175,-0.000229,0.0002595,1742092478.0896351
0.2525,0.073,-0.02325,-0.0022277501,-0.00119025,-0.00279225,1742092478.104291
0.25,0.065,-0.01575,-0.0023497501,-0.00125125,-0.0034790002,1742092478.1189408
0.24875,0.05475,-0.0125,-0.0037385002,-0.0002135,-0.00238025,1742092478.1336849
0.2415,0.04025,-0.01275,-0.0042725,0.000183,-0.0014495,1742092478.148256
0.2375,0.0405,-0.015,-0.0043182503,1.5250001e-05,-0.00019825,1742092478.162862
0.236,0.05075,-0.01775,-0.0043944996,-0.000122000005,0.00030525,1742092478.17854
0.2385,0.055,-0.016,-0.00567625,0.00027475,0.00146475,1742092478.1919382
0.23425,0.0555,-0.01225,-0.0063934997,0.00042725,0.001953,1742092478.207744
0.229,0.0565,-0.01425,-0.0070342496,0.000534,0.00238025,1742092478.220696
0.223,0.06125,-0.02075,-0.007782,0.0009765,0.0027312501,1742092478.235206
0.21625,0.0765,-0.04025,-0.00798025,0.0008545,0.0025025,1742092478.250446
0.21625,0.07675,-0.0485,-0.009094249,-0.00070200005,0.0022735,1742092478.2642019
0.22125,0.0625,-0.0465,-0.009842,-0.00160225,0.0023497501,1742092478.278649
0.22425,0.05475,-0.03925,-0.009948749,-0.00308225,0.001892,1742092478.293288
0.231,0.05,-0.0235,-0.009140001,-0.0034637498,0.00115975,1742092478.308364
0.2345,0.051,-0.01775,-0.00697325,-0.00352475,-0.00035100002,1742092478.322366
0.236,0.06,-0.01575,-0.0065002497,-0.0033264998,-0.00054925,1742092478.3387442
0.23525,0.0675,-0.0205,-0.0069580004,-0.0032655,-0.0005035,1742092478.351677
0.237,0.0695,-0.0235,-0.009262,-0.00396725,-0.00074775,1742092478.366386
0.2455,0.0555,-0.02,-0.00976575,-0.00444025,-0.00125125,1742092478.3809578
0.24775,0.0525,-0.0165,-0.009216251,-0.0043639997,-0.0025025,1742092478.3957398
0.246,0.0605,-0.01025,-0.00897225,-0.00378425,-0.0031127501,1742092478.410341
0.2475,0.06125,-0.007,-0.009445249,-0.00267025,-0.0032655,1742092478.4249432
0.246,0.0555,-0.01025,-0.009658749,-0.0023497501,-0.0027312501,1742092478.439651
0.24225,0.05325,-0.0205,-0.010437001,-0.00157175,-0.00169375,1742092478.454289
0.2325,0.06125,-0.04025,-0.011306751,-0.0013427499,-0.00149525,1742092478.468864
0.23075,0.06575,-0.042,-0.01316825,-0.0022125002,-0.00254825,1742092478.4835079
0.23575,0.058,-0.032,-0.013382,-0.0031127501,-0.0038605002,1742092478.498204
0.23925,0.04875,-0.02275,-0.0126495,-0.0043944996,-0.0064239996,1742092478.512871
0.249,0.0375,-0.00925,-0.01266475,-0.004547,-0.00688175,1742092478.527988
0.251,0.033,-0.01,-0.013183501,-0.0042725,-0.0067902496,1742092478.542364
0.2505,0.0255,-0.01325,-0.014938249,-0.00308225,-0.0062407497,1742092478.558327
0.2465,0.00225,-0.01425,-0.015518251,-0.00263975,-0.0060577504,1742092478.571689
0.245,-0.00875,-0.012,-0.01582325,-0.0020905002,-0.005066,1742092478.586417
0.24075,-0.021,-0.00725,-0.0159455,-0.0020599999,-0.00399775,1742092478.601214
0.2395,-0.02125,-0.00375,-0.01605225,-0.0021057501,-0.00163275,1742092478.6158662
0.23675,-0.02175,0.0015,-0.0153502505,-0.00216675,-0.00125125,1742092478.630645
0.236,-0.024,-0.0,-0.01210025,-0.0028074998,-0.0027160002,1742092478.645469
0.24275,-0.0235,-0.004,-0.0100555,-0.0033722501,-0.004074,1742092478.6602838
0.24725,-0.0195,-0.005,-0.0059510004,-0.004776,-0.0075682504,1742092478.6750321
0.25975,-0.01,0.00425,-0.0041810004,-0.0054015,-0.00953675,1742092478.6897438
0.26675,-0.0085,0.014,-0.0042267498,-0.00570675,-0.0112,1742092478.704383
0.2765,-0.02325,0.02375,-0.0064239996,-0.00505075,-0.010024999,1742092478.718932
0.27375,-0.03825,0.02275,-0.01077275,-0.00251775,-0.008148249,1742092478.7335758
0.24725,-0.11075,0.048,-0.012313751,-0.00193775,-0.009262,1742092478.748353
0.2285,-0.1995,0.096,-0.0135345,-0.002472,-0.01127625,1742092478.763038
0.23325,-0.542,0.24425,-0.0069885002,-0.0059510004,-0.01092525,1742092478.7789068
0.23975,-0.77825,0.29975,0.00505075,-0.00671375,-0.00390625,1742092478.792178
0.23375,-0.957,0.35075,0.030777,-0.00177,0.029327499,1742092478.807903
0.2305,-0.83825,0.4545,0.0420685,0.00175475,0.049133252,1742092478.8209221
0.20775,-0.55975,0.45675,0.06781,0.008026,0.06086725,1742092478.8353121
0.1275,0.12575,0.3125,0.077041745,0.0111085,0.05264275,1742092478.849636
0.102,0.446,0.1645,0.07810975,0.015090999,0.031997748,1742092478.864172
0.116,0.9505,-0.142,0.070831254,0.0168,0.021362249,1742092478.879076
0.154,1.0,-0.233,0.060714748,0.016861,0.008148249,1742092478.893018
0.195,1.0,-0.2625,0.03952025,0.00708,-0.013031,1742092478.908256
0.221,0.77625,-0.1945,0.028137252,0.0070495,-0.012756251,1742092478.9217641
0.2325,0.631,-0.11375,0.0062255003,0.009811499,-0.00941475,1742092478.936481
0.23425,0.3325,-0.026,-0.00059500005,0.0067445002,-0.012115501,1742092478.9518342
0.2305,0.18325,0.00525,-0.01065075,0.00868225,-0.0077210004,1742092478.96546
0.2175,-0.06675,0.04075,-0.01301575,0.010681249,-0.00289925,1742092478.9799879
0.201,-0.1455,0.0265,-0.009887749,0.009811499,0.0034484998,1742092478.994658
0.1815,-0.1985,-0.005,-0.0070647504,0.007965,0.0050965,1742092479.0092852
0.17825,-0.181,-0.009,-0.000824,0.00364675,0.0050355,1742092479.023842
0.20025,-0.08925,-0.01675,0.00245675,0.00071725,0.0049590003,1742092479.038306
0.2175,-0.0355,-0.018,0.004486,-0.001526,0.0050202496,1742092479.0527968
0.2355,0.0215,-0.01675,0.0050355,-0.00364675,0.0013427499,1742092479.068394
0.24975,0.0965,-0.0305,0.0051880004,-0.00364675,-0.001709,1742092479.081742
0.24925,0.11775,-0.03,0.0034790002,-0.00190725,-0.00390625,1742092479.0962381
0.24175,0.11625,-0.03325,0.0024414998,-0.002777,-0.00263975,1742092479.110656
0.24425,0.102,-0.0305,-0.0009155,-0.000885,0.001831,1742092479.1252532
0.2625,0.07875,-0.01125,-0.0020905002,-7.625e-05,0.003128,1742092479.1396558
0.262,0.07525,-0.0085,-0.001175,-0.00030525,0.00071725,1742092479.154193
0.2555,0.074,-0.00975,-0.000885,-0.0003815,-0.00033575002,1742092479.1687748
0.2545,0.0715,-0.0065,-0.00125125,-9.15e-05,-0.00054925,1742092479.1833768
0.25225,0.06775,-0.00375,-0.002777,0.00048825,-0.000412,1742092479.1979861
0.24975,0.0585,-0.001,-0.00352475,0.0010375,-0.000229,1742092479.212445
0.2475,0.05675,-0.00075,-0.0045625,0.00181575,0.00035100002,1742092479.228332
0.2425,0.06375,-0.00575,-0.0046234997,0.00204475,0.00048825,1742092479.241237
0.24175,0.068,-0.01125,-0.00399775,0.00154125,3.0500001e-05,1742092479.2556531
0.24075,0.07425,-0.01425,-0.0040435,0.00149525,-9.15e-05,1742092479.270251
0.24025,0.0765,-0.01125,-0.00531,0.001892,0.00131225,1742092479.284818
0.23475,0.0795,-0.01575,-0.0061645,0.00213625,0.0023345,1742092479.300041
0.23,0.07925,-0.02275,-0.00697325,0.00251775,0.0031585,1742092479.3135302
0.22525,0.0775,-0.03125,-0.00830075,0.0030975002,0.0043182503,1742092479.328073
0.2215,0.0705,-0.04325,-0.00839225,0.00292975,0.00428775,1742092479.342303
0.221,0.06525,-0.04425,-0.0065612504,0.0012207499,0.00228875,1742092479.3566499
0.2265,0.05575,-0.0365,-0.00535575,0.00013725001,0.001236,1742092479.371099
0.23025,0.0555,-0.031,-0.00390625,-0.001007,0.00057975,1742092479.3855941
0.2325,0.06775,-0.0215,-0.00378425,-0.00099175,0.00070200005,1742092479.4000509
0.23425,0.07725,-0.01825,-0.004013,-0.00077825,0.00090025004,1742092479.4146612
0.23475,0.08925,-0.02175,-0.0056304997,-0.00045775,0.0012817499,1742092479.42918
0.23425,0.0885,-0.0255,-0.0066374997,-0.00048825,0.00105275,1742092479.443649
0.23425,0.085,-0.02725,-0.0076599997,-0.0012207499,-0.00057975,1742092479.458266
0.23875,0.0805,-0.0235,-0.007965,-0.001648,-0.00112925,1742092479.472967
0.24,0.08275,-0.02075,-0.00868225,-0.00193775,-0.001419,1742092479.48833
0.236,0.0925,-0.019,-0.009155249,-0.0017852499,-0.0017395001,1742092479.502186
0.23325,0.09475,-0.02175,-0.010849,-0.0013580001,-0.0033264998,1742092479.51821
0.2345,0.08425,-0.03125,-0.011749251,-0.0014037499,-0.00390625,1742092479.531244
0.2355,0.07175,-0.035,-0.011917,-0.0017395001,-0.0054932497,1742092479.5458581
0.23375,0.0525,-0.034,-0.01150525,-0.0020599999,-0.00621025,1742092479.560564
0.2345,0.052,-0.028,-0.01104725,-0.003128,-0.006363,1742092479.575268
0.241,0.0545,-0.01375,-0.011123749,-0.003418,-0.006302,1742092479.589938
0.2425,0.052,-0.00975,-0.011673001,-0.0032347501,-0.0059815003,1742092479.604438
0.24125,0.04675,-0.00925,-0.014007499,-0.0017395001,-0.0043335,1742092479.619018
0.23125,0.033,-0.01925,-0.01474,-0.000824,-0.0038757501,1742092479.633524
0.22525,0.0275,-0.0295,-0.014648501,7.625e-05,-0.0038299998,1742092479.648179
0.21675,0.023,-0.044,-0.014206001,-0.000122000005,-0.0039825,1742092479.662762
0.21575,0.02,-0.04325,-0.013290499,-0.00115975,-0.00399775,1742092479.678758
0.21875,0.01325,-0.03625,-0.01295475,-0.0016175,-0.00355525,1742092479.691854
0.22175,0.013,-0.03375,-0.012115501,-0.0022125002,-0.00279225,1742092479.7065442
0.2265,0.02325,-0.033,-0.011764499,-0.0023497501,-0.0031127501,1742092479.721196
0.22675,0.03025,-0.03325,-0.011856,-0.002777,-0.0053709997,1742092479.735789
0.22975,0.0395,-0.03175,-0.01257325,-0.00331125,-0.006607,1742092479.751133
0.2345,0.0345,-0.02775,-0.01358025,-0.0038605002,-0.0074920002,1742092479.764837
0.23975,0.0255,-0.02225,-0.01490775,-0.004593,-0.00811775,1742092479.7794719
0.247,0.01775,-0.01325,-0.01504525,-0.0047455,-0.00846875,1742092479.794197
0.25,0.017,-0.00875,-0.01475525,-0.0047302498,-0.01077275,1742092479.808865
0.25175,0.01025,-0.00675,-0.0142365,-0.0048065,-0.01272575,1742092479.823433
0.24875,0.00525,-0.0105,-0.013733,-0.00514225,-0.01573175,1742092479.838586
0.2395,-0.01325,-0.01175,-0.014557,-0.0056304997,-0.015747,1742092479.8528929
0.23975,-0.032,-0.0015,-0.01838675,-0.0076142503,-0.0126495,1742092479.86852
0.27225,-0.08975,0.0485,-0.019699,-0.008407501,-0.011627249,1742092479.882241
0.294,-0.139,0.0835,-0.02111825,-0.008361749,-0.01251225,1742092479.896855
0.31025,-0.347,0.187,-0.020996,-0.00903325,-0.0123442495,1742092479.9114728
0.327,-0.53975,0.275,-0.00354,-0.013275251,-0.00485225,1742092479.926165
0.40575,-0.91375,0.45,0.0153502505,-0.012115501,0.0037079998,1742092479.940643
0.39025,-0.93125,0.49625,0.0376435,-0.00640875,0.01498425,1742092479.954967
0.32125,-0.796,0.494,0.07106025,0.0100555,0.04125975,1742092479.969454
0.159,-0.227,0.35575,0.077041745,0.016861,0.050674498,1742092479.983758
0.0885,0.0965,0.223,0.08273325,0.02436825,0.043045,1742092479.998056
0.02,0.6125,-0.0575,0.08506775,0.023224002,0.03096,1742092480.01246
0.04825,0.795,-0.1495,0.07197575,0.0178375,0.012909001,1742092480.028327
0.14175,0.90825,-0.21875,0.058288503,0.016570998,0.00564575,1742092480.0412412
0.18375,0.83225,-0.19225,0.04467775,0.014785751,-0.00146475,1742092480.05557
0.19825,0.69775,-0.16,0.02244575,0.008712751,-0.0054475004,1742092480.069995
0.179,0.39875,-0.0765,0.013321,0.011764499,-0.0044250004,1742092480.084361
0.171,0.28225,-0.03975,0.00143425,0.010681249,-0.00045775,1742092480.1009831
0.15,0.1095,-0.02275,-0.00216675,0.00665275,0.0025634998,1742092480.113259
0.14775,0.03625,-0.026,-0.00491325,0.0032195,0.00694275,1742092480.128896
0.1815,-0.06575,-0.0165,-0.0040435,0.00239575,0.007599,1742092480.1421819
0.20175,-0.08225,-0.01425,-0.001526,-0.001175,0.005249,1742092480.158422
0.23975,-0.04425,-0.008,-0.00096125,-0.002365,0.00419625,1742092480.1715431
0.2545,-0.008,-0.0045,-0.00029,-0.00317375,0.00396725,1742092480.186285
0.27625,0.0475,-0.00225,-0.0003815,-0.0025940002,0.0025787498,1742092480.201795
0.27775,0.06775,-0.009,-0.00057975,-0.0020295,0.0004425,1742092480.215651
0.27225,0.079,-0.019,0.00070200005,-3.0500001e-05,-0.0031127501,1742092480.230301
0.264,0.09025,-0.019,0.00070200005,0.0013885,-0.0031889998,1742092480.2448041
0.259,0.0945,-0.0185,-0.00062550005,0.00090025004,-0.0017852499,1742092480.259382
0.24025,0.0895,-0.03225,-0.0013885,0.0011445,-0.00112925,1742092480.273838
0.23225,0.08425,-0.0365,-0.00302125,0.00225825,6.1000002e-05,1742092480.2885802
0.21925,0.08475,-0.03975,-0.0037079998,0.0015565,0.00045775,1742092480.302793
0.21775,0.0845,-0.04,-0.00543225,0.0003205,0.0013275,1742092480.318348
0.224,0.0695,-0.03525,-0.0060272496,-4.575e-05,0.00154125,1742092480.331597
0.23025,0.0615,-0.0295,-0.00611875,-0.00071725,0.001175,1742092480.346165
0.237,0.05575,-0.02375,-0.005844,-0.001648,-0.00029,1742092480.360733
0.23975,0.04625,-0.01375,-0.00570675,-0.001526,-0.00067150005,1742092480.3753479
0.23975,0.04475,-0.01125,-0.00520325,-0.00077825,-0.0004425,1742092480.390236
0.2285,0.05425,-0.01925,-0.00531,-0.00027475,0.0002595,1742092480.404617
0.21925,0.0655,-0.02875,-0.0064239996,0.0001525,0.0021515,1742092480.434517
0.211,0.082,-0.046,-0.007187,-0.0002135,0.00276175,1742092480.4348989
0.21175,0.08275,-0.04825,-0.0072480002,-0.001892,0.0016632499,1742092480.451534
0.22975,0.07775,-0.0365,-0.006775,-0.0028074998,0.00035100002,1742092480.462626
0.2375,0.07275,-0.029,-0.00720225,-0.0028229998,-0.0009765,1742092480.4791849
0.23825,0.06875,-0.02025,-0.007782,-0.0023345,-0.00083925005,1742092480.491929
0.2365,0.0705,-0.0185,-0.008361749,-0.0019989999,-0.0005035,1742092480.509257
0.23525,0.07,-0.019,-0.009369001,-0.001648,-0.0002595,1742092480.521203
0.23475,0.05875,-0.0295,-0.009277251,-0.00175475,-0.00099175,1742092480.549876
0.23825,0.05125,-0.03475,-0.0076599997,-0.00296025,-0.0025787498,1742092480.550346
0.2435,0.04775,-0.03375,-0.0067597497,-0.0035704998,-0.0028229998,1742092480.5726988
0.244,0.05325,-0.02875,-0.006607,-0.0038299998,-0.002777,1742092480.5801442
0.24475,0.06625,-0.02,-0.0078735,-0.00334175,-0.0024414998,1742092480.594091
0.242,0.067,-0.02075,-0.01004025,-0.0024414998,-0.0012207499,1742092480.609449
0.23625,0.0595,-0.028,-0.0100555,-0.002243,-0.0012817499,1742092480.6246002
0.23675,0.054,-0.03175,-0.0095672505,-0.0019225,-0.00242625,1742092480.641228
0.238,0.045,-0.038,-0.0093995,-0.00190725,-0.0028535,1742092480.653497
0.2395,0.047,-0.03675,-0.00918575,-0.0020599999,-0.00320425,1742092480.6683269
0.2425,0.05075,-0.032,-0.0087585,-0.0026854998,-0.0043639997,1742092480.6816168
0.24575,0.05,-0.02375,-0.00862125,-0.00283825,-0.00505075,1742092480.708135
0.24525,0.04775,-0.02275,-0.009079001,-0.00239575,-0.0055695,1742092480.7144032
0.24075,0.045,-0.029,-0.00962825,-0.00193775,-0.0052947504,1742092480.7254899
0.23875,0.0435,-0.03375,-0.01033025,-0.0012817499,-0.00531,1742092480.740345
0.23525,0.03875,-0.03875,-0.010452249,-0.0012817499,-0.0057220003,1742092480.756726
0.2345,0.039,-0.0365,-0.010452249,-0.001648,-0.00614925,1742092480.7690759
0.2365,0.037,-0.0295,-0.010147001,-0.00190725,-0.0059815003,1742092480.783627
0.2395,0.03425,-0.02725,-0.0097045,-0.0020752498,-0.0057220003,1742092480.799309
0.245,0.02675,-0.028,-0.00975025,-0.00190725,-0.0056304997,1742092480.8128052
0.244,0.02575,-0.03025,-0.009948749,-0.001526,-0.00541675,1742092480.828368
0.241,0.028,-0.03175,-0.0100555,-0.0008545,-0.0055237496,1742092480.842206
0.238,0.033,-0.02875,-0.00985725,-0.00093075,-0.0062712496,1742092480.857912
0.24125,0.03475,-0.02525,-0.010024999,-0.0016632499,-0.0088805,1742092480.871267
0.25125,0.0295,-0.01925,-0.0106355,-0.0019989999,-0.010238751,1742092480.885886
0.2545,0.02225,-0.01825,-0.011886501,-0.0018615,-0.012115501,1742092480.900397
0.24825,0.00775,-0.02175,-0.01216125,-0.00131225,-0.0125885,1742092480.9150772
0.24125,0.00375,-0.026,-0.0128175,-0.00051875,-0.0118407495,1742092480.929662
0.235,0.00825,-0.03125,-0.013488751,-0.00067150005,-0.010788,1742092480.944256
0.23825,0.01025,-0.02725,-0.01490775,-0.0017852499,-0.009811499,1742092480.958863
0.255,-0.00425,-0.00725,-0.015442001,-0.0020752498,-0.0102845,1742092480.9735758
0.26,-0.0155,0.001,-0.01576225,-0.0017395001,-0.01133725,1742092480.988359
0.24175,-0.05125,0.00075,-0.016296498,0.000229,-0.0128632495,1742092481.002644
0.2305,-0.0825,0.0035,-0.017181499,0.00062550005,-0.0119934995,1742092481.0182898
0.222,-0.12625,0.022,-0.0192565,-0.0022125002,-0.0097045,1742092481.032353
0.202,-0.29175,0.12975,-0.019287001,-0.0052337497,-0.008773751,1742092481.0470881
0.223,-0.47125,0.21225,-0.0072175004,-0.01004025,-0.008224499,1742092481.061781
0.2875,-0.884,0.329,0.0093385,-0.008270251,-0.0106965,1742092481.076405
0.289,-0.97875,0.364,0.051086497,-0.000885,0.0036010002,1742092481.0907362
0.24875,-0.76425,0.41225,0.06552125,0.0008545,0.0231475,1742092481.105101
0.2255,-0.492,0.40725,0.07928475,0.0061035,0.056259252,1742092481.119336
0.16825,0.187,0.2695,0.081787005,0.010849,0.05856325,1742092481.133597
0.1545,0.5235,0.15475,0.082839996,0.014785751,0.05078125,1742092481.147857
0.14975,0.792,0.0295,0.074081495,0.017929,0.02067575,1742092481.1620579
0.17325,0.973,-0.2005,0.06283575,0.0178985,0.0054475004,1742092481.17648
0.2055,0.9125,-0.23975,0.03913875,0.012329,-0.0138855,1742092481.1908429
0.2065,0.66575,-0.22575,0.029266251,0.00767525,-0.014328,1742092481.205269
0.20975,0.5145,-0.15575,0.009887749,0.00930775,-0.010727,1742092481.219845
0.202,0.25275,-0.045,0.0047302498,0.0044250004,-0.0129700005,1742092481.234344
0.18825,0.1565,-0.02075,0.00086975005,0.00083925005,-0.013092,1742092481.248821
0.16625,-0.00875,-0.002,-0.00782775,0.0036162501,-0.001419,1742092481.263456
0.16075,-0.075,-0.00675,-0.009277251,0.0043944996,0.002533,1742092481.278966
0.164,-0.12425,-0.017,-0.0055695,0.00039675,0.002121,1742092481.292691
0.197,-0.14325,-0.03475,-0.0028229998,-0.0012665,0.00216675,1742092481.308183
0.215,-0.116,-0.04075,0.00029,-0.00231925,0.0046539996,1742092481.321847
0.23825,-0.02775,-0.03775,0.00115975,-0.00267025,0.00511175,1742092481.336503
0.2465,0.01425,-0.03375,0.0022125002,-0.0028535,0.0029449998,1742092481.351331
0.25625,0.068,-0.0365,0.00204475,-0.0028229998,0.0019989999,1742092481.365458
0.25475,0.084,-0.042,0.00064075,-0.002472,0.0015565,1742092481.380064
0.25775,0.10075,-0.039,0.0,-0.0021057501,0.00099175,1742092481.394489
0.26,0.1,-0.03625,-0.0007325,-0.001953,0.000122000005,1742092481.408957
0.26075,0.09525,-0.03175,-0.00289925,-0.00083925005,-0.00125125,1742092481.4236019
0.2555,0.06975,-0.02275,-0.004303,-9.15e-05,-0.0014495,1742092481.438572
0.25025,0.0505,-0.0225,-0.00643925,0.0010375,-0.001007,1742092481.4527411
0.2385,0.01875,-0.0305,-0.0068665,0.0012817499,-0.00027475,1742092481.4685178
0.2345,0.01525,-0.032,-0.0065765,0.00080875,0.0015565,1742092481.481708
0.235,0.03075,-0.0285,-0.0062865,0.000122000005,0.00198375,1742092481.4963121
0.23625,0.04025,-0.02825,-0.00640875,-0.00064075,0.00190725,1742092481.510754
0.235,0.04925,-0.02925,-0.0070342496,-0.0003815,0.001648,1742092481.525353
0.23125,0.05075,-0.03125,-0.0087585,-0.000183,0.0013885,1742092481.53993
0.2255,0.054,-0.037,-0.009292499,-0.0005035,0.00115975,1742092481.554686
0.22525,0.05425,-0.038,-0.0093995,-0.0011445,0.00068675,1742092481.569248
0.228,0.054,-0.036,-0.009613,-0.0021515,-0.00036625,1742092481.58384
0.2395,0.05175,-0.027,-0.010253999,-0.00238025,-0.00019825,1742092481.598464
0.24325,0.04775,-0.02675,-0.01248175,-0.0018615,0.001648,1742092481.613193
0.244,0.04125,-0.03425,-0.013031,-0.0013275,0.0017852499,1742092481.628204
0.2415,0.0425,-0.0375,-0.012313751,-0.00137325,-0.00035100002,1742092481.642356
0.23875,0.046,-0.03775,-0.012130749,-0.0018615,-0.0013885,1742092481.657824
0.23975,0.0445,-0.034,-0.012695249,-0.0025025,-0.00228875,1742092481.671623
0.24375,0.042,-0.0255,-0.0129700005,-0.0025634998,-0.0023345,1742092481.686462
0.24525,0.04075,-0.026,-0.01301575,-0.0025787498,-0.0013427499,1742092481.701045
0.24525,0.03875,-0.03025,-0.012909001,-0.0025634998,-0.00035100002,1742092481.7157261
0.2445,0.038,-0.03125,-0.011749251,-0.00270075,0.00099175,1742092481.730376
0.24325,0.038,-0.031,-0.011139,-0.0026854998,0.00080875,1742092481.744983
0.24225,0.0405,-0.03075,-0.01095575,-0.0025787498,0.0003815,1742092481.759648
0.24125,0.04325,-0.03075,-0.011535751,-0.0023345,-0.00010675,1742092481.7744908
0.23825,0.04325,-0.03325,-0.011764499,-0.0023039998,-0.000473,1742092481.789069
0.236,0.0385,-0.03425,-0.0117035,-0.0027160002,-0.0017242499,1742092481.803648
0.236,0.02175,-0.02925,-0.01127625,-0.0030975002,-0.0022735,1742092481.81835
0.23575,0.018,-0.0275,-0.010437001,-0.00354,-0.0025787498,1742092481.832952
0.2315,0.02575,-0.028,-0.010452249,-0.00352475,-0.0022125002,1742092481.847727
0.231,0.0305,-0.02775,-0.01145925,-0.0033264998,-0.00137325,1742092481.862279
0.23325,0.036,-0.0275,-0.012207,-0.00320425,-0.00024425,1742092481.876877
0.2345,0.035,-0.02925,-0.0127105,-0.00334175,0.00016775,1742092481.891349
0.237,0.0245,-0.03125,-0.012405501,-0.003662,-0.0008545,1742092481.9061482
0.2385,0.0215,-0.02875,-0.01136775,-0.00453175,-0.0026245,1742092481.9207838
0.246,0.023,-0.0155,-0.010894749,-0.0049742498,-0.00317375,1742092481.935353
0.25125,0.0205,-0.00625,-0.010757499,-0.00514225,-0.0033570002,1742092481.951183
0.255,0.017,0.00075,-0.011627249,-0.0037995,-0.0023039998,1742092481.964643
0.2535,0.01925,-0.00475,-0.012130749,-0.0027160002,-0.0016785001,1742092481.9793642
0.24975,0.01975,-0.01325,-0.01251225,-0.001526,-0.0020599999,1742092481.994548
0.243,0.01625,-0.02475,-0.012329,-0.0016175,-0.003006,1742092482.009355
0.24225,0.012,-0.02325,-0.011825499,-0.00216675,-0.004242,1742092482.0238972
0.242,0.0065,-0.017,-0.011749251,-0.0023039998,-0.00402825,1742092482.038634
0.241,0.0065,-0.014,-0.012146,-0.0022735,-0.00292975,1742092482.053248
0.24325,0.0085,-0.01225,-0.01248175,-0.00216675,-0.00254825,1742092482.068474
0.2435,0.0085,-0.013,-0.012191749,-0.0016632499,-0.0032195,1742092482.082562
0.239,0.0115,-0.0185,-0.01187125,-0.001419,-0.0040435,1742092482.097249
0.23775,0.0095,-0.0205,-0.01197825,-0.00157175,-0.00543225,1742092482.1119611
0.2395,-0.003,-0.018,-0.011856,-0.0017242499,-0.006256,1742092482.1266592
0.24,-0.01,-0.0165,-0.01142875,-0.001648,-0.0075225,1742092482.141247
0.242,-0.028,-0.01175,-0.011673001,-0.0014495,-0.007431,1742092482.1560278
0.241,-0.0385,-0.0105,-0.0119934995,-0.0013275,-0.0070342496,1742092482.170652
0.23825,-0.04625,-0.00975,-0.011245751,-0.00193775,-0.00744625,1742092482.185344
0.24525,-0.06575,-0.00075,-0.010147001,-0.0029907501,-0.008590749,1742092482.201309
0.259,-0.083,0.01175,-0.008072,-0.00555425,-0.0110015,1742092482.214819
0.2865,-0.1495,0.061,-0.007782,-0.006302,-0.01145925,1742092482.229439
0.2875,-0.216,0.1015,-0.006607,-0.00543225,-0.009613,1742092482.244083
0.2765,-0.4415,0.1865,-0.002884,-0.00390625,-0.0065002497,1742092482.258697
0.25975,-0.57975,0.2175,0.012313751,-0.00115975,0.00514225,1742092482.273385
0.25175,-0.79575,0.261,0.025589,-0.002365,0.013198749,1742092482.288486
0.2785,-0.7835,0.3175,0.05641175,-0.0077667497,0.02873225,1742092482.3021598
0.32825,-0.4635,0.44025,0.06896975,-0.0059815003,0.032287497,1742092482.3165472
0.3055,-0.19125,0.4205,0.07754525,0.00070200005,0.03167725,1742092482.330894
0.247,0.1085,0.3115,0.07621775,0.0160675,0.026825001,1742092482.3453188
0.15925,0.66925,0.017,0.0697785,0.02168275,0.025421249,1742092482.359573
0.15175,0.8855,-0.116,0.050827,0.02519225,0.013382,1742092482.373805
0.12275,0.939,-0.29825,0.041396998,0.02038575,0.00245675,1742092482.388752
0.09625,0.80775,-0.31275,0.023407,0.011550999,-0.006836,1742092482.4029691
0.119,0.467,-0.153,0.01519775,0.009140001,-0.008209251,1742092482.418705
0.14125,0.3165,-0.08675,0.0053405,-0.00267025,-0.00975025,1742092482.431803
0.194,0.09825,0.008,-0.0010375,-0.002365,-0.005066,1742092482.446379
0.205,0.0075,0.024,-0.0070647504,9.15e-05,0.000824,1742092482.460672
0.2085,-0.075,0.01925,-0.00811775,0.00027475,0.0037385002,1742092482.475156
0.2285,-0.16725,-0.005,-0.0050812503,-0.0012207499,0.0022125002,1742092482.4898
0.24475,-0.1605,-0.01,0.0,-0.0029755002,0.00093075,1742092482.5043788
0.26775,-0.07425,-0.0135,0.001236,-0.0036162501,0.001831,1742092482.518838
0.2745,-0.0205,-0.01275,0.00027475,-0.00276175,0.00204475,1742092482.533238
0.27125,0.058,-0.01925,0.0,-0.0022735,-0.000183,1742092482.547925
0.2665,0.0785,-0.02775,-0.00086975005,0.0007325,-0.00416575,1742092482.562381
0.253,0.082,-0.04075,-0.0014037499,0.00042725,-0.0040435,1742092482.5768461
0.24475,0.07275,-0.051,-0.00169375,-0.00065625,-0.0029449998,1742092482.591456
0.24625,0.06525,-0.0455,-0.002655,-9.15e-05,-1.5250001e-05,1742092482.606143
0.24825,0.04575,-0.02475,-0.0032655,-0.0001525,0.00062550005,1742092482.620682
0.24075,0.03175,-0.01825,-0.003662,-0.00024425,-0.000183,1742092482.635236
0.23175,0.00775,-0.0155,-0.0034790002,-3.0500001e-05,-0.0002135,1742092482.650538
0.2315,0.0065,-0.01625,-0.00381475,0.00039675,0.00228875,1742092482.664536
0.23325,0.014,-0.02025,-0.00402825,0.00029,0.00354,1742092482.6790311
0.23525,0.015,-0.022,-0.00352475,-0.00064075,0.00399775,1742092482.693544
0.241,0.01475,-0.01775,-0.00296025,-0.00115975,0.0034637498,1742092482.708307
0.244,0.0165,-0.0135,-0.0016175,-0.00148,0.00160225,1742092482.722519
0.2465,0.02825,-0.0105,-0.0010375,-0.00125125,0.00077825,1742092482.7387478
0.24625,0.0365,-0.013,-0.00077825,-0.00083925005,0.00027475,1742092482.7516758
0.244,0.0445,-0.01775,-0.0014037499,9.15e-05,7.625e-05,1742092482.766051
0.24275,0.04925,-0.02475,-0.00190725,0.00019825,-1.5250001e-05,1742092482.780509
0.24425,0.04625,-0.0255,-0.00187675,-0.00024425,-0.00125125,1742092482.795142
0.24725,0.04025,-0.01925,-0.0018005001,-0.000473,-0.0017242499,1742092482.80972
0.2505,0.03775,-0.01375,-0.0024414998,-0.0004425,-0.00086975005,1742092482.824424
0.2465,0.03825,-0.01375,-0.0028074998,-0.0001525,-0.000183,1742092482.8389251
0.24275,0.04125,-0.016,-0.0033570002,0.00065625,0.0003205,1742092482.853552
0.236,0.04575,-0.02225,-0.00358575,0.00064075,6.1000002e-05,1742092482.8683121
0.2345,0.04425,-0.0255,-0.0037385002,0.0003205,-0.000412,1742092482.8824918
0.23625,0.04,-0.02625,-0.003769,-0.0005035,-0.00108325,1742092482.897162
0.23675,0.04175,-0.02525,-0.00384525,-0.00077825,-0.00105275,1742092482.9117398
0.2375,0.04525,-0.02375,-0.00393675,-0.00119025,-0.001007,1742092482.9264278
0.2395,0.04825,-0.022,-0.00411975,-0.0012207499,-0.00096125,1742092482.941144
0.241,0.04925,-0.02325,-0.0057677496,-0.00090025004,0.00035100002,1742092482.955489
0.247,0.04575,-0.028,-0.0065612504,-0.00080875,0.000946,1742092482.970199
0.24975,0.0435,-0.027,-0.00631725,-0.000885,0.00019825,1742092482.9846451
0.25175,0.0455,-0.0195,-0.00596625,-0.00099175,-0.00048825,1742092483.001358
0.251,0.04325,-0.01475,-0.0066985004,-0.00045775,-0.00033575002,1742092483.0141492
0.24475,0.02675,-0.01125,-0.0069885002,6.1000002e-05,0.000122000005,1742092483.029161
0.24,0.02075,-0.015,-0.00631725,0.000534,0.00054925,1742092483.043092
0.2355,0.02225,-0.023,-0.005844,0.00024425,0.00071725,1742092483.0583029
0.23525,0.02725,-0.0245,-0.0055085,-0.000183,0.00083925005,1742092483.072039
0.23675,0.0315,-0.02375,-0.00585925,-0.00077825,0.00119025,1742092483.086706
0.244,0.03325,-0.021,-0.00631725,-0.00077825,0.00131225,1742092483.101999
0.24575,0.032,-0.01975,-0.00697325,-0.0003205,0.0012817499,1742092483.11585
0.24525,0.02675,-0.01775,-0.00708,-7.625e-05,0.0012665,1742092483.130362
0.242,0.02575,-0.0185,-0.00671375,0.000183,0.00112925,1742092483.1451678
0.23475,0.0285,-0.02275,-0.0064239996,-4.575e-05,0.00102225,1742092483.159709
0.23425,0.0305,-0.025,-0.00593575,-0.0011445,0.0003815,1742092483.1743171
0.23625,0.02975,-0.02825,-0.0058135,-0.001648,-0.00013725001,1742092483.188904
0.2385,0.02875,-0.028,-0.00485225,-0.0023497501,-0.001587,1742092483.203655
0.24075,0.033,-0.022,-0.0038605002,-0.0026245,-0.00231925,1742092483.2185311
0.243,0.0335,-0.01575,-0.00283825,-0.0026854998,-0.0032195,1742092483.2330282
0.2435,0.03025,-0.0105,-0.0012207499,-0.0017852499,-0.0044555003,1742092483.2478259
0.23375,0.029,-0.01075,-0.00096125,-0.001068,-0.00378425,1742092483.262435
0.227,0.03575,-0.015,-0.00358575,-0.00035100002,0.00036625,1742092483.277185
0.228,0.0455,-0.02825,-0.00570675,-0.0005645,0.00225825,1742092483.291616
0.2345,0.04225,-0.03175,-0.0075377496,-0.00184625,0.002243,1742092483.3062541
0.24675,0.03325,-0.028,-0.0072480002,-0.002533,0.001114,1742092483.320765
0.251,0.0295,-0.02,-0.0056915004,-0.0030669998,-0.0015105,1742092483.33543
0.2555,0.0155,-0.008,-0.00485225,-0.002884,-0.0025787498,1742092483.351736
0.25825,0.006,-0.00625,-0.00381475,-0.00143425,-0.0023497501,1742092483.3650079
0.24925,0.00725,-0.01525,-0.003891,-0.00048825,-0.0014495,1742092483.3797529
0.24375,0.01425,-0.02075,-0.0053405,-0.0002595,-0.00061025,1742092483.394463
0.2455,0.00475,-0.02025,-0.00514225,-0.0007325,-0.00149525,1742092483.409149
0.24375,-0.0005,-0.0205,-0.00378425,-0.00115975,-0.0031585,1742092483.4238021
0.2465,-0.003,-0.017,-0.0012665,-0.00160225,-0.0046539996,1742092483.43838
0.25275,-0.00475,-0.01425,-0.00099175,-0.0013275,-0.00364675,1742092483.453064
0.25625,-0.00525,-0.01425,-0.00080875,0.00064075,-0.001175,1742092483.4682062
0.24875,0.00425,-0.019,-0.0008545,0.00169375,-0.00039675,1742092483.4821382
0.24375,0.01125,-0.01825,-0.0026092501,0.0021057501,0.0009155,1742092483.496639
0.2505,0.0035,-0.012,-0.00308225,0.001648,0.00096125,1742092483.511047
0.25275,-0.0025,-0.0125,-0.000534,0.0012055,-0.00115975,1742092483.525601
0.24675,0.00325,-0.01475,0.000946,0.00119025,-0.0021515,1742092483.5400288
0.24575,0.00875,-0.0145,0.0013885,0.00061025,-0.00276175,1742092483.5544162
0.244,0.015,-0.015,0.0003815,0.0005035,-0.002411,1742092483.5707798
0.24775,0.0095,-0.01275,-0.0011445,0.00077825,-0.0012970001,1742092483.583623
0.253,-0.00325,-0.01,-0.0017852499,0.002533,0.00148,1742092483.598052
0.254,-0.019,-0.00725,-9.15e-05,0.0035704998,0.00177,1742092483.6125472
0.254,-0.0135,-0.0105,0.0035704998,0.005005,0.001526,1742092483.628169
0.2525,0.007,-0.0125,0.00428775,0.0054475004,0.00190725,1742092483.6417432
0.2485,0.01075,-0.013,0.002655,0.0049590003,0.0023345,1742092483.656162
0.2515,0.00175,-0.01425,0.0013885,0.00428775,0.0022735,1742092483.6705248
0.2505,-0.00325,-0.0155,0.00096125,0.0031585,0.0012817499,1742092483.6848829
