acc_x,acc_y,acc_z,gyro_x,gyro_y,gyro_z,timestamp
0.00675,0.00575,0.2515,0.0002135,3.0500001e-05,-6.1000002e-05,1742092431.347898
0.0065,0.0055,0.25175,0.000183,1.5250001e-05,-6.1000002e-05,1742092431.359371
0.00625,0.00575,0.25175,0.00010675,0.0,-7.625e-05,1742092431.3736162
0.00625,0.006,0.25175,0.00019825,3.0500001e-05,-6.1000002e-05,1742092431.388052
0.0065,0.00575,0.25175,0.00033575002,7.625e-05,-7.625e-05,1742092431.4024808
0.00625,0.00625,0.252,0.00064075,0.00024425,1.5250001e-05,1742092431.416636
0.0065,0.00525,0.2505,0.000824,0.00033575002,0.00013725001,1742092431.4308548
0.00675,0.0045,0.25125,0.000534,0.00029,-7.625e-05,1742092431.445158
0.00925,0.009,0.2515,0.00035100002,0.00024425,-0.00039675,1742092431.459347
0.0085,0.012,0.25075,7.625e-05,0.00010675,-0.00157175,1742092431.473616
0.00625,0.00925,0.25075,-1.5250001e-05,4.575e-05,-0.00184625,1742092431.48841
0.006,0.00625,0.252,-0.00010675,-4.575e-05,-0.00190725,1742092431.502591
0.0055,0.0045,0.2515,-0.0002595,-7.625e-05,-0.00193775,1742092431.517822
0.005,0.0055,0.251,-0.00033575002,-0.00010675,-0.00190725,1742092431.5315452
0.0055,0.006,0.25125,0.0,1.5250001e-05,-0.00190725,1742092431.545845
0.006,0.0075,0.252,6.1000002e-05,7.625e-05,-0.00198375,1742092431.560148
0.00625,0.009,0.25175,6.1000002e-05,0.00010675,-0.002411,1742092431.574445
0.008,0.0035,0.251,0.0,6.1000002e-05,-0.0025940002,1742092431.5886889
0.008,-0.00025,0.25175,-9.15e-05,3.0500001e-05,-0.002533,1742092431.603116
0.00775,-0.003,0.2525,9.15e-05,7.625e-05,-0.00169375,1742092431.6179981
0.00875,-0.0025,0.25,9.15e-05,9.15e-05,-0.0012665,1742092431.631705
0.00725,0.00125,0.25075,-0.0003205,-0.0002135,-0.00064075,1742092431.646147
0.0065,0.00575,0.252,-0.00027475,-0.0002595,-0.000183,1742092431.66067
0.008,0.00675,0.25175,-0.00019825,-0.0002135,1.5250001e-05,1742092431.674988
0.00975,0.00825,0.25175,-0.0002135,-0.00016775,-0.00019825,1742092431.6893618
0.0065,0.00475,0.25175,-0.000122000005,-0.000122000005,-0.000412,1742092431.7038238
0.00475,0.00275,0.25175,7.625e-05,-1.5250001e-05,-0.00033575002,1742092431.718207
0.005,0.0035,0.2515,0.00010675,3.0500001e-05,-0.000229,1742092431.7324328
0.006,0.00475,0.25125,0.000183,0.00010675,-0.00010675,1742092431.7466528
0.00725,0.0065,0.25125,0.00027475,0.00016775,-0.000183,1742092431.761062
0.0075,0.00725,0.251,0.00019825,0.000183,-0.0009765,1742092431.775365
0.00425,0.007,0.25125,1.5250001e-05,0.000122000005,-0.0014037499,1742092431.78967
0.00475,0.00525,0.25125,-7.625e-05,6.1000002e-05,-0.0013580001,1742092431.8040671
0.00675,0.004,0.25125,-0.000122000005,-1.5250001e-05,-0.00070200005,1742092431.818568
0.00675,0.004,0.25175,-0.0001525,-3.0500001e-05,-0.0005645,1742092431.832957
0.006,0.00475,0.25175,-0.00019825,0.0,-0.000534,1742092431.8472462
0.0055,0.005,0.2515,-0.0001525,1.5250001e-05,-0.0005645,1742092431.861585
0.0065,0.005,0.2515,-1.5250001e-05,6.1000002e-05,-0.0004425,1742092431.875982
0.00775,0.00475,0.2515,1.5250001e-05,7.625e-05,-0.00036625,1742092431.890166
0.00675,0.00475,0.25125,1.5250001e-05,6.1000002e-05,-0.0003205,1742092431.90508
0.00675,0.00475,0.25125,-3.0500001e-05,1.5250001e-05,-0.00016775,1742092431.918727
0.009,0.00475,0.251,-6.1000002e-05,0.0,-7.625e-05,1742092431.9331388
0.00925,0.00475,0.25125,-0.000122000005,-4.575e-05,3.0500001e-05,1742092431.947475
0.00775,0.005,0.2515,-0.000122000005,-7.625e-05,4.575e-05,1742092431.961758
0.0075,0.00525,0.2515,-0.000122000005,-0.00016775,1.5250001e-05,1742092431.976009
0.00675,0.00525,0.2515,-0.00013725001,-0.000229,3.0500001e-05,1742092431.9902358
0.00625,0.00525,0.2515,-0.00016775,-0.00027475,0.00010675,1742092432.00468
0.006,0.00525,0.2515,-0.000122000005,-0.00016775,0.00067150005,1742092432.019059
0.007,0.006,0.25125,-6.1000002e-05,-0.000122000005,0.0008545,1742092432.033278
0.00725,0.00625,0.2515,-4.575e-05,-4.575e-05,0.00048825,1742092432.047533
0.007,0.00575,0.2515,-4.575e-05,-4.575e-05,0.00027475,1742092432.061955
0.007,0.00575,0.2515,1.5250001e-05,0.0,6.1000002e-05,1742092432.076045
0.007,0.0055,0.25175,3.0500001e-05,1.5250001e-05,-1.5250001e-05,1742092432.090343
0.00675,0.0055,0.2515,1.5250001e-05,3.0500001e-05,-6.1000002e-05,1742092432.104645
0.00675,0.00575,0.25125,0.0,1.5250001e-05,-4.575e-05,1742092432.1189451
0.0065,0.00575,0.25125,0.0,0.0,-3.0500001e-05,1742092432.133137
0.0065,0.00575,0.2515,0.0,-1.5250001e-05,-3.0500001e-05,1742092432.147382
0.0065,0.00575,0.25125,3.0500001e-05,1.5250001e-05,-3.0500001e-05,1742092432.161668
0.00625,0.00575,0.25125,4.575e-05,6.1000002e-05,-6.1000002e-05,1742092432.175956
0.00625,0.00575,0.2515,4.575e-05,6.1000002e-05,-7.625e-05,1742092432.1900978
0.0065,0.00575,0.2515,6.1000002e-05,7.625e-05,-7.625e-05,1742092432.204353
0.0065,0.00575,0.2515,0.0002135,0.0001525,-0.00010675,1742092432.21876
0.007,0.0055,0.25125,0.00029,0.0002135,-0.000122000005,1742092432.2331169
0.007,0.0055,0.25125,0.0003205,0.000229,-0.000229,1742092432.2473412
0.0075,0.006,0.2515,0.00027475,0.0002135,-0.00039675,1742092432.261626
0.0075,0.0055,0.2515,0.00016775,0.000122000005,-0.00086975005,1742092432.275964
0.00675,0.005,0.2515,0.0001525,0.00010675,-0.0007935,1742092432.290129
0.0065,0.0055,0.25125,0.00013725001,0.00010675,-0.00064075,1742092432.304331
0.00575,0.0055,0.25125,6.1000002e-05,6.1000002e-05,-0.0007935,1742092432.318571
0.00475,0.0055,0.25125,3.0500001e-05,3.0500001e-05,-0.00080875,1742092432.332851
0.00525,0.0055,0.25125,6.1000002e-05,6.1000002e-05,-0.00064075,1742092432.347112
0.00675,0.00575,0.25175,9.15e-05,9.15e-05,-0.00062550005,1742092432.3613818
0.009,0.0045,0.25175,0.00013725001,9.15e-05,-0.00067150005,1742092432.375618
0.00975,0.00325,0.25125,0.00010675,1.5250001e-05,-0.00042725,1742092432.389934
0.00825,0.00425,0.25125,4.575e-05,-4.575e-05,-0.000183,1742092432.4042408
0.00725,0.005,0.2515,-4.575e-05,-0.0001525,0.0,1742092432.418561
0.00725,0.00525,0.2515,-4.575e-05,-0.00016775,-3.0500001e-05,1742092432.43296
0.00725,0.005,0.2515,-7.625e-05,-0.000183,-1.5250001e-05,1742092432.447367
0.007,0.00525,0.2515,-9.15e-05,-0.0001525,0.0,1742092432.4617631
0.00675,0.00525,0.2515,-6.1000002e-05,-3.0500001e-05,0.0,1742092432.476118
0.0065,0.00525,0.2515,-1.5250001e-05,1.5250001e-05,-1.5250001e-05,1742092432.490444
0.0065,0.00525,0.2515,1.5250001e-05,6.1000002e-05,-4.575e-05,1742092432.5046651
0.00675,0.005,0.25125,4.575e-05,9.15e-05,-9.15e-05,1742092432.519094
0.007,0.005,0.2515,1.5250001e-05,6.1000002e-05,-9.15e-05,1742092432.533331
0.00725,0.005,0.2515,-9.15e-05,-1.5250001e-05,-4.575e-05,1742092432.547694
0.00725,0.00475,0.2515,-0.0002595,-9.15e-05,-1.5250001e-05,1742092432.5622358
0.007,0.0055,0.252,-0.0002595,-9.15e-05,-3.0500001e-05,1742092432.576659
0.007,0.0055,0.25125,-0.00016775,-4.575e-05,-3.0500001e-05,1742092432.59107
0.00675,0.00575,0.25125,-0.00019825,-4.575e-05,-3.0500001e-05,1742092432.605567
0.00675,0.006,0.2515,-0.0002135,-4.575e-05,-6.1000002e-05,1742092432.61997
0.00675,0.00575,0.25175,-0.0001525,-3.0500001e-05,-6.1000002e-05,1742092432.634353
0.007,0.00575,0.25175,9.15e-05,6.1000002e-05,-7.625e-05,1742092432.648747
0.007,0.00525,0.251,0.0002135,0.00010675,-7.625e-05,1742092432.663031
0.007,0.005,0.251,6.1000002e-05,6.1000002e-05,-6.1000002e-05,1742092432.677516
0.007,0.0055,0.2515,-7.625e-05,0.0,-6.1000002e-05,1742092432.691544
0.007,0.0055,0.2515,-0.0001525,-4.575e-05,-6.1000002e-05,1742092432.705924
0.0065,0.0055,0.2515,-0.0001525,-6.1000002e-05,-3.0500001e-05,1742092432.720361
0.00675,0.00575,0.2515,-0.00010675,-4.575e-05,-3.0500001e-05,1742092432.734858
0.0065,0.00575,0.2515,-0.00010675,-4.575e-05,-4.575e-05,1742092432.750559
0.0065,0.006,0.25125,-0.00013725001,-4.575e-05,-4.575e-05,1742092432.7637
0.00675,0.006,0.2515,0.0,1.5250001e-05,-6.1000002e-05,1742092432.777952
0.007,0.00525,0.25125,6.1000002e-05,3.0500001e-05,-6.1000002e-05,1742092432.792135
0.007,0.00525,0.25125,1.5250001e-05,0.0,-6.1000002e-05,1742092432.8071759
0.007,0.00525,0.2515,-0.00016775,-9.15e-05,-6.1000002e-05,1742092432.82084
0.007,0.0055,0.25175,-0.00016775,-9.15e-05,-6.1000002e-05,1742092432.835337
0.00675,0.00575,0.2515,-0.0001525,-9.15e-05,-4.575e-05,1742092432.8510091
0.0065,0.006,0.2515,-0.00016775,-9.15e-05,-3.0500001e-05,1742092432.86411
0.00625,0.006,0.25125,-0.00024425,-0.000122000005,-4.575e-05,1742092432.878546
0.0065,0.006,0.25125,-0.00030525,-0.0001525,-3.0500001e-05,1742092432.893096
0.0065,0.00625,0.25125,-0.00042725,-0.00024425,9.15e-05,1742092432.907378
0.00725,0.006,0.2515,-0.0005035,-0.0002595,0.00024425,1742092432.921608
0.00725,0.00625,0.25175,-0.0005645,-0.00027475,0.00042725,1742092432.935966
0.00675,0.00625,0.25175,-0.00054925,-0.00024425,0.00033575002,1742092432.951189
0.006,0.0065,0.25175,-0.00054925,-0.000229,0.0002595,1742092432.9646358
0.00575,0.00675,0.25175,-0.00042725,-0.0001525,0.0002135,1742092432.979058
0.00575,0.007,0.2515,-0.00024425,-9.15e-05,0.0001525,1742092432.9933
0.0055,0.007,0.25125,1.5250001e-05,4.575e-05,0.0,1742092433.00777
0.00625,0.00675,0.25125,-4.575e-05,6.1000002e-05,-4.575e-05,1742092433.021913
0.0065,0.007,0.25175,-0.000183,0.0,-4.575e-05,1742092433.0361862
0.00625,0.00725,0.252,-0.00029,-0.00010675,1.5250001e-05,1742092433.051119
0.00625,0.00725,0.2515,-0.0002595,-0.00010675,3.0500001e-05,1742092433.064806
0.00625,0.00725,0.2515,-0.0002135,-7.625e-05,7.625e-05,1742092433.079208
0.00625,0.00725,0.2515,-0.00019825,-7.625e-05,9.15e-05,1742092433.0935318
0.006,0.00725,0.25125,-0.00013725001,-1.5250001e-05,4.575e-05,1742092433.108032
0.00575,0.00725,0.25075,-0.00013725001,-1.5250001e-05,0.0,1742092433.122266
0.00575,0.0075,0.25125,-0.0002135,-4.575e-05,-3.0500001e-05,1742092433.1377048
0.006,0.0075,0.252,-0.0003205,-0.000122000005,0.0,1742092433.1510131
0.006,0.0075,0.2515,-0.00027475,-0.00010675,1.5250001e-05,1742092433.1653419
0.006,0.0075,0.251,-0.0001525,-3.0500001e-05,0.0,1742092433.179733
0.00625,0.00725,0.25125,-0.00013725001,-1.5250001e-05,0.0,1742092433.194099
0.006,0.007,0.25125,-0.0001525,-3.0500001e-05,-3.0500001e-05,1742092433.208556
0.006,0.0075,0.2515,-0.000122000005,-4.575e-05,-1.5250001e-05,1742092433.222881
0.00625,0.0075,0.2515,-0.00013725001,-6.1000002e-05,-1.5250001e-05,1742092433.2380328
0.00625,0.00775,0.2515,-0.00019825,-9.15e-05,1.5250001e-05,1742092433.251679
0.00575,0.00775,0.2515,-0.000183,-9.15e-05,1.5250001e-05,1742092433.26598
0.00575,0.00775,0.2515,-0.0001525,-0.00010675,6.1000002e-05,1742092433.280328
0.0055,0.00775,0.25125,-0.0001525,-0.00010675,0.00010675,1742092433.29467
0.0055,0.008,0.2515,-0.000122000005,-6.1000002e-05,0.0001525,1742092433.308974
0.00575,0.008,0.2515,-9.15e-05,-3.0500001e-05,0.0001525,1742092433.323421
0.00575,0.00775,0.2515,-3.0500001e-05,0.0,0.000122000005,1742092433.338155
0.006,0.00775,0.2515,0.0,-1.5250001e-05,3.0500001e-05,1742092433.351941
0.00575,0.008,0.2515,0.0,-1.5250001e-05,1.5250001e-05,1742092433.366146
0.00575,0.00825,0.25125,0.0,-1.5250001e-05,-4.575e-05,1742092433.380578
0.00575,0.008,0.2515,1.5250001e-05,0.0,-4.575e-05,1742092433.3947678
0.0055,0.008,0.25125,0.0,0.0,-4.575e-05,1742092433.408994
0.00575,0.00775,0.25125,-4.575e-05,-1.5250001e-05,-3.0500001e-05,1742092433.423664
0.00575,0.0075,0.2515,-7.625e-05,-6.1000002e-05,-1.5250001e-05,1742092433.438102
0.006,0.008,0.2515,-0.0001525,-0.000122000005,0.0001525,1742092433.4524212
0.00625,0.00775,0.2515,-0.00016775,-0.00013725001,0.00027475,1742092433.468034
0.0065,0.0075,0.25125,-0.0001525,-9.15e-05,0.00029,1742092433.480991
0.006,0.0075,0.25125,-0.000122000005,-4.575e-05,0.000229,1742092433.495323
0.00575,0.00775,0.25125,-6.1000002e-05,-1.5250001e-05,0.00019825,1742092433.509635
0.006,0.00775,0.25125,-6.1000002e-05,-1.5250001e-05,0.00027475,1742092433.5240462
0.00625,0.008,0.25125,-6.1000002e-05,-1.5250001e-05,0.00035100002,1742092433.538301
0.006,0.0075,0.2515,3.0500001e-05,1.5250001e-05,0.00045775,1742092433.552694
0.0055,0.00775,0.2515,6.1000002e-05,4.575e-05,0.000473,1742092433.5678442
0.00525,0.00825,0.25125,4.575e-05,1.5250001e-05,0.00045775,1742092433.5811489
0.005,0.00875,0.251,6.1000002e-05,0.0,0.00039675,1742092433.5953379
0.005,0.0085,0.25125,4.575e-05,0.0,0.00024425,1742092433.609718
0.00475,0.00875,0.2515,0.0,1.5250001e-05,0.0002135,1742092433.623795
0.00425,0.00925,0.2515,-1.5250001e-05,1.5250001e-05,0.0002135,1742092433.638216
0.00425,0.00925,0.2515,3.0500001e-05,3.0500001e-05,0.00016775,1742092433.652253
0.005,0.00875,0.25125,1.5250001e-05,3.0500001e-05,0.000122000005,1742092433.667864
0.00525,0.0085,0.25125,-1.5250001e-05,3.0500001e-05,7.625e-05,1742092433.680615
0.0055,0.008,0.2515,-3.0500001e-05,1.5250001e-05,6.1000002e-05,1742092433.694952
0.00575,0.00775,0.25125,-6.1000002e-05,-1.5250001e-05,0.000122000005,1742092433.709259
0.00575,0.008,0.2515,-6.1000002e-05,-1.5250001e-05,0.000183,1742092433.723606
0.0055,0.008,0.2515,-4.575e-05,-1.5250001e-05,0.000183,1742092433.738111
0.00525,0.00825,0.2515,-3.0500001e-05,1.5250001e-05,0.00010675,1742092433.752119
0.00525,0.00875,0.25125,-1.5250001e-05,3.0500001e-05,7.625e-05,1742092433.7678552
0.0055,0.00875,0.25125,0.0,3.0500001e-05,3.0500001e-05,1742092433.780618
0.0055,0.00825,0.25125,0.0,1.5250001e-05,4.575e-05,1742092433.795056
0.0055,0.00825,0.25125,-3.0500001e-05,0.0,0.000122000005,1742092433.809328
0.00575,0.00775,0.25125,-3.0500001e-05,-1.5250001e-05,0.00019825,1742092433.823597
0.006,0.0075,0.25125,-1.5250001e-05,0.0,0.00027475,1742092433.838083
0.00625,0.007,0.2515,0.0,1.5250001e-05,0.00033575002,1742092433.8520021
0.00675,0.00675,0.25175,3.0500001e-05,0.0,0.00035100002,1742092433.866123
0.0065,0.007,0.25175,6.1000002e-05,1.5250001e-05,0.000473,1742092433.8802838
0.00525,0.0085,0.25125,3.0500001e-05,3.0500001e-05,0.00051875,1742092433.8946402
0.00525,0.00875,0.25125,1.5250001e-05,1.5250001e-05,0.0005035,1742092433.908788
0.005,0.00875,0.25125,6.1000002e-05,1.5250001e-05,0.0004425,1742092433.92301
0.00525,0.00875,0.2515,7.625e-05,0.0,0.00042725,1742092433.9376829
0.0055,0.0085,0.2515,7.625e-05,-4.575e-05,0.00042725,1742092433.951403
0.00675,0.0065,0.25125,0.000122000005,-6.1000002e-05,0.00042725,1742092433.9656892
0.006,0.007,0.25125,0.00010675,-3.0500001e-05,0.00051875,1742092433.9800189
0.00475,0.009,0.2515,7.625e-05,-1.5250001e-05,0.000534,1742092433.99447
0.0045,0.00925,0.2515,7.625e-05,0.0,0.00048825,1742092434.008424
0.004,0.00975,0.2515,3.0500001e-05,0.0,0.0004425,1742092434.022733
0.004,0.0095,0.2515,4.575e-05,-1.5250001e-05,0.000412,1742092434.038212
0.004,0.00925,0.2515,1.5250001e-05,0.0,0.000122000005,1742092434.050967
0.00475,0.00925,0.2515,0.0,1.5250001e-05,3.0500001e-05,1742092434.065113
0.005,0.009,0.25175,0.0,3.0500001e-05,-1.5250001e-05,1742092434.0793989
0.00525,0.0085,0.25175,1.5250001e-05,4.575e-05,-4.575e-05,1742092434.0937111
0.0055,0.00825,0.2515,1.5250001e-05,4.575e-05,-6.1000002e-05,1742092434.107857
0.0055,0.008,0.25175,3.0500001e-05,3.0500001e-05,-6.1000002e-05,1742092434.122112
0.00525,0.008,0.2515,3.0500001e-05,3.0500001e-05,-6.1000002e-05,1742092434.1364129
0.0055,0.00825,0.2515,3.0500001e-05,1.5250001e-05,-6.1000002e-05,1742092434.150712
0.00525,0.0085,0.2515,1.5250001e-05,0.0,-6.1000002e-05,1742092434.165102
0.005,0.0085,0.25125,0.0,0.0,-6.1000002e-05,1742092434.17942
0.005,0.0085,0.2515,0.0,3.0500001e-05,-4.575e-05,1742092434.193892
0.005,0.0085,0.2515,0.0,4.575e-05,-6.1000002e-05,1742092434.2080908
0.005,0.00825,0.2515,0.0,9.15e-05,-9.15e-05,1742092434.2223518
0.0055,0.0085,0.2515,1.5250001e-05,0.00010675,-7.625e-05,1742092434.2366168
0.0055,0.0085,0.2515,-1.5250001e-05,9.15e-05,-6.1000002e-05,1742092434.251107
0.00575,0.00825,0.2515,-1.5250001e-05,9.15e-05,-7.625e-05,1742092434.265429
0.0055,0.00825,0.2515,-1.5250001e-05,9.15e-05,-7.625e-05,1742092434.280094
0.00525,0.00825,0.25125,-1.5250001e-05,9.15e-05,-9.15e-05,1742092434.294305
0.0055,0.00825,0.25125,0.0,7.625e-05,-9.15e-05,1742092434.308534
0.00525,0.008,0.2515,7.625e-05,3.0500001e-05,-7.625e-05,1742092434.322813
0.0045,0.0075,0.2515,0.00013725001,3.0500001e-05,-7.625e-05,1742092434.338322
0.0055,0.00875,0.2515,0.000122000005,4.575e-05,-1.5250001e-05,1742092434.351409
0.00575,0.00875,0.25125,9.15e-05,4.575e-05,-1.5250001e-05,1742092434.365725
0.00575,0.0085,0.2515,7.625e-05,4.575e-05,-4.575e-05,1742092434.380041
0.00575,0.0085,0.2515,3.0500001e-05,3.0500001e-05,-7.625e-05,1742092434.394336
0.00575,0.0085,0.2515,3.0500001e-05,3.0500001e-05,-7.625e-05,1742092434.408732
0.00575,0.00825,0.2515,4.575e-05,4.575e-05,-6.1000002e-05,1742092434.423042
0.0045,0.0075,0.25125,6.1000002e-05,6.1000002e-05,-6.1000002e-05,1742092434.4381802
0.00425,0.0075,0.25125,4.575e-05,4.575e-05,-1.5250001e-05,1742092434.45193
0.00475,0.008,0.2515,1.5250001e-05,6.1000002e-05,1.5250001e-05,1742092434.46594
0.005,0.008,0.2515,0.0,6.1000002e-05,3.0500001e-05,1742092434.480028
0.005,0.008,0.2515,4.575e-05,7.625e-05,9.15e-05,1742092434.494246
0.006,0.00825,0.2515,7.625e-05,9.15e-05,0.000122000005,1742092434.508449
0.00625,0.0085,0.2515,3.0500001e-05,6.1000002e-05,0.00010675,1742092434.522629
0.0065,0.00875,0.2515,-1.5250001e-05,3.0500001e-05,6.1000002e-05,1742092434.538154
0.00625,0.009,0.2515,-1.5250001e-05,1.5250001e-05,0.0,1742092434.551148
0.00575,0.00875,0.2515,-1.5250001e-05,3.0500001e-05,-1.5250001e-05,1742092434.565661
0.0055,0.00825,0.2515,-1.5250001e-05,4.575e-05,0.0,1742092434.58002
0.0055,0.008,0.25125,0.0,4.575e-05,1.5250001e-05,1742092434.5942779
0.00575,0.00825,0.2515,1.5250001e-05,3.0500001e-05,3.0500001e-05,1742092434.608533
0.0055,0.0085,0.2515,1.5250001e-05,4.575e-05,3.0500001e-05,1742092434.622669
0.0055,0.009,0.2515,1.5250001e-05,3.0500001e-05,3.0500001e-05,1742092434.637826
0.006,0.009,0.2515,0.0,3.0500001e-05,-3.0500001e-05,1742092434.65098
0.00575,0.00825,0.25175,-1.5250001e-05,3.0500001e-05,-6.1000002e-05,1742092434.665291
0.0055,0.008,0.25175,-3.0500001e-05,4.575e-05,-6.1000002e-05,1742092434.679713
0.0055,0.00825,0.2515,0.0,3.0500001e-05,-1.5250001e-05,1742092434.693951
0.00525,0.00825,0.25125,1.5250001e-05,1.5250001e-05,-1.5250001e-05,1742092434.708104
0.00525,0.00825,0.25125,4.575e-05,3.0500001e-05,-1.5250001e-05,1742092434.7224278
0.00575,0.00825,0.25125,3.0500001e-05,1.5250001e-05,0.0,1742092434.737942
0.006,0.0085,0.25125,1.5250001e-05,0.0,1.5250001e-05,1742092434.750894
0.006,0.0085,0.25125,0.0,-1.5250001e-05,0.0,1742092434.765096
0.006,0.0085,0.25175,0.0,0.0,-1.5250001e-05,1742092434.7794318
0.006,0.0085,0.25175,-1.5250001e-05,1.5250001e-05,-3.0500001e-05,1742092434.793927
0.00575,0.00825,0.25125,-1.5250001e-05,0.0,-3.0500001e-05,1742092434.808257
0.00575,0.0085,0.2515,1.5250001e-05,0.0,-3.0500001e-05,1742092434.822546
0.0055,0.0085,0.2515,3.0500001e-05,1.5250001e-05,-4.575e-05,1742092434.837986
0.0055,0.00825,0.25125,1.5250001e-05,1.5250001e-05,-4.575e-05,1742092434.851209
0.0055,0.00825,0.2515,-6.1000002e-05,-3.0500001e-05,-4.575e-05,1742092434.8656042
0.00575,0.0085,0.2515,-6.1000002e-05,-4.575e-05,-4.575e-05,1742092434.8799932
0.006,0.0085,0.2515,-3.0500001e-05,-3.0500001e-05,-4.575e-05,1742092434.894412
0.0055,0.00825,0.25125,-1.5250001e-05,-3.0500001e-05,-4.575e-05,1742092434.9087842
0.00525,0.00825,0.25125,-1.5250001e-05,-1.5250001e-05,-4.575e-05,1742092434.923212
0.0055,0.0085,0.2515,-1.5250001e-05,-1.5250001e-05,-4.575e-05,1742092434.938011
0.0055,0.0085,0.2515,-1.5250001e-05,0.0,-4.575e-05,1742092434.9520261
0.0055,0.00825,0.2515,-1.5250001e-05,-1.5250001e-05,-4.575e-05,1742092434.968199
0.00575,0.00825,0.2515,0.0,-3.0500001e-05,-4.575e-05,1742092434.980713
0.0055,0.00825,0.2515,-1.5250001e-05,-3.0500001e-05,-4.575e-05,1742092434.9950788
0.00525,0.0085,0.25125,-1.5250001e-05,-3.0500001e-05,-4.575e-05,1742092435.009534
0.0055,0.0085,0.25125,0.0,-1.5250001e-05,-4.575e-05,1742092435.023801
0.0055,0.0085,0.25175,-1.5250001e-05,0.0,-6.1000002e-05,1742092435.03809
0.0055,0.00825,0.2515,-3.0500001e-05,1.5250001e-05,-6.1000002e-05,1742092435.0526662
0.0055,0.0085,0.25125,-1.5250001e-05,1.5250001e-05,-6.1000002e-05,1742092435.0675688
0.00525,0.0085,0.2515,1.5250001e-05,0.0,-6.1000002e-05,1742092435.081301
0.0055,0.0085,0.2515,4.575e-05,3.0500001e-05,-6.1000002e-05,1742092435.095527
0.006,0.00825,0.25075,3.0500001e-05,3.0500001e-05,-6.1000002e-05,1742092435.1098108
0.00575,0.0085,0.251,3.0500001e-05,-1.5250001e-05,-6.1000002e-05,1742092435.124214
0.00525,0.00875,0.2515,3.0500001e-05,0.0,-4.575e-05,1742092435.138626
0.00525,0.0085,0.2515,0.0,1.5250001e-05,-4.575e-05,1742092435.15293
0.0055,0.0085,0.2515,0.0,0.0,-4.575e-05,1742092435.167945
0.0055,0.0085,0.25175,0.0,-1.5250001e-05,-6.1000002e-05,1742092435.181526
0.0055,0.0085,0.25175,3.0500001e-05,1.5250001e-05,-7.625e-05,1742092435.195807
0.00575,0.00825,0.25125,3.0500001e-05,1.5250001e-05,-7.625e-05,1742092435.21003
0.00575,0.00825,0.251,1.5250001e-05,0.0,-6.1000002e-05,1742092435.2244322
0.0055,0.0085,0.25175,1.5250001e-05,0.0,-6.1000002e-05,1742092435.2387981
0.0055,0.00825,0.25175,0.0,0.0,-6.1000002e-05,1742092435.252964
0.0055,0.00825,0.25125,-1.5250001e-05,1.5250001e-05,-4.575e-05,1742092435.2679198
0.0055,0.0085,0.25125,1.5250001e-05,1.5250001e-05,-4.575e-05,1742092435.281534
0.00525,0.0085,0.2515,3.0500001e-05,0.0,-4.575e-05,1742092435.295816
0.00575,0.0085,0.2515,1.5250001e-05,0.0,-6.1000002e-05,1742092435.310014
0.0055,0.0085,0.25125,1.5250001e-05,0.0,-6.1000002e-05,1742092435.324325
0.00525,0.0085,0.2515,1.5250001e-05,1.5250001e-05,-6.1000002e-05,1742092435.338624
0.00525,0.00825,0.25175,1.5250001e-05,1.5250001e-05,-4.575e-05,1742092435.352802
0.00575,0.0085,0.25125,-1.5250001e-05,0.0,-4.575e-05,1742092435.367841
0.0055,0.0085,0.25125,-3.0500001e-05,-3.0500001e-05,-4.575e-05,1742092435.381535
0.0055,0.0085,0.2515,-1.5250001e-05,-4.575e-05,-4.575e-05,1742092435.3960419
0.00525,0.00875,0.2515,-1.5250001e-05,-4.575e-05,-4.575e-05,1742092435.410424
0.00525,0.0085,0.25125,-3.0500001e-05,-4.575e-05,-4.575e-05,1742092435.424942
0.00525,0.0085,0.25125,-1.5250001e-05,-3.0500001e-05,-4.575e-05,1742092435.439306
0.00525,0.0085,0.25125,3.0500001e-05,0.0,-6.1000002e-05,1742092435.453519
0.00525,0.0085,0.25125,3.0500001e-05,1.5250001e-05,-4.575e-05,1742092435.467818
0.0055,0.0085,0.25125,4.575e-05,1.5250001e-05,-6.1000002e-05,1742092435.4820108
0.0055,0.0085,0.2515,1.5250001e-05,1.5250001e-05,-7.625e-05,1742092435.496266
0.00525,0.00825,0.25125,1.5250001e-05,1.5250001e-05,-7.625e-05,1742092435.510526
0.00525,0.00825,0.25125,1.5250001e-05,3.0500001e-05,-7.625e-05,1742092435.524856
0.00525,0.0085,0.2515,4.575e-05,4.575e-05,-7.625e-05,1742092435.539108
0.00525,0.0085,0.2515,4.575e-05,6.1000002e-05,-6.1000002e-05,1742092435.553385
0.00525,0.0085,0.25125,4.575e-05,7.625e-05,-6.1000002e-05,1742092435.5680058
0.0055,0.00825,0.251,3.0500001e-05,9.15e-05,-7.625e-05,1742092435.58189
0.0055,0.00825,0.251,3.0500001e-05,9.15e-05,-9.15e-05,1742092435.596125
0.0055,0.00825,0.2515,3.0500001e-05,7.625e-05,-9.15e-05,1742092435.61045
0.00525,0.00825,0.25125,3.0500001e-05,4.575e-05,-7.625e-05,1742092435.624712
0.0055,0.0085,0.2515,1.5250001e-05,3.0500001e-05,-7.625e-05,1742092435.639008
0.0055,0.0085,0.2515,3.0500001e-05,1.5250001e-05,-6.1000002e-05,1742092435.653249
0.0055,0.0085,0.2515,1.5250001e-05,0.0,-6.1000002e-05,1742092435.667788
0.00525,0.00825,0.25125,1.5250001e-05,1.5250001e-05,-6.1000002e-05,1742092435.682005
0.00525,0.0085,0.25125,3.0500001e-05,3.0500001e-05,-7.625e-05,1742092435.696238
0.00525,0.0085,0.251,4.575e-05,4.575e-05,-9.15e-05,1742092435.710448
0.00525,0.0085,0.25125,4.575e-05,0.00010675,-0.000122000005,1742092435.7249
0.00525,0.0085,0.2515,3.0500001e-05,0.000122000005,-0.0001525,1742092435.739112
0.005,0.00825,0.2515,4.575e-05,0.000122000005,-0.00019825,1742092435.753421
0.00525,0.008,0.25125,0.00016775,0.00010675,-0.00039675,1742092435.767916
0.0055,0.00825,0.2515,0.00013725001,0.00010675,-0.00042725,1742092435.78211
0.00525,0.00825,0.2515,9.15e-05,9.15e-05,-0.00036625,1742092435.796391
0.00575,0.00825,0.25175,0.00010675,7.625e-05,-0.00035100002,1742092435.810745
0.0065,0.0085,0.2515,4.575e-05,4.575e-05,-0.000183,1742092435.824905
0.006,0.0085,0.25125,3.0500001e-05,3.0500001e-05,-9.15e-05,1742092435.8391051
0.00575,0.0085,0.2515,4.575e-05,0.0,-4.575e-05,1742092435.853409
0.00575,0.00825,0.2515,0.0,-1.5250001e-05,-4.575e-05,1742092435.86782
0.00575,0.00825,0.25125,0.0,-3.0500001e-05,-6.1000002e-05,1742092435.882087
0.006,0.0085,0.25125,1.5250001e-05,-6.1000002e-05,-4.575e-05,1742092435.8963861
0.0055,0.0085,0.2515,1.5250001e-05,-7.625e-05,-4.575e-05,1742092435.910882
0.00525,0.0085,0.25125,-7.625e-05,-9.15e-05,-4.575e-05,1742092435.9252381
0.00525,0.00825,0.25125,-9.15e-05,-7.625e-05,-6.1000002e-05,1742092435.939698
0.0055,0.0085,0.2515,-1.5250001e-05,-1.5250001e-05,-4.575e-05,1742092435.95424
0.0055,0.0085,0.25125,4.575e-05,3.0500001e-05,-4.575e-05,1742092435.968517
0.00525,0.00825,0.251,9.15e-05,6.1000002e-05,-6.1000002e-05,1742092435.9827251
0.0055,0.00825,0.251,9.15e-05,9.15e-05,-6.1000002e-05,1742092435.996997
0.0055,0.00825,0.2515,7.625e-05,9.15e-05,-6.1000002e-05,1742092436.0112078
0.0055,0.00825,0.2515,4.575e-05,6.1000002e-05,-6.1000002e-05,1742092436.0254238
0.00575,0.008,0.25125,6.1000002e-05,4.575e-05,-6.1000002e-05,1742092436.0396988
0.0055,0.00825,0.2515,4.575e-05,3.0500001e-05,-6.1000002e-05,1742092436.0538938
0.0055,0.0085,0.2515,1.5250001e-05,0.0,-6.1000002e-05,1742092436.068098
0.0055,0.0085,0.2515,3.0500001e-05,0.0,-4.575e-05,1742092436.082318
0.0055,0.0085,0.2515,3.0500001e-05,3.0500001e-05,-7.625e-05,1742092436.096606
0.0055,0.008,0.2515,1.5250001e-05,3.0500001e-05,-7.625e-05,1742092436.110829
0.0055,0.008,0.2515,0.0,3.0500001e-05,-6.1000002e-05,1742092436.124972
0.00525,0.00825,0.25125,0.0,3.0500001e-05,-6.1000002e-05,1742092436.139242
0.00525,0.00825,0.2515,1.5250001e-05,3.0500001e-05,-7.625e-05,1742092436.153523
0.00525,0.00825,0.2515,3.0500001e-05,3.0500001e-05,-6.1000002e-05,1742092436.167947
0.00525,0.00825,0.2515,1.5250001e-05,1.5250001e-05,-6.1000002e-05,1742092436.182101
0.00525,0.00825,0.25125,0.0,1.5250001e-05,-7.625e-05,1742092436.1963751
0.0055,0.00825,0.25125,3.0500001e-05,1.5250001e-05,-6.1000002e-05,1742092436.210638
0.0055,0.00825,0.25125,6.1000002e-05,6.1000002e-05,-6.1000002e-05,1742092436.224894
0.0055,0.0085,0.251,4.575e-05,7.625e-05,-6.1000002e-05,1742092436.239122
0.00475,0.008,0.25125,4.575e-05,6.1000002e-05,-6.1000002e-05,1742092436.253382
0.0045,0.00775,0.25175,6.1000002e-05,0.0,-3.0500001e-05,1742092436.2676191
0.007,0.0085,0.2515,6.1000002e-05,-1.5250001e-05,-1.5250001e-05,1742092436.2818701
0.00675,0.0085,0.25125,3.0500001e-05,1.5250001e-05,-4.575e-05,1742092436.2960908
0.006,0.00775,0.2515,3.0500001e-05,1.5250001e-05,-4.575e-05,1742092436.310327
0.006,0.00775,0.2515,3.0500001e-05,0.0,-4.575e-05,1742092436.324609
0.00575,0.00775,0.2515,1.5250001e-05,-1.5250001e-05,-3.0500001e-05,1742092436.338912
0.00575,0.00825,0.25125,1.5250001e-05,-3.0500001e-05,-3.0500001e-05,1742092436.353228
0.00575,0.0085,0.25125,0.0,-3.0500001e-05,-4.575e-05,1742092436.3680692
0.00575,0.0085,0.25125,-1.5250001e-05,-3.0500001e-05,-4.575e-05,1742092436.381987
0.00575,0.0085,0.25125,-3.0500001e-05,-3.0500001e-05,-3.0500001e-05,1742092436.396432
0.0055,0.00825,0.2515,-3.0500001e-05,-1.5250001e-05,-3.0500001e-05,1742092436.4108958
0.0055,0.008,0.2515,-3.0500001e-05,-1.5250001e-05,-3.0500001e-05,1742092436.425268
0.0055,0.0085,0.25125,0.0,-1.5250001e-05,-4.575e-05,1742092436.439602
0.0055,0.0085,0.2515,3.0500001e-05,0.0,-4.575e-05,1742092436.453877
0.0055,0.00825,0.2515,1.5250001e-05,3.0500001e-05,-6.1000002e-05,1742092436.468124
0.0055,0.00825,0.251,1.5250001e-05,3.0500001e-05,-6.1000002e-05,1742092436.482422
0.00525,0.00825,0.251,1.5250001e-05,3.0500001e-05,-4.575e-05,1742092436.49673
0.00525,0.00825,0.2515,1.5250001e-05,1.5250001e-05,-4.575e-05,1742092436.510997
0.0055,0.00825,0.2515,0.0,0.0,-6.1000002e-05,1742092436.5252311
0.0055,0.0085,0.2515,0.0,0.0,-6.1000002e-05,1742092436.539438
0.0055,0.00825,0.2515,1.5250001e-05,1.5250001e-05,-6.1000002e-05,1742092436.553704
0.00575,0.00825,0.2515,1.5250001e-05,3.0500001e-05,-6.1000002e-05,1742092436.567903
0.00575,0.00825,0.2515,0.0,3.0500001e-05,-4.575e-05,1742092436.582149
0.00575,0.00825,0.2515,0.0,3.0500001e-05,-6.1000002e-05,1742092436.596427
0.0055,0.0085,0.25125,0.0,4.575e-05,-6.1000002e-05,1742092436.610688
0.0055,0.00825,0.2515,0.0,6.1000002e-05,-7.625e-05,1742092436.6248791
0.00575,0.00825,0.2515,3.0500001e-05,4.575e-05,-7.625e-05,1742092436.639186
0.00575,0.00825,0.25125,3.0500001e-05,3.0500001e-05,-7.625e-05,1742092436.6535108
0.0055,0.00825,0.25125,0.0,3.0500001e-05,-7.625e-05,1742092436.66798
0.0055,0.008,0.2515,1.5250001e-05,3.0500001e-05,-7.625e-05,1742092436.682302
0.0055,0.00825,0.2515,3.0500001e-05,4.575e-05,-7.625e-05,1742092436.696528
0.00475,0.00775,0.25175,3.0500001e-05,4.575e-05,-9.15e-05,1742092436.710748
0.004,0.0075,0.25175,3.0500001e-05,4.575e-05,-9.15e-05,1742092436.725007
0.00475,0.008,0.25175,7.625e-05,6.1000002e-05,-6.1000002e-05,1742092436.739305
0.00525,0.00825,0.2515,9.15e-05,9.15e-05,-7.625e-05,1742092436.7537558
0.00475,0.00825,0.2515,0.00013725001,7.625e-05,-9.15e-05,1742092436.767992
0.00425,0.00775,0.2515,0.0001525,9.15e-05,-0.00010675,1742092436.782348
0.005,0.00775,0.25125,0.00010675,9.15e-05,-0.00013725001,1742092436.796566
0.0065,0.0085,0.2515,0.00010675,9.15e-05,-0.00013725001,1742092436.810913
0.00675,0.0085,0.2515,0.00010675,7.625e-05,-0.00013725001,1742092436.825307
0.00725,0.0085,0.2515,7.625e-05,4.575e-05,-0.00013725001,1742092436.839606
0.007,0.0085,0.25175,4.575e-05,3.0500001e-05,-0.00013725001,1742092436.853944
0.007,0.0085,0.25175,-1.5250001e-05,-1.5250001e-05,-0.000122000005,1742092436.868429
0.006,0.008,0.2515,-3.0500001e-05,-1.5250001e-05,-0.00010675,1742092436.883035
0.0055,0.00825,0.25125,-1.5250001e-05,-3.0500001e-05,-6.1000002e-05,1742092436.897512
0.0055,0.00825,0.25125,1.5250001e-05,-1.5250001e-05,-6.1000002e-05,1742092436.911971
0.0055,0.00825,0.25125,1.5250001e-05,1.5250001e-05,-6.1000002e-05,1742092436.927626
0.00575,0.00825,0.25125,0.0,3.0500001e-05,-6.1000002e-05,1742092436.9405062
0.00575,0.00825,0.25125,0.0,3.0500001e-05,-7.625e-05,1742092436.954711
0.00575,0.00825,0.25125,1.5250001e-05,3.0500001e-05,-6.1000002e-05,1742092436.96903
0.00575,0.00825,0.2515,1.5250001e-05,1.5250001e-05,-4.575e-05,1742092436.983289
0.00575,0.008,0.25125,-1.5250001e-05,-1.5250001e-05,-6.1000002e-05,1742092436.9976692
0.0055,0.008,0.25125,-1.5250001e-05,-1.5250001e-05,-6.1000002e-05,1742092437.012088
0.0055,0.00825,0.25125,-1.5250001e-05,-3.0500001e-05,-4.575e-05,1742092437.026613
0.0055,0.008,0.25125,-3.0500001e-05,-1.5250001e-05,-6.1000002e-05,1742092437.040959
0.0055,0.008,0.25125,-3.0500001e-05,-1.5250001e-05,-6.1000002e-05,1742092437.055369
0.00575,0.0085,0.2515,-3.0500001e-05,0.0,-6.1000002e-05,1742092437.0697868
0.006,0.0085,0.25175,-1.5250001e-05,0.0,-7.625e-05,1742092437.0842261
0.006,0.00825,0.2515,1.5250001e-05,4.575e-05,-7.625e-05,1742092437.098505
0.0055,0.00825,0.25125,1.5250001e-05,3.0500001e-05,-7.625e-05,1742092437.112912
0.0055,0.00825,0.2515,0.0,0.0,-6.1000002e-05,1742092437.127251
0.0055,0.008,0.25125,-1.5250001e-05,-1.5250001e-05,-6.1000002e-05,1742092437.1416728
0.0055,0.008,0.251,-3.0500001e-05,-1.5250001e-05,-6.1000002e-05,1742092437.156197
0.00575,0.00825,0.251,0.0,-3.0500001e-05,-6.1000002e-05,1742092437.1705978
0.00575,0.00825,0.2515,0.0,-3.0500001e-05,-4.575e-05,1742092437.185
0.00575,0.008,0.2515,-3.0500001e-05,-4.575e-05,-3.0500001e-05,1742092437.2002199
0.00575,0.008,0.25125,-4.575e-05,-7.625e-05,-3.0500001e-05,1742092437.214081
0.0055,0.00825,0.25125,-7.625e-05,-9.15e-05,-1.5250001e-05,1742092437.2285829
0.00575,0.008,0.2515,-9.15e-05,-0.00010675,-1.5250001e-05,1742092437.24295
0.00575,0.008,0.2515,-0.00013725001,-0.00010675,3.0500001e-05,1742092437.257696
0.005,0.0085,0.2515,-0.000122000005,-6.1000002e-05,4.575e-05,1742092437.271738
0.005,0.00875,0.2515,-7.625e-05,0.0,3.0500001e-05,1742092437.2859788
0.005,0.00875,0.25125,1.5250001e-05,0.00010675,-1.5250001e-05,1742092437.300459
0.0055,0.00825,0.25125,3.0500001e-05,0.000122000005,-3.0500001e-05,1742092437.314508
0.00575,0.00825,0.25125,-4.575e-05,9.15e-05,1.5250001e-05,1742092437.3288472
0.0055,0.008,0.25125,-0.00010675,7.625e-05,7.625e-05,1742092437.343233
0.0055,0.008,0.25125,-0.00013725001,0.0,0.000229,1742092437.3577259
0.00575,0.00825,0.252,-0.000122000005,-3.0500001e-05,0.00029,1742092437.372014
0.0055,0.00825,0.252,-0.00010675,-4.575e-05,0.00035100002,1742092437.386275
0.005,0.0075,0.25175,-7.625e-05,1.5250001e-05,0.00042725,1742092437.401174
0.004,0.00525,0.25125,-1.5250001e-05,9.15e-05,0.000534,1742092437.414902
0.004,0.005,0.2515,9.15e-05,0.000122000005,0.000946,1742092437.4292412
0.00525,0.00675,0.252,0.000122000005,0.00013725001,0.0011445,1742092437.443446
0.00575,0.00775,0.2515,0.000122000005,0.000122000005,0.00131225,1742092437.4580312
0.00575,0.0105,0.25175,6.1000002e-05,0.000122000005,0.0012817499,1742092437.4721332
0.0055,0.01,0.252,3.0500001e-05,0.00013725001,0.00115975,1742092437.486298
0.00525,0.00825,0.25175,0.00013725001,0.00013725001,0.001068,1742092437.5020869
0.00575,0.00825,0.25125,0.00013725001,0.000122000005,0.001175,1742092437.514731
0.006,0.00775,0.25125,3.0500001e-05,9.15e-05,0.001236,1742092437.529023
0.00625,0.009,0.2515,0.0,9.15e-05,0.0012970001,1742092437.543243
0.0065,0.01175,0.25125,0.0,9.15e-05,0.0013275,1742092437.5578098
0.0065,0.01325,0.251,0.0,6.1000002e-05,0.0009155,1742092437.571509
0.00575,0.011,0.25175,0.0,4.575e-05,0.00064075,1742092437.585658
0.00575,0.01,0.2515,6.1000002e-05,7.625e-05,0.00033575002,1742092437.6001742
0.0055,0.00725,0.25125,9.15e-05,0.00010675,0.00027475,1742092437.6140292
0.0055,0.0075,0.25125,0.000122000005,7.625e-05,0.000412,1742092437.6282182
0.00525,0.0075,0.25175,0.000122000005,7.625e-05,0.0004425,1742092437.642339
0.0055,0.0075,0.25175,0.00010675,6.1000002e-05,0.000473,1742092437.656501
0.00575,0.00825,0.2515,-0.00039675,-0.00019825,0.00143425,1742092437.670891
0.00525,0.01075,0.2515,-0.00048825,-0.000229,0.0013885,1742092437.685239
0.005,0.00925,0.25175,0.000229,0.00016775,0.00048825,1742092437.701091
0.005,0.00775,0.251,0.00033575002,0.000229,0.00054925,1742092437.713701
0.00525,0.0085,0.251,0.00016775,0.00013725001,0.00070200005,1742092437.728002
0.00525,0.00825,0.252,-4.575e-05,-1.5250001e-05,0.00074775,1742092437.742315
0.00475,0.00825,0.25175,-9.15e-05,-6.1000002e-05,0.00064075,1742092437.7566872
0.00425,0.00825,0.25075,-0.00010675,-4.575e-05,0.00064075,1742092437.7710552
0.0055,0.00925,0.25125,-9.15e-05,-3.0500001e-05,0.00070200005,1742092437.7855282
0.00525,0.009,0.25225,4.575e-05,4.575e-05,0.00065625,1742092437.800096
