acc_x,acc_y,acc_z,gyro_x,gyro_y,gyro_z,timestamp
0.247,-0.01075,0.0345,0.00059500005,0.00090025004,-0.00149525,1742092442.117737
0.24875,-0.011,0.035,0.0007935,0.0020905002,-0.00093075,1742092442.130835
0.2465,-0.01,0.0305,0.00112925,0.0021057501,-0.001419,1742092442.145257
0.24575,-0.011,0.02875,0.001587,0.001648,-0.002365,1742092442.159625
0.245,-0.0125,0.02725,0.0016632499,0.001526,-0.00251775,1742092442.174089
0.24525,-0.01275,0.02775,0.001419,0.0015565,-0.0022277501,1742092442.188459
0.24575,-0.0155,0.0275,0.0012207499,0.00157175,-0.00198375,1742092442.2028449
0.2465,-0.018,0.027,0.00119025,0.00148,-0.00175475,1742092442.218074
0.2475,-0.01925,0.027,0.0012970001,0.00086975005,-0.0013580001,1742092442.231793
0.25025,-0.01625,0.03075,0.00125125,0.00068675,-0.00112925,1742092442.246298
0.24975,-0.0155,0.032,0.00108325,0.00109875,-0.00090025004,1742092442.260839
0.24875,-0.018,0.0305,0.001007,0.001236,-0.0007935,1742092442.275249
0.248,-0.01825,0.02925,0.0012055,0.00105275,-0.00080875,1742092442.289684
0.24675,-0.0165,0.028,0.0013427499,0.001007,-0.00096125,1742092442.303952
0.2465,-0.015,0.028,0.00137325,0.0010375,-0.0010375,1742092442.318366
0.246,-0.01375,0.028,0.0013580001,0.00125125,-0.00109875,1742092442.332751
0.24525,-0.01375,0.02725,0.0012817499,0.00119025,-0.00105275,1742092442.347185
0.245,-0.01575,0.02625,0.0007325,0.000946,-0.00039675,1742092442.361588
0.245,-0.02,0.02375,0.000412,0.00083925005,0.00010675,1742092442.3758788
0.24525,-0.02,0.02325,0.0003815,0.00057975,0.0005645,1742092442.390232
0.2455,-0.01475,0.02575,0.00062550005,0.00039675,0.00035100002,1742092442.404501
0.24575,-0.0125,0.0275,0.0007935,0.00019825,4.575e-05,1742092442.4187992
0.24625,-0.01175,0.029,0.00067150005,9.15e-05,-0.000122000005,1742092442.433266
0.24775,-0.0145,0.02875,0.00051875,0.0002595,-6.1000002e-05,1742092442.447667
0.24725,-0.01575,0.02675,0.0001525,0.00036625,9.15e-05,1742092442.461987
0.24425,-0.01525,0.02175,6.1000002e-05,0.00035100002,0.0002135,1742092442.4763362
0.2435,-0.0155,0.02175,0.0002135,0.000763,-6.1000002e-05,1742092442.490756
0.243,-0.015,0.02225,0.00042725,0.0008545,-0.000473,1742092442.505346
0.24275,-0.01425,0.02275,0.00054925,0.00010675,-0.000763,1742092442.519774
0.242,-0.0135,0.02275,0.0004425,-0.00013725001,-0.00054925,1742092442.534258
0.2425,-0.0145,0.02275,0.00030525,-0.00010675,-0.00029,1742092442.54893
0.24375,-0.01575,0.0235,7.625e-05,-0.00016775,-0.000183,1742092442.5634801
0.24475,-0.017,0.0245,-1.5250001e-05,-0.000122000005,-0.000229,1742092442.5781171
0.24475,-0.018,0.02425,-0.00013725001,0.00065625,-0.00054925,1742092442.592706
0.24575,-0.0215,0.0225,-0.00016775,0.0007935,-0.00071725,1742092442.607847
0.24725,-0.022,0.0205,-0.00027475,-0.000229,-0.00019825,1742092442.621682
0.25675,-0.01575,0.0135,-0.0001525,-0.00045775,3.0500001e-05,1742092442.636153
0.2705,-0.0125,0.00225,-1.5250001e-05,-0.00042725,7.625e-05,1742092442.650527
0.33875,-0.00475,-0.03975,-0.00016775,-0.00048825,0.00039675,1742092442.66516
0.40325,0.01125,-0.0635,-0.00035100002,-0.00059500005,0.00061025,1742092442.679669
0.58975,-0.004,-0.05825,0.00154125,-0.002365,-0.0026854998,1742092442.6941981
0.6815,-0.058,-0.014,0.0056609996,-0.0035704998,-0.00646975,1742092442.708647
0.75825,-0.1235,0.0505,0.017730748,0.0004425,-0.0085602505,1742092442.7230458
0.79775,-0.1895,0.1855,0.02149975,0.007187,-0.0043335,1742092442.737757
0.742,-0.177,0.22375,0.01737975,0.029174749,0.0128175,1742092442.7516758
0.514,-0.099,0.19675,0.0110932505,0.042358503,0.023346001,1742092442.766142
0.36825,-0.04525,0.13725,-0.000183,0.063797005,0.035263002,1742092442.7804859
0.03775,0.07475,-0.006,-0.00181575,0.06723025,0.033615,1742092442.794873
-0.09375,0.093,-0.04575,-0.0017852499,0.0632325,0.027984502,1742092442.8094149
-0.183,0.07075,-0.04775,0.00096125,0.0388335,0.012436,1742092442.823882
-0.25925,-0.03125,0.03525,0.004303,0.025589,0.0046234997,1742092442.8382888
-0.25275,-0.065,0.07175,0.008850001,0.0105742505,-0.0056609996,1742092442.8528059
-0.21775,-0.05575,0.039,0.0090485,0.0076599997,-0.008285499,1742092442.8681102
-0.1985,-0.02775,-0.00875,0.0076295,0.00112925,-0.009384249,1742092442.881896
-0.10425,0.025,-0.077,0.0064239996,-0.0043944996,-0.00811775,1742092442.89647
-0.035,0.0425,-0.0785,0.00517275,-0.0154115,-0.00434875,1742092442.911126
0.0995,0.05375,-0.05175,0.0053709997,-0.0185395,-0.00384525,1742092442.925566
0.15925,0.04825,-0.0415,0.0053252503,-0.020019501,-0.003952,1742092442.940104
0.26725,0.02625,-0.0225,0.00354,-0.01937875,-0.002884,1742092442.954537
0.305,0.013,-0.01,0.0026245,-0.01753225,-0.0018005001,1742092442.969044
0.327,0.00525,0.00775,0.0022277501,-0.012909001,-0.0010375,1742092442.983467
0.334,0.00575,0.03875,0.00225825,-0.010589501,-0.0023497501,1742092442.9978392
0.31775,0.01,0.03625,0.0007935,-0.006012,-0.0048217503,1742092443.012288
0.272,0.0045,0.012,-0.000885,-0.0040435,-0.004242,1742092443.0267782
0.26175,-0.00325,-0.00475,-0.0031585,-0.00146475,-0.0029755002,1742092443.04146
0.2175,-0.01425,-0.0455,-0.00367725,-0.0012665,-0.0040435,1742092443.056139
0.20175,-0.015,-0.0595,-0.00292975,-0.004013,-0.0051880004,1742092443.070702
0.20075,-0.01675,-0.051,-0.001526,-0.0063934997,-0.005249,1742092443.085325
0.2065,-0.0195,-0.03525,6.1000002e-05,-0.008590749,-0.0053252503,1742092443.101335
0.21175,-0.0235,-0.01925,0.0022277501,-0.01091,-0.0049590003,1742092443.1145432
0.21625,-0.02625,0.00175,0.0026092501,-0.0110625,-0.0041810004,1742092443.129021
0.2195,-0.02175,0.00475,0.00190725,-0.010559,-0.00193775,1742092443.143539
0.229,-0.01225,-0.0005,0.0013427499,-0.0102845,-0.00115975,1742092443.158123
0.23225,-0.01,-0.00325,0.0010375,-0.01026925,-0.00057975,1742092443.1726341
0.23825,-0.0115,0.00475,0.00149525,-0.010452249,-0.0007935,1742092443.188234
0.2415,-0.01425,0.01325,0.00331125,-0.010604749,-0.0024872501,1742092443.201691
0.24325,-0.0215,0.0215,0.003952,-0.010162249,-0.0032655,1742092443.216062
0.241,-0.0245,0.0175,0.0041810004,-0.009491,-0.0034790002,1742092443.2305212
0.23825,-0.022,0.01575,0.00378425,-0.00852975,-0.001831,1742092443.244958
0.23525,-0.016,0.001,0.0031585,-0.009017999,-6.1000002e-05,1742092443.259499
0.24,-0.01525,-0.00275,0.00225825,-0.0090637505,0.00086975005,1742092443.273841
0.2515,-0.01175,-0.005,0.00289925,-0.009201,-0.0005035,1742092443.28847
0.25675,-0.00975,0.00175,0.0053252503,-0.00991825,-0.00428775,1742092443.3029702
0.261,-0.0115,0.016,0.0060577504,-0.009491,-0.0053709997,1742092443.318283
0.25725,-0.0155,0.01775,0.0044250004,-0.00823975,-0.00367725,1742092443.331993
0.262,-0.0255,0.029,0.00305175,-0.007843,-0.0013885,1742092443.346359
0.26775,-0.02575,0.03625,0.0025940002,-0.0075377496,0.0005035,1742092443.36076
0.27025,-0.0215,0.03925,0.0035704998,-0.00621025,0.001892,1742092443.3751628
0.2675,-0.0065,0.03,0.0037995,-0.0050355,0.0021819999,1742092443.389494
0.26575,0.0005,0.0225,0.003128,-0.0030975002,0.0020752498,1742092443.4037418
0.26325,0.0065,0.0165,0.00270075,-0.0025787498,0.0013580001,1742092443.418208
0.26025,0.00275,0.0155,0.00263975,-0.00198375,-0.00093075,1742092443.432467
0.2535,-0.01075,0.0125,0.00283825,-0.0019225,-0.00190725,1742092443.447026
0.24825,-0.01475,0.01,0.003128,-0.0025634998,-0.00276175,1742092443.461529
0.2395,-0.015,0.00825,0.0029907501,-0.00320425,-0.0025634998,1742092443.4761028
0.24025,-0.01275,0.012,0.00283825,-0.00378425,-0.0023497501,1742092443.490557
0.24125,-0.00975,0.01475,0.00270075,-0.00453175,-0.00146475,1742092443.5050838
0.239,-0.0025,0.01725,0.00238025,-0.004547,-0.00048825,1742092443.519562
0.23925,-0.00025,0.019,0.00177,-0.00390625,0.00077825,1742092443.533932
0.2345,-0.001,0.01075,0.001526,-0.003769,0.0009765,1742092443.548257
0.23725,-0.00375,0.00425,0.00016775,-0.00541675,0.00201425,1742092443.562689
0.26525,-0.011,0.005,-6.1000002e-05,-0.0069274995,0.0023497501,1742092443.578482
0.2915,-0.009,0.00625,0.0007935,-0.008346501,0.0020295,1742092443.59146
0.33475,0.00025,0.003,0.005066,-0.0112305,-0.000534,1742092443.605858
0.50075,0.02575,-0.01325,0.00697325,-0.0129395,-0.00213625,1742092443.620337
0.63925,0.0265,-0.01175,0.007965,-0.0151215,-0.0039825,1742092443.634947
0.963,0.00025,0.059,0.0077667497,-0.014618,-0.004776,1742092443.649256
1.0,-0.011,0.132,0.00833125,-0.00491325,-0.00444025,1742092443.6637912
1.0,0.00175,0.313,0.00767525,0.0057677496,-0.00419625,1742092443.678777
0.97075,-0.013,0.388,0.0023497501,0.036941502,0.00045775,1742092443.692571
0.6585,-0.05525,0.374,-0.00231925,0.05653375,0.010147001,1742092443.707791
0.38525,-0.02875,0.2765,-0.00782775,0.07440175,0.02316275,1742092443.7212958
0.08125,0.033,0.1685,-0.01628125,0.08630375,0.032516498,1742092443.735584
-0.4035,0.01275,0.0585,-0.0170135,0.07669075,0.0207215,1742092443.750655
-0.5205,-0.1605,0.067,-0.00354,0.04499825,-0.007019,1742092443.76454
-0.58,-0.4765,0.065,0.0041504996,0.03494275,-0.0079955,1742092443.779124
-0.54225,-0.42375,0.017,0.00982675,0.02601625,0.01228325,1742092443.793472
-0.3815,0.02325,-0.08025,0.0104674995,0.01832575,0.01968375,1742092443.808251
-0.2655,0.19825,-0.0995,0.011078,0.0068207504,0.01763925,1742092443.822212
-0.032,0.225,-0.08675,0.010559,-0.016570998,-0.00334175,1742092443.838468
0.066,0.1685,-0.05875,0.007965,-0.02227775,-0.010788,1742092443.8514051
0.14775,0.12375,-0.03,0.00064075,-0.021698,-0.012847999,1742092443.865987
0.2695,0.059,0.01175,-0.001419,-0.019714251,-0.011612001,1742092443.880513
0.30775,0.0255,0.02525,-0.001953,-0.016570998,-0.009155249,1742092443.895066
0.33,-0.03875,0.03375,-0.00228875,-0.014221249,-0.0077515002,1742092443.909642
0.32475,-0.0595,0.03475,-0.002655,-0.007965,-0.00328075,1742092443.924175
0.29675,-0.052,0.02925,-0.002472,-0.00514225,-0.0012207499,1742092443.938685
0.27775,-0.03725,0.0215,-0.0022125002,-0.0019685,-0.0012817499,1742092443.953173
0.23125,-0.0155,-0.01325,-0.0019989999,-0.001236,-0.0021972498,1742092443.967749
0.20625,-0.0095,-0.0355,-0.0017395001,-0.001007,-0.0027465,1742092443.982474
0.17175,-0.00175,-0.05775,-0.0019225,-0.0030365,-0.0023039998,1742092443.9971688
0.16525,0.003,-0.0545,-0.00190725,-0.00543225,-0.00238025,1742092444.011749
0.16325,0.0075,-0.045,-0.00061025,-0.0106965,-0.004547,1742092444.0264041
0.1715,-0.00025,-0.0195,0.0,-0.012634249,-0.0058899997,1742092444.0408902
0.17875,-0.01225,-0.0105,-0.00013725001,-0.013839751,-0.0061035,1742092444.055671
0.19325,-0.02675,-0.00775,-0.00086975005,-0.013427749,-0.00460825,1742092444.070233
0.20275,-0.0235,-0.0105,-0.00216675,-0.0126495,-0.001068,1742092444.084932
0.21975,-0.01475,-0.0085,-0.0021515,-0.01272575,-0.00019825,1742092444.1007628
0.2265,-0.0185,-0.00225,-0.00099175,-0.01301575,-0.00027475,1742092444.11447
0.23375,-0.026,0.006,-0.00036625,-0.0129700005,-0.00042725,1742092444.129138
0.2345,-0.01925,0.00525,-0.001068,-0.01289375,-0.00030525,1742092444.1436648
0.24525,-0.00075,0.003,-0.00228875,-0.0129700005,-0.0003815,1742092444.1583219
0.25375,-0.001,0.00175,-0.00317375,-0.0128785,-0.00083925005,1742092444.17265
0.26125,-0.0075,0.00075,-0.003006,-0.012329,-0.0022125002,1742092444.188375
0.2665,-0.0145,-0.0065,-0.00314325,-0.01310725,-0.00109875,1742092444.201913
0.274,-0.017,0.005,-0.004547,-0.0139465,0.001831,1742092444.216348
0.2875,-0.01425,0.03675,-0.003891,-0.013061499,0.0014037499,1742092444.2307541
0.29325,-0.00875,0.05075,-0.00102225,-0.01156625,-0.002777,1742092444.245326
0.29875,-0.0015,0.06825,0.0005035,-0.0105742505,-0.0055085,1742092444.2597811
0.29025,-0.00275,0.066,0.00115975,-0.00744625,-0.008407501,1742092444.274359
0.2645,-0.0185,0.047,-0.0005035,-0.0059510004,-0.00811775,1742092444.289078
0.25375,-0.032,0.03875,-0.00402825,-0.0043944996,-0.0055237496,1742092444.303651
0.23775,-0.04875,0.0305,-0.0044250004,-0.0045165,-0.0042725,1742092444.318231
0.2325,-0.04925,0.0325,-0.0039825,-0.0050355,-0.00352475,1742092444.332663
0.2295,-0.046,0.03825,-0.002121,-0.0061339997,-0.0038605002,1742092444.347144
0.23275,-0.0395,0.04975,-0.000946,-0.00621025,-0.0049895,1742092444.361674
0.23625,-0.041,0.05025,0.0012970001,-0.00466925,-0.0074920002,1742092444.376294
0.23475,-0.052,0.03825,0.00190725,-0.0033875,-0.00801075,1742092444.390707
0.23175,-0.058,0.033,0.0018005001,-0.0020599999,-0.0056609996,1742092444.40525
0.2285,-0.056,0.03625,0.00143425,-0.0020752498,-0.0029907501,1742092444.41977
0.231,-0.05025,0.04325,0.00119025,-0.0021972498,0.0003205,1742092444.434191
0.23575,-0.0425,0.0475,0.00137325,-0.00198375,0.00045775,1742092444.4485152
0.232,-0.04325,0.04075,0.0016175,-0.0016175,0.00010675,1742092444.4629471
0.228,-0.045,0.03275,0.00175475,-0.0014037499,0.00051875,1742092444.477626
0.2335,-0.04525,0.02725,0.0018005001,-0.0019685,0.00157175,1742092444.4919622
0.24525,-0.04125,0.02925,0.0026854998,-0.0038757501,0.00283825,1742092444.50798
0.27675,-0.03625,0.031,0.0033875,-0.0048979996,0.002243,1742092444.520991
0.3005,-0.036,0.03525,0.0051880004,-0.0061645,-0.0015105,1742092444.535567
0.35775,-0.03775,0.03775,0.00646975,-0.00614925,-0.003128,1742092444.5510411
0.39675,-0.039,0.02575,0.0068512503,-0.0049895,-0.002243,1742092444.564668
0.5225,-0.0335,-0.00825,0.00593575,-0.005005,-0.000824,1742092444.579124
0.6165,-0.02475,-0.01225,0.0052795,-0.0060272496,0.00029,1742092444.593784
0.7285,-0.01875,0.0,0.00491325,-0.00839225,0.00065625,1742092444.608425
0.9325,-0.0275,0.0875,0.00396725,-0.0081635,-0.00112925,1742092444.622782
0.97525,-0.049,0.1665,0.00193775,-0.00027475,-0.009140001,1742092444.6388202
0.945,-0.15975,0.33075,0.00083925005,0.0085602505,-0.009719751,1742092444.6518662
0.85825,-0.21375,0.35525,-9.15e-05,0.034118753,0.0075835,1742092444.668145
0.58675,-0.19175,0.3035,-0.0020905002,0.047699,0.020446751,1742092444.680741
0.41775,-0.1245,0.27075,-0.0158845,0.06732175,0.037735,1742092444.6952052
-0.0845,0.03375,0.17075,-0.0234375,0.0724335,0.03837575,1742092444.709675
-0.3555,0.052,0.122,-0.02563475,0.072998,0.030914249,1742092444.724101
-0.5655,-0.004,0.07425,-0.0058899997,0.059311002,0.00051875,1742092444.7387679
-0.74775,-0.21825,-0.028,0.008285499,0.04869075,-0.012267999,1742092444.753278
-0.71425,-0.25825,-0.08175,0.01756275,0.024826,-0.0061035,1742092444.7684999
-0.51225,-0.04775,-0.11275,0.0148925,0.0106965,0.0055237496,1742092444.782258
-0.3645,0.092,-0.1015,0.012405501,-0.01649475,0.011245751,1742092444.796795
-0.017,0.21075,-0.07425,0.012496999,-0.02516175,0.0056609996,1742092444.8112488
0.136,0.21875,-0.05775,0.009262,-0.02893075,-0.002533,1742092444.8257458
0.3605,0.21225,0.009,0.0060577504,-0.027404752,-0.00358575,1742092444.8401651
0.42825,0.17675,0.048,0.0023039998,-0.02224725,-0.00785825,1742092444.854765
0.4535,0.04475,0.099,0.0011445,-0.017685,-0.010742251,1742092444.869358
0.4215,-0.03825,0.096,0.000229,-0.01148975,-0.012329,1742092444.883946
0.378,-0.09625,0.0745,3.0500001e-05,-0.00016775,-0.0104674995,1742092444.8985531
0.308,-0.10975,0.02925,-0.00115975,0.0029145,-0.008346501,1742092444.9130821
0.27475,-0.1005,0.002,-0.0037537501,0.0060425,-0.00453175,1742092444.928441
0.217,-0.07875,-0.054,-0.00396725,0.0059205,-0.0027160002,1742092444.942157
0.20175,-0.06125,-0.058,-0.00108325,0.0008545,-0.00190725,1742092444.9583108
0.1875,-0.0195,-0.03725,0.00086975005,-0.0024872501,-0.00302125,1742092444.9712799
0.183,-0.00075,-0.02575,0.00190725,-0.00617975,-0.00384525,1742092444.985993
0.1905,0.01675,-0.00675,0.001068,-0.006836,-0.00308225,1742092445.000619
0.19675,0.01675,-0.00225,-0.0002135,-0.0072632497,-0.00231925,1742092445.0151098
0.204,0.00225,0.00175,-0.00302125,-0.0076142503,-0.0018615,1742092445.029551
0.2025,-0.00725,-0.00325,-0.0041044997,-0.007187,-0.001526,1742092445.0442681
0.199,-0.0115,-0.0105,-0.00538625,-0.0066985004,0.000229,1742092445.058961
0.1985,-0.00725,-0.01725,-0.0058287503,-0.00717175,0.000885,1742092445.073653
0.2,-0.00675,-0.01275,-0.0056609996,-0.00868225,0.00039675,1742092445.088843
0.2095,-0.01475,0.00575,-0.004776,-0.00941475,-0.00067150005,1742092445.102645
0.212,-0.02225,0.0075,-0.00213625,-0.0106355,-0.0041504996,1742092445.118477
0.21425,-0.0375,-0.0065,-0.001831,-0.011321999,-0.0052795,1742092445.131705
0.2235,-0.0415,-0.00175,-0.0026245,-0.012847999,-0.0047912505,1742092445.146367
0.23675,-0.05275,0.005,-0.0028535,-0.01396175,-0.00364675,1742092445.161228
0.23775,-0.05275,0.013,-0.003128,-0.013854999,-0.0024414998,1742092445.17588
0.23325,-0.04525,0.02225,-0.0027312501,-0.013443,-0.0020295,1742092445.190453
0.23625,-0.03775,0.02475,-0.00238025,-0.01358025,-0.0017852499,1742092445.2052999
0.24975,-0.03025,0.029,-0.0021057501,-0.0142365,-0.0020599999,1742092445.219841
0.2825,-0.02575,0.0375,-0.00149525,-0.0139770005,-0.0028229998,1742092445.2343209
0.29,-0.0305,0.03825,-0.0007935,-0.01222225,-0.0038605002,1742092445.248875
0.292,-0.0405,0.04225,-0.00119025,-0.0114135,-0.00331125,1742092445.263385
0.29175,-0.04025,0.051,-0.00187675,-0.010589501,-0.00157175,1742092445.2782269
0.2865,-0.03025,0.0685,-0.00160225,-0.00997925,-0.00175475,1742092445.294991
0.27775,-0.0285,0.06825,-0.00068675,-0.0072937496,-0.00372325,1742092445.30805
0.256,-0.04025,0.0535,-0.0003815,-0.0056609996,-0.004486,1742092445.322043
0.245,-0.04875,0.0435,-6.1000002e-05,-0.00378425,-0.0040435,1742092445.3384588
0.23475,-0.052,0.034,3.0500001e-05,-0.0036010002,-0.00296025,1742092445.351418
0.23525,-0.04675,0.035,-4.575e-05,-0.003662,-0.0014037499,1742092445.365846
0.23725,-0.032,0.0415,-0.000229,-0.0034790002,0.0015105,1742092445.380673
0.23625,-0.0255,0.04675,0.0,-0.0030669998,0.001419,1742092445.395068
0.23375,-0.02275,0.04975,0.0003815,-0.00245675,-0.00086975005,1742092445.409564
0.22725,-0.03325,0.044,0.00016775,-0.00231925,-0.00216675,1742092445.4240682
0.22275,-0.04475,0.03625,0.000122000005,-0.00213625,-0.0033570002,1742092445.438577
0.2245,-0.06275,0.02775,0.00051875,-0.002243,-0.0029145,1742092445.453061
0.23725,-0.06225,0.03275,0.00169375,-0.00343325,-0.00175475,1742092445.468203
0.27175,-0.03975,0.04475,0.0019225,-0.003769,-0.0024414998,1742092445.482032
0.28525,-0.02775,0.04025,0.00099175,-0.0014037499,-0.0075072497,1742092445.496537
0.31425,-0.02775,0.02125,-0.00077825,-0.00042725,-0.008865249,1742092445.5112152
0.36075,-0.03725,0.01425,-0.0032655,-0.00102225,-0.008133001,1742092445.52581
0.428,-0.0475,0.01525,-0.003769,-0.00694275,-0.00460825,1742092445.5403311
0.56825,-0.03875,0.03025,-0.001831,-0.0105742505,-0.005249,1742092445.5549319
0.64175,-0.0415,0.05075,0.0007325,-0.014800999,-0.008788999,1742092445.5693681
0.77425,-0.11525,0.10675,0.001114,-0.0129700005,-0.00912475,1742092445.583848
0.8255,-0.17325,0.148,0.0027160002,0.0020599999,-0.00381475,1742092445.598355
0.8805,-0.2225,0.23525,0.0056304997,0.013336251,0.00083925005,1742092445.6125708
0.8535,-0.20275,0.25325,0.0102235,0.0361785,0.01150525,1742092445.628086
0.69075,-0.13375,0.242,0.010528499,0.045944247,0.017105,1742092445.641518
0.57225,-0.09975,0.2385,0.0100555,0.052536,0.02171325,1742092445.6559942
0.43425,-0.07675,0.23725,0.00883475,0.05998225,0.025085501,1742092445.670293
0.062,-0.02925,0.182,0.009506251,0.062912,0.02336125,1742092445.6845498
-0.14725,0.02825,0.151,0.0075377496,0.057800252,0.01826475,1742092445.6989791
-0.42025,0.02775,0.142,0.0057525,0.050705,0.01272575,1742092445.713258
-0.50225,-0.086,0.118,0.0073395,0.044464,-0.0001525,1742092445.72823
-0.565,-0.205,-0.0805,0.008026,0.04258725,0.0021057501,1742092445.742165
-0.51575,-0.114,-0.16525,0.00801075,0.03500375,0.00846875,1742092445.7581708
-0.28525,0.13275,-0.17675,0.008361749,0.0041044997,0.012115501,1742092445.7710521
-0.13925,0.17975,-0.13075,0.00801075,-0.010818499,0.0068969997,1742092445.785575
0.002,0.1705,-0.076,0.00364675,-0.0247345,-0.0042572496,1742092445.800834
0.218,0.0825,0.00975,0.00077825,-0.02439875,-0.00579825,1742092445.81444
0.29825,0.05325,0.04025,-0.00305175,-0.018692,-0.002411,1742092445.829083
0.38375,0.02625,0.05975,-0.00367725,-0.0148315,-0.00154125,1742092445.8435462
0.3825,0.00275,0.046,-0.00488275,-0.0056609996,-0.0017242499,1742092445.85843
0.3445,-0.0555,0.02425,-0.004837,-0.00175475,-0.00201425,1742092445.872649
0.32075,-0.07525,0.009,-0.00419625,0.0012055,-0.0029907501,1742092445.888611
0.276,-0.0735,-0.028,-0.00372325,0.00434875,-0.0037079998,1742092445.9016058
0.252,-0.055,-0.04475,-0.00381475,0.0047912505,-0.00308225,1742092445.9161432
0.2265,-0.03225,-0.058,-0.00352475,0.0032347501,-0.0031889998,1742092445.930975
0.18725,-0.0095,-0.0685,-0.0031889998,0.00143425,-0.0045165,1742092445.9455402
0.17575,-0.0145,-0.06575,-0.0019225,-0.002411,-0.007019,1742092445.9602659
0.1665,-0.03275,-0.054,-0.0012970001,-0.0041504996,-0.00688175,1742092445.9748921
0.168,-0.032,-0.045,-0.001007,-0.006836,-0.00413525,1742092445.989525
0.17525,-0.0125,-0.03,-0.00163275,-0.00747675,-0.0024872501,1742092446.0042171
0.1805,-0.00425,-0.0265,-0.0033722501,-0.00791925,-0.00059500005,1742092446.0189419
0.186,0.0,-0.022,-0.0038605002,-0.008209251,-0.0007935,1742092446.0334542
0.186,-0.00675,-0.01975,-0.0044555003,-0.009155249,-0.002121,1742092446.048119
0.18375,-0.0345,-0.02025,-0.0043944996,-0.0097045,-0.0025940002,1742092446.0629902
0.18425,-0.047,-0.021,-0.00384525,-0.010314999,-0.0028535,1742092446.078058
0.1965,-0.05175,-0.02075,-0.00289925,-0.01177975,-0.0019685,1742092446.092372
0.20625,-0.04475,-0.02,-0.0030669998,-0.012207,-0.00090025004,1742092446.1082518
0.215,-0.036,-0.01775,-0.003769,-0.012634249,0.0007935,1742092446.121562
0.2245,-0.0265,-0.00275,-0.003891,-0.01272575,0.0009765,1742092446.136128
0.2275,-0.026,0.01075,-0.00352475,-0.012054499,0.00071725,1742092446.1514182
0.22825,-0.02375,0.0345,-0.0034790002,-0.010757499,0.0004425,1742092446.165348
0.22225,-0.0255,0.03425,-0.0047150003,-0.0075377496,-0.00013725001,1742092446.1798148
0.224,-0.04475,0.02125,-0.005844,-0.0075682504,0.00067150005,1742092446.19427
0.23375,-0.0575,0.01475,-0.0059815003,-0.010589501,0.00181575,1742092446.208728
0.257,-0.0545,0.02075,-0.0035095,-0.010727,-0.00030525,1742092446.223338
0.25975,-0.04525,0.01675,-0.0005035,-0.010589501,-0.0032655,1742092446.2387478
0.25725,-0.015,0.01675,0.001587,-0.01091,-0.0073547503,1742092446.252458
0.2595,-0.0045,0.02425,0.000122000005,-0.010604749,-0.0074004997,1742092446.268165
0.25975,-0.00425,0.028,-0.0026092501,-0.00868225,-0.0068665,1742092446.2813299
0.2585,-0.0285,0.0165,-0.0034637498,-0.0076905,-0.0058899997,1742092446.295798
0.26225,-0.03925,0.01275,-0.0042572496,-0.0068665,-0.00146475,1742092446.310542
0.28375,-0.04925,0.024,-0.0031585,-0.00640875,-0.00083925005,1742092446.325162
0.286,-0.0525,0.0235,0.000473,-0.00460825,-0.0027160002,1742092446.3396428
0.2755,-0.04675,0.01325,0.000824,-0.0039825,-0.0029449998,1742092446.3541582
0.273,-0.0405,0.01375,-0.001831,-0.00358575,-0.0012055,1742092446.368736
0.278,-0.03425,0.027,-0.00263975,-0.0035095,-0.00048825,1742092446.383316
0.27775,-0.04025,0.02875,-0.0024872501,-0.0036162501,-0.000412,1742092446.3979661
0.278,-0.04775,0.02725,-0.00125125,-0.00546275,-0.00099175,1742092446.412491
0.28775,-0.04275,0.028,-0.00080875,-0.0067902496,-0.0014037499,1742092446.4282281
0.29225,-0.03425,0.02975,-0.00254825,-0.00744625,-0.00216675,1742092446.441735
0.3035,-0.027,0.025,-0.004776,-0.0065155,-0.0029907501,1742092446.4563358
0.3095,-0.03525,0.02025,-0.009017999,-0.0039825,-0.0047302498,1742092446.470827
0.3375,-0.06125,0.01475,-0.009582501,-0.0037995,-0.0042572496,1742092446.485328
0.36075,-0.06625,0.022,-0.00794975,-0.0052185003,-0.00305175,1742092446.5006819
0.411,-0.063,0.0425,-0.0073395,-0.0054780003,-0.003418,1742092446.5143301
0.4335,-0.0655,0.03925,-0.00596625,-0.00444025,-0.00331125,1742092446.5288131
0.493,-0.083,-0.009,-0.00520325,-0.003662,-0.00137325,1742092446.543455
0.544,-0.09825,-0.03075,-0.00488275,-0.0031889998,0.00184625,1742092446.5581079
0.61425,-0.10975,-0.036,-0.0042267498,-0.00444025,0.00717175,1742092446.57264
0.8115,-0.13975,0.04225,-0.001709,-0.00744625,0.0054932497,1742092446.588382
0.916,-0.185,0.1465,0.0060425,-0.009430001,-0.00149525,1742092446.60162
0.9965,-0.2545,0.36425,0.007309,0.0011445,0.00137325,1742092446.6160371
0.9295,-0.209,0.4175,-0.001953,0.040847752,0.02507025,1742092446.630419
0.583,-0.00125,0.361,-0.00883475,0.05935675,0.0353545,1742092446.644811
0.34225,0.0775,0.2845,-0.014282251,0.07707225,0.031433,1742092446.659136
-0.21575,0.13925,0.14425,-0.0149535,0.076477,0.022827249,1742092446.673938
-0.4305,0.093,0.10175,-0.01440425,0.071121246,0.01475525,1742092446.68872
-0.568,0.00675,0.07875,-0.0047607496,0.053542998,0.002243,1742092446.702773
-0.6675,-0.1345,0.02,0.001587,0.045654252,-0.0036010002,1742092446.718475
-0.6505,-0.15875,-0.0645,0.00997925,0.02845775,-0.0054780003,1742092446.7319522
-0.50775,-0.0455,-0.21125,0.010452249,0.016037,-0.00067150005,1742092446.746621
-0.36875,0.05125,-0.21575,0.0070647504,-0.012985251,0.0067597497,1742092446.7612128
-0.04125,0.12725,-0.12025,0.00564575,-0.02436825,0.0071409997,1742092446.7756531
0.0975,0.10925,-0.05925,0.0059967497,-0.03111275,0.00096125,1742092446.7902389
0.32125,0.061,0.03625,0.0064239996,-0.029022248,-0.0020752498,1742092446.804918
0.403,0.04275,0.0665,0.0042267498,-0.01930225,-0.0045012496,1742092446.8194408
0.451,0.0125,0.07425,0.00160225,-0.0138855,-0.00555425,1742092446.833941
0.4285,-0.01725,0.06525,-0.000885,-0.008255,-0.006775,1742092446.84864
0.39625,-0.04575,0.05175,-0.00187675,0.00184625,-0.00918575,1742092446.863311
0.30025,-0.04825,-0.015,-0.0024872501,0.0049895,-0.009430001,1742092446.8787572
0.255,-0.03775,-0.04475,-0.0047912505,0.0068207504,-0.005844,1742092446.892691
0.18225,-0.013,-0.086,-0.004013,0.00531,-0.00428775,1742092446.908159
0.168,-0.00475,-0.0875,-0.0021515,-0.001953,-0.00460825,1742092446.9220889
0.18125,-0.02525,-0.06,-0.00190725,-0.005249,-0.0055085,1742092446.938895
0.19525,-0.045,-0.037,-0.00190725,-0.00741575,-0.0042267498,1742092446.951415
0.217,-0.044,0.00125,-0.00238025,-0.0067597497,-0.00213625,1742092446.965939
0.22,-0.023,0.005,-0.00372325,-0.004013,0.0009155,1742092446.9804149
0.20275,0.01425,-0.0145,-0.00453175,-0.0027465,0.001175,1742092446.9949372
0.18975,0.012,-0.02925,-0.005249,-0.00204475,0.000824,1742092447.009419
0.18175,-0.0065,-0.0395,-0.0036315,-0.0038757501,-0.00149525,1742092447.024117
0.17775,-0.04275,-0.04575,-0.001587,-0.00611875,-0.00289925,1742092447.0387998
0.181,-0.0405,-0.04325,-0.00024425,-0.010376001,-0.00334175,1742092447.053417
0.2055,-0.01325,-0.02375,-0.00096125,-0.01156625,-0.0028229998,1742092447.068375
0.21175,-0.0035,-0.01625,-0.003006,-0.012024,-0.00213625,1742092447.083088
0.213,-0.009,-0.016,-0.00413525,-0.011886501,-0.00148,1742092447.097709
0.21325,-0.01875,-0.018,-0.004593,-0.01257325,-0.000763,1742092447.112415
0.225,-0.0435,-0.00225,-0.00334175,-0.013793999,-0.0013275,1742092447.128015
0.23175,-0.052,0.009,-0.00035100002,-0.01579275,-0.00225825,1742092447.1416929
0.2445,-0.0495,0.022,0.00039675,-0.015915,-0.00169375,1742092447.15621
0.2525,-0.03575,0.02825,7.625e-05,-0.0158845,0.00143425,1742092447.170615
0.27,-0.01925,0.02975,-0.001175,-0.0157165,0.00367725,1742092447.1851048
0.28075,-0.01675,0.03225,-0.00181575,-0.01440425,0.003952,1742092447.201375
0.28375,-0.021,0.0345,0.00065625,-0.01197825,-0.00057975,1742092447.214315
0.2775,-0.036,0.04325,0.0023345,-0.011810251,-0.00358575,1742092447.2288241
0.26775,-0.03975,0.0455,0.00369275,-0.010147001,-0.0065155,1742092447.243346
0.24775,-0.03025,0.03375,0.002121,-0.008773751,-0.00517275,1742092447.258358
0.246,-0.026,0.0285,-0.00143425,-0.00770575,0.00024425,1742092447.272316
0.24775,-0.025,0.01375,-0.00077825,-0.008377,0.00070200005,1742092447.2883258
0.24725,-0.01825,0.00675,0.002777,-0.011627249,-0.0031889998,1742092447.3012211
0.24825,-0.016,0.01675,0.00384525,-0.0138702495,-0.0058899997,1742092447.315705
0.249,-0.02375,0.03075,0.0042572496,-0.01593025,-0.00833125,1742092447.330343
0.2595,-0.04725,0.06775,0.0026245,-0.01708975,-0.010894749,1742092447.3448582
0.26725,-0.05925,0.082,0.0009765,-0.01567075,-0.010253999,1742092447.3593118
0.2675,-0.067,0.08525,-0.0002135,-0.0102845,-0.0077667497,1742092447.373802
0.2545,-0.07,0.06475,3.0500001e-05,-0.00767525,-0.00671375,1742092447.388726
0.24825,-0.06025,0.05125,-0.00042725,-0.00488275,-0.00411975,1742092447.403019
0.2525,-0.03275,0.03975,-0.00137325,-0.0048674997,-0.0029907501,1742092447.418391
0.259,-0.02775,0.04425,-0.0014037499,-0.00491325,-0.004776,1742092447.432179
0.26475,-0.0415,0.0475,-0.00074775,-0.0048065,-0.0065002497,1742092447.446759
0.27225,-0.05575,0.04675,0.00059500005,-0.0052795,-0.007965,1742092447.4613068
0.3045,-0.07225,0.051,0.0016632499,-0.006012,-0.00794975,1742092447.475782
0.329,-0.06925,0.0495,0.002777,-0.00643925,-0.007965,1742092447.490315
0.364,-0.069,0.047,0.00390625,-0.006607,-0.0072175004,1742092447.504792
0.47125,-0.09025,0.041,0.0038757501,-0.0066985004,-0.0060882503,1742092447.519308
0.53275,-0.10225,0.036,0.00444025,-0.00688175,-0.0031889998,1742092447.533706
0.66,-0.1235,0.04275,0.0052795,-0.0074004997,-0.001526,1742092447.54816
0.72725,-0.146,0.07825,0.008773751,-0.0061035,-0.00051875,1742092447.562714
0.8315,-0.25925,0.1625,0.0118407495,-0.00083925005,0.00080875,1742092447.578669
0.84375,-0.30475,0.1815,0.016021749,0.022583,0.014709501,1742092447.591546
0.79975,-0.2255,0.17125,0.014389,0.03494275,0.025421249,1742092447.605798
0.755,-0.11775,0.17675,0.0100555,0.043457,0.033935502,1742092447.620115
0.6815,-0.0205,0.20175,0.00071725,0.048522998,0.03692625,1742092447.634547
0.40625,0.0465,0.30025,-0.0016632499,0.051712003,0.03309625,1742092447.650032
0.20725,0.0405,0.32925,-0.00019825,0.06782525,0.02189625,1742092447.663224
-0.20475,0.04175,0.22625,0.001953,0.07519525,0.0168305,1742092447.678486
-0.39075,0.0415,0.138,0.0033875,0.07266225,0.007019,1742092447.691956
-0.629,-0.1325,0.03675,0.00590525,0.0631255,-1.5250001e-05,1742092447.706424
-0.63425,-0.2405,0.00425,0.011139,0.050109748,-0.00505075,1742092447.720959
-0.57675,-0.25425,-0.02025,0.0167695,0.02000425,0.00242625,1742092447.73548
-0.35425,-0.006,-0.06575,0.014709501,0.00564575,0.0091705,1742092447.75068
-0.21325,0.121,-0.08525,0.0093385,-0.016327,0.0070037497,1742092447.7647328
0.068,0.211,-0.071,0.007431,-0.022796748,-0.000534,1742092447.779327
0.17725,0.19375,-0.04325,0.0032195,-0.025695749,-0.01272575,1742092447.793963
0.3105,0.1165,-0.00825,0.00013725001,-0.022705,-0.01316825,1742092447.808752
0.34025,0.074,0.00125,-0.0058287503,-0.013564999,-0.0084379995,1742092447.8233202
0.34325,-0.0085,0.01025,-0.0075682504,-0.008850001,-0.006073,1742092447.83827
0.33325,-0.03525,0.009,-0.00691225,-0.00228875,-0.003769,1742092447.852555
0.30875,-0.04125,0.004,-0.0058135,-0.00093075,-0.0050202496,1742092447.8682728
0.28925,-0.04425,-0.00275,-0.00538625,6.1000002e-05,-0.00723275,1742092447.881676
0.22475,-0.06975,-0.032,-0.0050812503,0.00245675,-0.0101775,1742092447.89625
0.19175,-0.07375,-0.04375,-0.0048674997,0.00283825,-0.009658749,1742092447.9111922
0.163,-0.0655,-0.05275,-0.0044555003,0.00035100002,-0.0070342496,1742092447.925806
0.13125,-0.03875,-0.06575,-0.00428775,-0.001953,-0.0059815003,1742092447.94051
0.132,-0.0335,-0.06375,-0.0035704998,-0.0072632497,-0.0048217503,1742092447.9553049
0.1535,-0.04225,-0.0475,-0.00308225,-0.009674,-0.004486,1742092447.969954
0.16625,-0.05125,-0.03325,-0.00239575,-0.012542751,-0.0028074998,1742092447.984544
0.18525,-0.0625,-0.00325,-0.0023345,-0.013000499,-0.00131225,1742092448.000942
0.1935,-0.05675,0.00275,-0.0024414998,-0.012924249,0.0014495,1742092448.013818
0.21625,-0.031,-0.00975,-0.00204475,-0.0128785,0.001587,1742092448.028449
0.2285,-0.016,-0.0215,-0.0012817499,-0.013321,-0.0002135,1742092448.043125
0.24525,-0.01225,-0.02125,-0.0010375,-0.0137635,-0.0015565,1742092448.058388
0.24575,-0.0235,-0.01375,-0.00102225,-0.01425175,-0.0037995,1742092448.072499
0.2355,-0.04225,-0.00425,-0.001831,-0.013916001,-0.0034790002,1742092448.088567
0.23475,-0.042,-0.003,-0.0026092501,-0.013321,-0.0022277501,1742092448.1020842
0.2355,-0.02975,-0.0045,-0.00238025,-0.012634249,-0.00039675,1742092448.118403
0.24425,-0.03,-0.00375,-0.00193775,-0.0128785,-0.00057975,1742092448.131487
0.25825,-0.042,-0.00275,-0.00054925,-0.0129395,-0.00276175,1742092448.146028
0.27575,-0.072,-0.0005,0.0004425,-0.012405501,-0.00343325,1742092448.160595
0.28125,-0.07525,0.003,4.575e-05,-0.0115967505,-0.00061025,1742092448.175193
0.2955,-0.04925,0.02125,-0.0012665,-0.0114744995,0.0022735,1742092448.189733
0.30025,-0.024,0.03025,-0.003296,-0.011825499,0.004776,1742092448.2042172
0.3,-0.0205,0.04225,-0.0031127501,-0.0109709995,0.0017242499,1742092448.218936
0.2895,-0.03925,0.04375,-0.000534,-0.0088195,-0.0062255003,1742092448.2334862
0.267,-0.0675,0.04225,0.0007325,-0.0074920002,-0.00817875,1742092448.2481122
0.25725,-0.06625,0.039,0.0003205,-0.0034790002,-0.00511175,1742092448.2627919
0.2395,-0.03575,0.02075,-0.00115975,-0.0013427499,-0.00169375,1742092448.2781582
0.2285,-0.01875,0.0095,-0.00267025,0.00013725001,0.00099175,1742092448.291969
0.218,-0.0095,0.0,-0.00416575,-0.0003815,0.00187675,1742092448.306415
0.21,-0.02225,0.0005,-0.00354,-0.0022125002,0.00027475,1742092448.3209531
0.21425,-0.037,0.00775,-0.00086975005,-0.0061645,-0.0038757501,1742092448.335537
0.23075,-0.06225,0.02325,0.00033575002,-0.0072175004,-0.0048674997,1742092448.350715
0.2395,-0.068,0.029,0.0015565,-0.0067597497,-0.0032347501,1742092448.364636
0.24875,-0.0555,0.03725,0.0016175,-0.0054015,-0.00143425,1742092448.379317
0.249,-0.04075,0.03725,0.0013580001,-0.0019989999,0.001068,1742092448.393863
0.241,-0.0305,0.029,0.0013275,-0.000763,0.00238025,1742092448.408351
0.23775,-0.03675,0.02275,0.00137325,-0.0002595,0.00325,1742092448.42294
0.2395,-0.05525,0.015,0.0017852499,-0.0021972498,0.00364675,1742092448.438668
0.2495,-0.05575,0.0185,0.0023497501,-0.00364675,0.004074,1742092448.451982
0.26025,-0.05,0.0215,0.00355525,-0.0050812503,0.0053709997,1742092448.468311
0.288,-0.02975,0.015,0.0036010002,-0.005005,0.00637825,1742092448.480991
0.3095,-0.017,0.00125,0.00393675,-0.00543225,0.00723275,1742092448.495487
0.3865,0.01725,-0.0285,0.0048217503,-0.007782,0.0054015,1742092448.509996
0.45025,0.02325,-0.03025,0.0079345,-0.01734925,-0.00369275,1742092448.524506
0.6355,-0.0225,0.00775,0.008667,-0.020691,-0.006775,1742092448.539191
0.75125,-0.05475,0.04075,0.00488275,-0.015228249,-0.0022735,1742092448.553855
0.9455,-0.08725,0.1145,0.0014037499,-0.0069580004,0.0045012496,1742092448.5682518
0.99275,-0.07025,0.146,-0.0013275,0.003662,0.01098625,1742092448.5828469
0.99875,-0.02875,0.1725,-0.0039825,0.0264435,0.0116425,1742092448.5972428
0.88,0.048,0.2015,-0.0060272496,0.034225497,0.0059205,1742092448.611656
0.75875,0.04075,0.22575,-0.008850001,0.045272753,-0.0037385002,1742092448.626104
0.39425,-0.079,0.2945,-0.0072480002,0.052063,-0.00225825,1742092448.640623
0.1655,-0.12475,0.29475,-0.00637825,0.06658925,0.009231499,1742092448.6550348
-0.2645,-0.1125,0.26325,-0.00720225,0.0680085,0.012267999,1742092448.669554
-0.4015,-0.1405,0.2415,-0.0050812503,0.058730997,0.0071105,1742092448.684036
-0.52475,-0.2575,0.114,-0.0013275,0.0552825,0.00204475,1742092448.698518
-0.5455,-0.22775,0.00425,0.0025940002,0.05233775,0.00059500005,1742092448.7129679
-0.52775,-0.1265,-0.098,0.00488275,0.033462502,0.006775,1742092448.7279449
-0.38225,0.104,-0.21275,0.00466925,0.01741025,0.0075072497,1742092448.741815
-0.27175,0.1465,-0.22,0.0030669998,-0.0138702495,0.000183,1742092448.756237
-0.01825,0.121,-0.13825,0.0026092501,-0.024704,-0.00434875,1742092448.770922
0.09725,0.1025,-0.07975,0.001709,-0.031188998,-0.006363,1742092448.785619
0.26775,0.063,0.0095,6.1000002e-05,-0.028854249,-0.00411975,1742092448.801483
0.32325,0.03675,0.041,-0.0020905002,-0.02174375,-0.00064075,1742092448.814537
0.36275,-0.013,0.05425,-0.00201425,-0.01763925,-0.00099175,1742092448.829126
0.35375,-0.03525,0.0395,-0.0019989999,-0.013183501,-0.0013427499,1742092448.84381
0.316,-0.04625,0.006,-0.0017242499,-0.0059815003,-0.00137325,1742092448.8585
0.29675,-0.0405,-0.00175,-0.001587,-0.0043182503,-0.0020752498,1742092448.873238
0.278,-0.039,-0.006,-0.001709,-0.0030365,-0.00381475,1742092448.888643
0.24425,-0.0415,-0.01475,-0.0015565,-0.00267025,-0.00453175,1742092448.902952
0.223,-0.04,-0.02675,-0.0011445,-0.00263975,-0.00535575,1742092448.918427
0.185,-0.03275,-0.0475,-0.00154125,-0.00302125,-0.0044250004,1742092448.9323132
0.17525,-0.02725,-0.049,-0.00354,-0.0042572496,0.00033575002,1742092448.947009
0.177,-0.01375,-0.03525,-0.004242,-0.00517275,0.00245675,1742092448.961633
0.185,-0.01425,-0.026,-0.003662,-0.0075835,0.00254825,1742092448.976232
0.19025,-0.03025,-0.01975,-0.0029907501,-0.0085602505,0.00149525,1742092448.9908202
0.192,-0.03525,-0.02075,-0.0029755002,-0.009277251,0.0015565,1742092449.005465
0.21075,-0.02925,-0.02725,-0.0029145,-0.009384249,0.00198375,1742092449.020027
0.2225,-0.01775,-0.03075,-0.00175475,-0.010498,0.00105275,1742092449.03456
0.239,-0.00325,-0.0215,-0.00093075,-0.011734,-0.0005035,1742092449.049175
0.24175,-0.008,-0.01025,-0.00033575002,-0.012985251,-0.002533,1742092449.0638819
0.2425,-0.01875,0.00325,-0.000946,-0.013733,-0.0054015,1742092449.078482
0.247,-0.04975,0.026,-0.00187675,-0.012756251,-0.0055847503,1742092449.09316
0.247,-0.06725,0.0265,-0.00254825,-0.00962825,-0.003662,1742092449.108515
0.23675,-0.06175,0.00675,-0.00242625,-0.0085755,-0.00157175,1742092449.122415
0.233,-0.04125,-0.00125,-0.0024414998,-0.0085755,0.0019685,1742092449.1384268
0.23875,-0.011,0.0015,-0.002472,-0.00924675,0.00213625,1742092449.151511
0.24175,-0.0115,0.006,-0.002365,-0.01062,-0.00024425,1742092449.166115
0.2385,-0.04,0.016,-0.0022277501,-0.0111085,-0.00119025,1742092449.1806731
0.239,-0.0535,0.0235,-0.00131225,-0.0116425,-0.00090025004,1742092449.195298
0.252,-0.04725,0.03275,-0.0007325,-0.011612001,-3.0500001e-05,1742092449.20988
0.25525,-0.03,0.033,-0.00074775,-0.011764499,0.00175475,1742092449.224534
0.259,-0.014,0.0335,-0.0024872501,-0.010757499,0.00364675,1742092449.239001
0.25525,-0.0025,0.02625,-0.002777,-0.009734999,0.002121,1742092449.253458
0.24825,-0.013,0.0215,-0.0021057501,-0.01036075,-0.00314325,1742092449.268172
0.24,-0.044,0.02725,-0.0012207499,-0.01133725,-0.0051880004,1742092449.2826428
0.24475,-0.052,0.037,0.00010675,-0.01187125,-0.0054780003,1742092449.2972338
0.26425,-0.04975,0.05175,6.1000002e-05,-0.010879501,-0.00416575,1742092449.3117068
0.267,-0.042,0.05,-0.000885,-0.00747675,0.00036625,1742092449.327657
0.2595,-0.025,0.03975,-0.001236,-0.0061950004,0.001892,1742092449.340717
0.25675,-0.01775,0.03825,-0.0012665,-0.00531,0.0020295,1742092449.355289
0.25325,-0.014,0.0435,-0.000946,-0.0051574996,0.0009155,1742092449.369955
0.24975,-0.019,0.0445,-0.0007325,-0.0048065,-0.00036625,1742092449.384535
0.2465,-0.029,0.043,-0.0013427499,-0.00367725,-0.00067150005,1742092449.4007308
0.24825,-0.048,0.03925,-0.00143425,-0.0028229998,0.00062550005,1742092449.4139252
0.25075,-0.05075,0.0375,0.00030525,-0.0018615,0.00314325,1742092449.4286988
0.258,-0.039,0.0405,0.00102225,-0.00216675,0.0041504996,1742092449.442782
0.2645,-0.02525,0.04475,0.00039675,-0.0025940002,0.0044555003,1742092449.4582138
0.27675,-0.01275,0.04675,-0.00024425,-0.0024414998,0.00283825,1742092449.472127
0.28,-0.02075,0.04675,-0.000824,-0.002472,0.0005035,1742092449.488323
0.28775,-0.0335,0.04075,-0.0012055,-0.00245675,0.00119025,1742092449.501367
0.29575,-0.032,0.03925,-0.0012817499,-0.0025634998,0.0036315,1742092449.5159318
0.3245,-0.01825,0.03925,-0.00051875,-0.00308225,0.00364675,1742092449.530525
0.34425,-0.01125,0.039,0.0003815,-0.00367725,0.0028229998,1742092449.5449548
0.371,-0.0045,0.0415,0.00062550005,-0.00416575,0.00051875,1742092449.5594969
0.4455,-0.00575,0.0455,0.00013725001,-0.0035704998,-0.000412,1742092449.574202
0.4895,-0.01525,0.038,-0.00062550005,-0.00169375,-0.0008545,1742092449.588765
0.60075,-0.03,0.03375,-0.00149525,-0.00146475,3.0500001e-05,1742092449.603267
0.672,-0.047,0.05725,-0.0012970001,-0.00177,-0.00071725,1742092449.618402
0.79775,-0.121,0.15425,0.0012665,-0.0009155,-0.00390625,1742092449.6325362
0.83475,-0.16575,0.2145,0.0076905,0.008270251,-0.0090485,1742092449.647143
0.82725,-0.201,0.30525,0.009445249,0.01896675,-0.00535575,1742092449.6616478
0.75275,-0.1525,0.30625,0.0068055,0.04524225,0.010559,1742092449.676043
0.47475,-0.0155,0.249,0.0048217503,0.055724997,0.014297499,1742092449.690315
0.28925,0.01575,0.1985,0.0067445002,0.0630645,0.0112305,1742092449.704621
0.0715,0.00375,0.1405,0.01708975,0.0681305,-0.00051875,1742092449.7190762
-0.35025,-0.0855,0.046,0.01664725,0.06599425,0.00296025,1742092449.733569
-0.47525,-0.09975,0.0175,0.0114744995,0.05390925,0.015808,1742092449.7481668
-0.57275,-0.0505,-0.05775,0.012024,0.046997003,0.0150605,1742092449.762718
-0.541,0.00375,-0.09575,0.014938249,0.030014,0.0056304997,1742092449.778474
-0.363,0.099,-0.11975,0.01210025,0.01322925,0.006775,1742092449.791691
-0.24575,0.1335,-0.0965,0.0073395,-0.0038299998,0.0110015,1742092449.80618
-0.00675,0.171,-0.03825,-0.00029,-0.02212525,0.014663749,1742092449.820974
0.10425,0.15825,-0.0115,-0.000824,-0.023834249,0.009582501,1742092449.835544
0.19975,0.12575,0.0115,0.001419,-0.02339175,-0.00798025,1742092449.85056
0.33175,0.0485,0.049,0.0014037499,-0.021881001,-0.0138855,1742092449.864645
0.3585,0.01675,0.05875,-0.00242625,-0.01316825,-0.01368725,1742092449.8791502
0.347,-0.03175,0.05625,-0.00437925,-0.0078735,-0.01127625,1742092449.894083
0.3245,-0.0515,0.03975,-0.0037385002,-0.00070200005,-0.0097045,1742092449.9084969
0.27,-0.069,-0.0075,-0.003006,0.00102225,-0.0081025,1742092449.923085
0.2525,-0.0675,-0.02025,-0.00292975,0.002411,-0.002243,1742092449.93875
0.2135,-0.04025,-0.04325,-0.00267025,0.00238025,-0.0008545,1742092449.952503
0.197,-0.0235,-0.05375,-0.002411,-0.00027475,-0.002121,1742092449.968354
0.189,-0.02225,-0.06075,-0.0020752498,-0.002533,-0.00334175,1742092449.9820302
0.19625,-0.03325,-0.05675,-0.0014037499,-0.004837,-0.00413525,1742092449.996939
0.20925,-0.02725,-0.04125,0.0,-0.0080415,-0.0034790002,1742092450.011699
0.21575,-0.01725,-0.03475,-0.00029,-0.008651749,-0.00276175,1742092450.0281658
0.2325,-0.0115,-0.0225,-0.0020752498,-0.0091095,-0.0024414998,1742092450.041286
0.2395,-0.01525,-0.012,-0.0030365,-0.00891125,-0.0025025,1742092450.056127
0.24125,-0.02375,-0.0035,-0.0036162501,-0.0076295,-0.002243,1742092450.0709188
0.23575,-0.04225,0.0,-0.0030669998,-0.0070342496,-0.001831,1742092450.085554
0.234,-0.0395,-0.00575,-0.0016175,-0.0066985004,-0.00068675,1742092450.1009338
0.2395,-0.02275,-0.0275,-0.00177,-0.0068969997,-0.000183,1742092450.115005
0.2475,-0.02325,-0.0335,-0.00204475,-0.00782775,-4.575e-05,1742092450.129777
0.255,-0.0345,-0.021,-0.00143425,-0.008545,-0.0007325,1742092450.144628
0.2535,-0.04375,-0.009,-0.0001525,-0.00935375,-0.00198375,1742092450.159302
0.25075,-0.063,0.013,0.00048825,-0.008773751,-0.001831,1742092450.17393
0.24775,-0.05925,0.014,0.001114,-0.006073,-0.00027475,1742092450.188514
0.24025,-0.0295,-0.00575,-0.00045775,-0.0048674997,0.0012970001,1742092450.2032378
0.24125,-0.019,-0.01275,-0.0036315,-0.00328075,0.0047455,1742092450.218317
0.23925,-0.0115,-0.021,-0.0031585,-0.0034790002,0.0048065,1742092450.2323918
0.23775,-0.0125,-0.019,-0.0019685,-0.00460825,0.0038757501,1742092450.247314
0.25125,-0.01725,0.00475,0.00074775,-0.0075072497,0.0017852499,1742092450.261877
0.25325,-0.02075,0.012,0.0023039998,-0.008636501,0.00187675,1742092450.27775
0.25775,-0.01575,0.01875,0.00314325,-0.0069274995,0.00216675,1742092450.290808
0.26325,0.0045,0.0175,0.0018005001,-0.0047912505,0.00187675,1742092450.3051891
0.2605,0.006,0.00975,-0.0017395001,-0.00198375,0.000946,1742092450.3198552
0.2485,-0.0095,-0.007,-0.0029907501,-0.0012970001,0.000229,1742092450.334527
0.24175,-0.02225,-0.01175,-0.0030669998,-0.00175475,-0.00086975005,1742092450.351182
0.2405,-0.038,-0.0075,-0.001953,-0.0030365,-0.00112925,1742092450.36411
0.246,-0.0375,0.00175,0.00065625,-0.00611875,-0.00105275,1742092450.378923
0.2595,-0.024,0.02975,0.00109875,-0.006668,-0.00083925005,1742092450.393545
0.26225,-0.02,0.03825,3.0500001e-05,-0.0050355,-0.00061025,1742092450.408119
0.254,-0.02125,0.031,-0.001007,-0.0033722501,-0.0003205,1742092450.422838
0.24825,-0.02225,0.0205,-0.0020905002,-0.00175475,-1.5250001e-05,1742092450.438451
0.24625,-0.02075,0.00625,-0.0035704998,-0.0004425,0.001526,1742092450.452207
0.24625,-0.0205,0.00375,-0.0036010002,-0.00086975005,0.0026092501,1742092450.468126
0.2485,-0.02025,0.00525,-0.0029907501,-0.0027312501,0.00308225,1742092450.4814029
0.26,-0.017,0.019,-0.0023497501,-0.00364675,0.0029145,1742092450.495919
0.26775,-0.01275,0.02675,-0.00064075,-0.004303,0.00181575,1742092450.510401
0.27825,-0.00625,0.029,-0.00010675,-0.00384525,0.00086975005,1742092450.524912
0.27775,-0.00725,0.02425,3.0500001e-05,-0.00245675,-0.00080875,1742092450.5394711
0.2755,-0.01125,0.01175,-0.0002135,-0.00213625,-0.0010375,1742092450.554123
0.2765,-0.011,0.00875,-0.0010375,-0.0027312501,-0.00030525,1742092450.56881
0.27625,-0.0095,0.009,-0.0015105,-0.0030669998,0.00064075,1742092450.583543
0.28575,-0.01075,0.0175,-0.00190725,-0.0027160002,0.0012207499,1742092450.598227
0.297,-0.0165,0.02875,-0.00112925,-0.0034942501,-0.000946,1742092450.6129432
0.29825,-0.021,0.02975,-0.0002135,-0.00352475,-0.0025025,1742092450.628383
0.29875,-0.0265,0.028,0.000534,-0.00187675,-0.0033570002,1742092450.641994
