acc_x,acc_y,acc_z,gyro_x,gyro_y,gyro_z,timestamp
0.248,-0.029,-0.01275,-0.0002135,0.00071725,0.00169375,1742092297.331508
0.25025,-0.02875,-0.012,0.000534,-7.625e-05,0.0014037499,1742092297.344555
0.2545,-0.026,-0.009,0.00105275,-0.0002135,0.00102225,1742092297.3589828
0.255,-0.025,-0.00775,0.00149525,-6.1000002e-05,0.00071725,1742092297.3734882
0.2525,-0.0245,-0.00925,0.0013885,0.000122000005,0.00077825,1742092297.3880398
0.2515,-0.02475,-0.01,0.001236,0.0003205,0.00096125,1742092297.4024022
0.2505,-0.02575,-0.01025,0.0009765,0.0009155,0.001526,1742092297.416975
0.24925,-0.02675,-0.0105,0.000885,0.001236,0.001831,1742092297.431124
0.24825,-0.027,-0.011,0.001068,0.001648,0.0022277501,1742092297.4466078
0.246,-0.027,-0.01275,0.0012817499,0.001648,0.002243,1742092297.459938
0.24525,-0.02525,-0.0135,0.00169375,0.001419,0.002121,1742092297.474381
0.244,-0.02175,-0.01375,0.00177,0.00115975,0.0021972498,1742092297.488791
0.2435,-0.01975,-0.01375,0.001648,0.000763,0.002411,1742092297.5031419
0.24275,-0.01475,-0.0125,0.001526,0.00064075,0.00239575,1742092297.517652
0.2425,-0.01325,-0.01225,0.0014037499,0.000534,0.00228875,1742092297.532083
0.24225,-0.01275,-0.01225,0.0013275,0.00048825,0.00198375,1742092297.547009
0.23975,-0.0135,-0.01325,0.0013427499,0.00039675,0.00181575,1742092297.5608928
0.23925,-0.013,-0.013,0.001236,4.575e-05,0.00154125,1742092297.57526
0.24,-0.0115,-0.012,0.00108325,-0.00013725001,0.00146475,1742092297.589726
0.2405,-0.011,-0.01175,0.00080875,-0.00036625,0.001236,1742092297.6042
0.24075,-0.0105,-0.01175,0.00071725,-0.000473,0.00102225,1742092297.6187258
0.24125,-0.0115,-0.01075,0.00065625,-0.0005645,0.0007935,1742092297.633225
0.24225,-0.01525,-0.009,0.00059500005,-0.00070200005,0.0004425,1742092297.6477141
0.24325,-0.01625,-0.00775,0.00051875,-0.0008545,0.00036625,1742092297.662227
0.245,-0.01675,-0.0055,0.00033575002,-0.001175,0.00024425,1742092297.677402
0.25,-0.01475,0.0,0.00029,-0.00115975,0.0001525,1742092297.691088
0.25025,-0.013,0.0025,0.00035100002,-0.00065625,-4.575e-05,1742092297.706878
0.2325,-0.0085,0.0105,0.00048825,-0.000229,-0.00024425,1742092297.72002
0.20125,-0.00425,0.02025,0.00102225,0.00064075,-0.0017395001,1742092297.734396
0.06625,0.02025,0.03875,0.00108325,0.000885,-0.0032347501,1742092297.748684
-0.03225,0.03925,0.02925,0.00048825,0.00033575002,-0.00494375,1742092297.763106
-0.136,0.051,-0.0045,-0.00541675,-0.0056609996,-0.0069580004,1742092297.777832
-0.32375,-0.03275,-0.11975,-0.0110932505,-0.01136775,-0.0066985004,1742092297.7925
-0.40125,-0.1435,-0.179,-0.015915,-0.03176875,-0.0048674997,1742092297.8073092
-0.4175,-0.2345,-0.14875,-0.010147001,-0.05239875,-0.0026854998,1742092297.822037
-0.358,-0.17125,-0.08425,-0.00119025,-0.101043746,0.00057975,1742092297.837288
0.01075,0.02725,0.223,-0.00238025,-0.10939025,-0.0049590003,1742092297.851197
0.29625,0.074,0.4085,0.00059500005,-0.097412005,-0.03253175,1742092297.866837
0.86975,-0.0435,0.69925,0.00302125,-0.085266,-0.047592252,1742092297.880033
1.0,-0.1305,0.768,0.00631725,-0.05249025,-0.056274503,1742092297.894539
1.0,-0.1885,0.62525,0.00587475,-0.028946,-0.042648252,1742092297.908905
0.97675,-0.17025,0.479,0.0010375,-0.00099175,-0.021988,1742092297.923529
0.8815,-0.13325,0.34725,-0.00561525,0.03939825,0.00918575,1742092297.937948
0.5475,-0.051,0.1615,-0.00314325,0.04623425,0.01374825,1742092297.9524212
0.38975,-0.03625,0.10025,0.001068,0.051528998,0.01794425,1742092297.9671779
0.185,-0.0845,0.02675,0.001526,0.051437248,0.0214385,1742092297.9810681
0.13625,-0.11775,0.01275,0.0034484998,0.044632,0.02503975,1742092297.9953191
0.10075,-0.1465,0.0105,0.005066,0.03889475,0.02418525,1742092298.009664
0.09775,-0.13525,0.00775,0.00637825,0.032486,0.02262875,1742092298.0240378
0.11075,-0.0795,0.021,0.0062407497,0.0208435,0.0211335,1742092298.038334
0.12625,-0.0495,0.0405,0.005066,0.016448999,0.0201875,1742092298.052649
0.1405,-0.02625,0.06025,0.00314325,0.011383001,0.01513675,1742092298.066953
0.1645,0.0025,0.06225,0.0021057501,0.010742251,0.0119934995,1742092298.080956
0.1735,0.00925,0.0515,4.575e-05,0.01121525,0.009231499,1742092298.095208
0.189,0.0235,0.038,-0.0013580001,0.0112915,0.00941475,1742092298.109515
0.19825,0.03325,0.039,-0.0033722501,0.010666001,0.00976575,1742092298.12374
0.20325,0.04225,0.044,-0.00646975,0.00889575,0.008850001,1742092298.138031
0.207,0.02675,0.04025,-0.00614925,0.009521499,0.0067902496,1742092298.152363
0.2125,0.009,0.03825,-0.0048979996,0.010559,0.00325,1742092298.16694
0.2225,-0.022,0.03675,-0.00408925,0.010391249,0.0024872501,1742092298.180921
0.22475,-0.03075,0.0335,-0.00225825,0.009430001,0.002884,1742092298.195322
0.22825,-0.02375,0.0285,-0.001831,0.00874325,0.00378425,1742092298.2096782
0.2315,-0.014,0.02925,-0.001892,0.00794975,0.004593,1742092298.224011
0.23575,-0.005,0.03075,-0.0020599999,0.00668325,0.0046234997,1742092298.23844
0.24275,0.00675,0.0305,-0.0018615,0.006363,0.00396725,1742092298.252841
0.244,0.00675,0.02925,-0.0016632499,0.00631725,0.0031585,1742092298.2670422
0.24125,-0.0,0.02725,-0.00190725,0.0064850003,0.0033875,1742092298.2814112
0.23925,-0.003,0.02725,-0.0029755002,0.0068665,0.004593,1742092298.29583
0.23875,-0.00125,0.028,-0.0033570002,0.0069580004,0.0049742498,1742092298.310147
0.23925,0.001,0.0275,-0.00352475,0.0070495,0.005066,1742092298.3243892
0.23875,0.0015,0.02575,-0.0035704998,0.0075377496,0.00440975,1742092298.338735
0.23275,-0.00525,0.017,-0.00343325,0.00767525,0.00384525,1742092298.3531258
0.23,-0.009,0.012,-0.0027465,0.0072785,0.0027160002,1742092298.367445
0.22725,-0.0115,0.0055,-0.002365,0.0069274995,0.0022735,1742092298.381845
0.2265,-0.01025,0.003,-0.00228875,0.0062712496,0.00216675,1742092298.3969028
0.22675,-0.01275,-0.0,-0.002411,0.0060577504,0.0023345,1742092298.410562
0.227,-0.016,-0.0005,-0.0023345,0.0058899997,0.00251775,1742092298.424989
0.2275,-0.01375,-0.00075,-0.00131225,0.0054780003,0.0025634998,1742092298.439491
0.22625,-0.01125,-0.00225,-0.00068675,0.005249,0.0025025,1742092298.454012
0.225,-0.01025,-0.0025,-0.000122000005,0.0047607496,0.00263975,1742092298.468429
0.21925,-0.00925,0.001,9.15e-05,0.0045625,0.002655,1742092298.4827478
0.2125,-0.0085,0.00725,0.0009765,0.0042115003,0.002121,1742092298.497539
0.17225,-0.009,0.0385,0.0016785001,0.00434875,0.0015565,1742092298.5113301
0.126,-0.00325,0.0645,0.0032195,0.0061339997,-1.5250001e-05,1742092298.525882
-0.04775,0.0055,0.11375,0.0034942501,0.007553,-0.000473,1742092298.5403259
-0.1775,-0.02275,0.10475,0.00340275,0.00880425,-0.00013725001,1742092298.554782
-0.3315,-0.08425,0.04175,0.0036315,0.009140001,0.00355525,1742092298.569131
-0.64675,-0.195,-0.1675,0.0032655,0.00646975,0.0067445002,1742092298.583647
-0.71775,-0.19125,-0.20825,0.00314325,-0.02186575,0.007019,1742092298.598132
-0.59025,-0.02475,-0.1195,0.0063325,-0.05587775,0.00416575,1742092298.612767
-0.35875,0.04,0.05875,0.0077210004,-0.105606005,-0.0206145,1742092298.627237
0.5075,0.12075,0.5525,0.0115205,-0.11145025,-0.049850497,1742092298.641608
0.9085,0.007,0.7395,0.0138245,-0.08465575,-0.10496525,1742092298.657632
1.0,-0.40825,0.72975,0.011398249,-0.05599975,-0.105331495,1742092298.670649
1.0,-0.503,0.51225,0.00720225,-0.024414,-0.07795725,1742092298.6850078
0.99,-0.4575,0.27925,-0.0032195,0.038971,0.0037995,1742092298.6993809
0.8035,-0.07875,-0.01775,-0.00305175,0.05549625,0.026413,1742092298.713896
0.56675,0.09875,-0.08,0.0023497501,0.051712003,0.030075,1742092298.728343
0.1685,0.20275,-0.1025,0.0028074998,0.046203498,0.023117,1742092298.742645
0.084,0.15125,-0.081,0.000946,0.031601,0.011795,1742092298.757478
0.05825,-0.0105,-0.00725,0.00061025,0.021698,0.00891125,1742092298.7712471
0.0775,-0.08,0.039,0.00067150005,0.01310725,0.00764475,1742092298.785665
0.093,-0.12325,0.0705,0.00181575,0.002411,0.007309,1742092298.799915
0.1315,-0.12425,0.08275,0.001831,0.00048825,0.00717175,1742092298.8142872
0.15025,-0.096,0.0685,0.0014037499,0.000946,0.007904,1742092298.8285398
0.16825,-0.02875,0.02925,0.00149525,0.0009765,0.00723275,1742092298.8428109
0.182,-0.00875,0.0165,0.0014495,-0.00077825,0.0025025,1742092298.857758
0.2295,-0.007,0.013,0.0013580001,-0.0018005001,-0.0001525,1742092298.871692
0.25425,-0.01125,0.01925,0.0011445,-0.002411,-0.0017852499,1742092298.887329
0.2885,-0.02,0.03375,-0.0003205,-0.0018005001,-0.00099175,1742092298.900789
0.29925,-0.02875,0.04025,-0.00119025,-0.000885,0.00029,1742092298.9152
0.30525,-0.0355,0.04675,-0.0013885,0.001114,0.00109875,1742092298.929645
0.30025,-0.0395,0.04675,-0.00112925,0.00181575,0.00090025004,1742092298.943912
0.294,-0.03975,0.04075,-0.00099175,0.0024414998,0.00146475,1742092298.958312
0.28675,-0.03375,0.037,-0.00093075,0.002365,0.00204475,1742092298.972669
0.2885,-0.0265,0.03925,-0.00119025,0.002472,0.0038757501,1742092298.9877272
0.2885,-0.01025,0.0395,-0.00131225,0.003128,0.00517275,1742092299.0013828
0.286,-0.0045,0.03775,-0.00146475,0.0040587503,0.00637825,1742092299.017676
0.28375,-0.00025,0.0345,-0.001953,0.0054475004,0.0073547503,1742092299.030082
0.27875,-0.002,0.02625,-0.001953,0.006012,0.0069580004,1742092299.044596
0.2755,-0.00725,0.02325,-0.001068,0.006775,0.00514225,1742092299.058899
0.26925,-0.011,0.01525,-0.00071725,0.006546,0.0043944996,1742092299.0733702
0.27025,-0.00875,0.01575,-0.0013427499,0.0055695,0.0045625,1742092299.0878139
0.2815,-0.002,0.0285,-0.00216675,0.00570675,0.0050812503,1742092299.1020942
0.2845,-0.002,0.033,-0.003006,0.0064239996,0.0055085,1742092299.117553
0.27675,-0.0125,0.028,-0.0039825,0.0086975,0.0059205,1742092299.130881
0.2695,-0.0195,0.023,-0.0038299998,0.009658749,0.0056,1742092299.145409
0.2615,-0.02625,0.01875,-0.0019989999,0.0101775,0.003769,1742092299.159793
0.2485,-0.03175,0.00775,-0.0011445,0.00982675,0.00317375,1742092299.1740758
0.2445,-0.0275,0.0025,-0.00112925,0.008361749,0.0043335,1742092299.188423
0.24025,-0.0055,-0.00025,-0.0016785001,0.0074615004,0.0052947504,1742092299.2028348
0.241,0.00275,0.0015,-0.00267025,0.0061645,0.0054932497,1742092299.2176142
0.24525,0.00125,0.003,-0.0028687501,0.00587475,0.0045625,1742092299.231293
0.248,-0.0085,0.002,-0.0031127501,0.00564575,0.0035095,1742092299.247071
0.252,-0.022,0.001,-0.00364675,0.00505075,0.0037079998,1742092299.2599082
0.26025,-0.0465,0.00725,-0.00354,0.004837,0.004776,1742092299.274304
0.26225,-0.052,0.0135,-0.0020599999,0.0052642496,0.0059205,1742092299.2887712
0.2555,-0.04675,0.017,-0.0008545,0.0059967497,0.0054932497,1742092299.303125
0.25,-0.04,0.015,0.0003815,0.00801075,0.0046539996,1742092299.317389
0.23975,-0.03425,0.0145,7.625e-05,0.00880425,0.0050355,1742092299.331676
0.23375,-0.03425,0.01775,-0.0005035,0.009506251,0.00590525,1742092299.347677
0.223,-0.0325,0.0205,-0.00029,0.011550999,0.0068969997,1742092299.360458
0.163,-0.019,0.03025,0.00057975,0.0127105,0.00617975,1742092299.3747299
0.10325,-0.01,0.04475,0.00090025004,0.01390075,0.00367725,1742092299.389029
-0.10375,-0.0055,0.0985,-0.00045775,0.014160249,0.0031585,1742092299.403462
-0.25125,-0.026,0.109,-0.0039215,0.015152001,0.0063325,1742092299.4179258
-0.55425,-0.1085,-0.02125,-0.00485225,0.015213001,0.009872501,1742092299.4325068
-0.72375,-0.1265,-0.12725,-0.00434875,0.0125275,0.01326,1742092299.447135
-0.87375,-0.12375,-0.21675,-0.00308225,-0.015167249,0.0106355,1742092299.461809
-0.7795,-0.09125,-0.09025,-0.00193775,-0.04609675,0.00228875,1742092299.4773052
-0.50525,-0.0755,0.12575,0.0104065,-0.1097565,-0.02211,1742092299.4909089
0.393,-0.038,0.667,0.01631175,-0.1141815,-0.044372503,1742092299.505436
0.78225,-0.06775,0.71125,0.009613,-0.0743865,-0.06729125,1742092299.519912
1.0,-0.1285,0.496,0.0014495,-0.05122375,-0.0575715,1742092299.534508
1.0,-0.14025,0.3485,-0.0030669998,-0.018737748,-0.03041075,1742092299.549093
0.98275,-0.14975,0.08325,-0.002243,0.00045775,-0.02336125,1742092299.563485
0.9325,-0.104,-0.0025,0.002411,0.0236665,-0.0154115,1742092299.577945
0.6585,0.03575,-0.07175,0.0049590003,0.023285,-0.01121525,1742092299.5923462
0.51325,0.0645,-0.06925,0.0056304997,0.02064525,-0.00469975,1742092299.607446
0.403,0.05725,-0.04575,0.00428775,0.016983,0.008788999,1742092299.621012
0.2695,0.011,0.008,0.0044250004,0.0153807495,0.010940501,1742092299.635197
0.2295,-0.00325,0.02925,0.0037537501,0.011688249,0.01142875,1742092299.649494
0.18625,-0.02125,0.06175,0.00289925,0.00801075,0.011535751,1742092299.66379
0.17125,-0.036,0.06325,0.0021819999,0.00109875,0.009491,1742092299.678025
0.169,-0.0555,0.06225,0.0019989999,3.0500001e-05,0.0076142503,1742092299.692251
0.17975,-0.05725,0.05875,0.00175475,-0.00059500005,0.006256,1742092299.707476
0.191,-0.05475,0.056,0.0014037499,-0.00067150005,0.0057677496,1742092299.72094
0.205,-0.04275,0.04475,0.0012817499,-0.00035100002,0.0056609996,1742092299.735384
0.21525,-0.04,0.03975,0.00108325,-0.00068675,0.0042725,1742092299.749721
0.2435,-0.03675,0.04375,0.00105275,-0.00080875,0.00331125,1742092299.764063
0.25225,-0.03675,0.04775,0.000763,0.00042725,0.0021057501,1742092299.778493
0.2535,-0.04925,0.045,0.00064075,0.001175,0.0017852499,1742092299.792753
0.25525,-0.057,0.04225,0.00057975,0.00137325,0.00154125,1742092299.807699
0.2605,-0.059,0.043,0.00099175,0.000473,0.0015105,1742092299.821301
0.27425,-0.03725,0.0535,0.001236,3.0500001e-05,0.00175475,1742092299.835516
0.28125,-0.02125,0.05825,0.00086975005,6.1000002e-05,0.00308225,1742092299.8497422
0.2895,-0.00825,0.062,0.00083925005,0.00042725,0.0035704998,1742092299.864033
0.2875,-0.01,0.06075,0.00105275,0.00115975,0.00354,1742092299.87829
0.2745,-0.014,0.05225,0.0014037499,0.00314325,0.003006,1742092299.892494
0.26775,-0.01325,0.04825,0.0013427499,0.0038605002,0.00292975,1742092299.907756
0.266,-0.01025,0.04775,0.00099175,0.0039825,0.0029755002,1742092299.921041
0.269,0.00025,0.048,0.00074775,0.0034637498,0.0031127501,1742092299.935168
0.26925,0.001,0.04625,-0.00042725,0.0034637498,0.0039215,1742092299.949468
0.2665,-0.00975,0.042,-0.0010375,0.0038757501,0.0042115003,1742092299.963784
0.2645,-0.017,0.04075,-0.00131225,0.0041504996,0.0041504996,1742092299.978119
0.263,-0.023,0.0395,-0.001007,0.0039825,0.0033875,1742092299.992516
0.26425,-0.02425,0.03975,-0.000885,0.003769,0.0032195,1742092300.007212
0.26775,-0.0195,0.04425,-0.0013427499,0.0037079998,0.00343325,1742092300.021321
0.2715,-0.011,0.0445,-0.0017242499,0.00390625,0.0035704998,1742092300.037498
0.27125,-0.01325,0.04175,-0.0022735,0.004593,0.00402825,1742092300.050087
0.2725,-0.0265,0.03775,-0.0020905002,0.00494375,0.00428775,1742092300.064513
0.27025,-0.02975,0.034,-0.00154125,0.0052795,0.00466925,1742092300.078898
0.268,-0.0205,0.02825,-0.00131225,0.005249,0.00668325,1742092300.0933518
0.2665,-0.01125,0.02825,-0.00193775,0.00538625,0.0079955,1742092300.107718
0.266,-0.0045,0.0295,-0.0028229998,0.0061339997,0.00852975,1742092300.1220858
0.273,-0.00775,0.032,-0.00231925,0.0061645,0.0072937496,1742092300.1377249
0.273,-0.0135,0.03025,1.5250001e-05,0.00662225,0.0043182503,1742092300.150748
0.27075,-0.01225,0.0225,0.00027475,0.0069274995,0.0039215,1742092300.1649861
0.2725,-0.00125,0.0235,-0.0021972498,0.00665275,0.00738525,1742092300.179378
0.281,0.01375,0.03725,-0.0042725,0.006775,0.0099639995,1742092300.193666
0.28225,0.005,0.04,-0.0059510004,0.0076142503,0.011612001,1742092300.207961
0.27675,-0.0125,0.036,-0.005783,0.010253999,0.01054375,1742092300.222362
0.263,-0.05,0.02675,-0.0039215,0.010604749,0.008270251,1742092300.237835
0.25775,-0.05875,0.02625,0.00093075,0.0097045,0.00419625,1742092300.251013
0.23925,-0.0535,0.03125,0.0023039998,0.00930775,0.00419625,1742092300.2652621
0.225,-0.047,0.032,0.0013427499,0.009384249,0.00823975,1742092300.279495
0.18875,-0.0345,0.031,0.00024425,0.00962825,0.010391249,1742092300.293702
0.163,-0.027,0.031,-1.5250001e-05,0.009811499,0.011031999,1742092300.308094
0.12475,-0.01925,0.03275,0.0019685,0.010162249,0.0070495,1742092300.322359
-0.004,-0.0115,0.06025,0.00331125,0.010666001,0.003418,1742092300.337795
-0.11325,-0.019,0.07425,0.004013,0.0115967505,-0.0027465,1742092300.351143
-0.387,-0.0895,0.016,0.0030365,0.010086001,-0.002533,1742092300.3672729
-0.52475,-0.1445,-0.06425,0.001831,-0.00108325,0.0054475004,1742092300.380244
-0.78275,-0.15925,-0.1725,0.0025634998,-0.011245751,0.00839225,1742092300.394778
-0.8135,-0.12,-0.16325,0.0043639997,-0.02626025,0.00668325,1742092300.4092648
-0.741,-0.087,-0.113,0.013153,-0.0720215,-0.005783,1742092300.423879
-0.184,-0.064,0.24,0.018341,-0.088851996,-0.01890575,1742092300.438536
0.2765,-0.027,0.48,0.0250245,-0.0946045,-0.057433996,1742092300.4529972
1.0,-0.0625,0.74575,0.020629998,-0.077789254,-0.06611625,1742092300.467468
1.0,-0.116,0.6755,0.009155249,-0.0324555,-0.045287997,1742092300.4818711
1.0,-0.14175,0.30825,0.0049285004,-0.00891125,-0.02592475,1742092300.4977732
0.9735,-0.059,0.1495,0.0026245,0.02845775,-0.002472,1742092300.5107908
0.71925,0.138,-0.0155,0.004593,0.031845,0.00071725,1742092300.525023
0.51625,0.17975,-0.0365,0.005783,0.0285035,0.00201425,1742092300.5392761
0.3515,0.15925,-0.03275,0.0031127501,0.023101749,0.0052947504,1742092300.553519
0.19925,0.024,0.03225,0.00216675,0.02098075,0.00587475,1742092300.5677161
0.18575,-0.0385,0.07225,0.0030975002,0.010391249,0.0059967497,1742092300.581972
0.17775,-0.09325,0.10875,0.00325,0.0066985004,0.0067445002,1742092300.597335
0.17125,-0.088,0.10475,0.0027465,0.0037385002,0.007553,1742092300.610522
0.1605,-0.04125,0.07925,0.0020752498,0.00276175,0.0068969997,1742092300.624769
0.1645,-0.01625,0.06925,0.00093075,0.0017395001,0.0059815003,1742092300.6390579
0.1745,-0.00125,0.06,-0.0010375,-7.625e-05,0.00331125,1742092300.6534882
0.218,0.00125,0.0545,-0.0015105,-0.0008545,0.0016175,1742092300.667799
0.248,-0.003,0.06125,-0.001587,-0.00096125,-0.00125125,1742092300.682467
0.293,-0.02775,0.075,-0.00154125,0.00027475,-0.001831,1742092300.697888
0.3015,-0.04775,0.07775,-0.0013580001,0.00381475,-0.00062550005,1742092300.711415
0.2855,-0.07775,0.06325,-0.00119025,0.00520325,0.0012055,1742092300.72716
0.26975,-0.07825,0.05,-0.00108325,0.00593575,0.00358575,1742092300.740055
0.25775,-0.0675,0.04025,-0.00083925005,0.0049895,0.0067902496,1742092300.7546082
0.2575,-0.0285,0.04025,-0.0008545,0.0034942501,0.007019,1742092300.7689002
0.26375,-0.0085,0.04675,-0.0010375,0.00108325,0.006012,1742092300.783288
0.2735,0.0135,0.06025,-0.00137325,0.001114,0.00543225,1742092300.797909
0.27225,0.0115,0.06475,-0.0021057501,0.0028074998,0.004593,1742092300.811956
0.26325,-0.0065,0.0645,-0.0020752498,0.00372325,0.0039215,1742092300.827452
0.26175,-0.01175,0.06125,-0.00137325,0.0050812503,0.0029907501,1742092300.840727
0.2505,-0.012,0.05225,-0.00105275,0.00541675,0.00334175,1742092300.855065
0.24775,-0.0125,0.04775,-0.00109875,0.00543225,0.00396725,1742092300.8694022
0.24975,-0.01475,0.04425,-0.001892,0.00453175,0.00567625,1742092300.8837419
0.2645,-0.008,0.044,-0.00238025,0.0038757501,0.00672925,1742092300.89811
0.2745,0.0045,0.04975,-0.00340275,0.00355525,0.008316,1742092300.912417
0.287,0.01775,0.061,-0.00378425,0.0047455,0.008285499,1742092300.9278111
0.28725,0.00775,0.06,-0.003662,0.00764475,0.0069580004,1742092300.940983
0.28075,-0.01575,0.048,-0.00320425,0.008209251,0.0064239996,1742092300.955324
0.2775,-0.01725,0.04275,-0.00276175,0.00833125,0.0063477503,1742092300.969692
0.27675,-0.012,0.04125,-0.002655,0.0080415,0.0075682504,1742092300.98405
0.27975,-0.0025,0.0445,-0.0029755002,0.00791925,0.00846875,1742092300.998372
0.28175,-0.00225,0.0455,-0.00381475,0.008346501,0.010101249,1742092301.01277
0.28275,-0.00625,0.0405,-0.00413525,0.00891125,0.0111085,1742092301.027928
0.28275,-0.0035,0.04025,-0.00372325,0.010879501,0.01251225,1742092301.041549
0.272,0.01025,0.039,-0.0033722501,0.011856,0.012329,1742092301.055862
0.264,0.01025,0.0365,-0.0033875,0.01245125,0.011764499,1742092301.0701718
0.25525,0.00325,0.033,-0.00364675,0.012832751,0.010452249,1742092301.084451
0.23325,-0.013,0.021,-0.003418,0.012756251,0.0100555,1742092301.098804
0.222,-0.012,0.0145,-0.002365,0.011795,0.009719751,1742092301.1132522
0.202,0.00575,0.01475,-0.0019989999,0.010803251,0.009384249,1742092301.12752
0.1955,0.0085,0.02225,-0.002472,0.008667,0.00811775,1742092301.141752
0.17625,-0.004,0.038,-0.00289925,0.008133001,0.007431,1742092301.157276
0.158,-0.00925,0.04225,-0.0031889998,0.008133001,0.00662225,1742092301.170502
0.1335,-0.0105,0.04575,-0.0023345,0.00912475,0.00396725,1742092301.184834
0.05475,-0.003,0.053,-0.001236,0.00930775,0.00193775,1742092301.1992488
-0.01025,-0.0015,0.05625,-0.00033575002,0.00770575,-0.0028229998,1742092301.213789
-0.1805,-0.048,0.053,-0.00057975,0.00570675,-0.0052795,1742092301.228245
-0.25975,-0.1065,0.036,0.00062550005,-0.0002595,-0.0081025,1742092301.2427578
-0.408,-0.18075,-0.039,0.002411,-0.003891,-0.00672925,1742092301.25747
-0.493,-0.14175,-0.09375,0.00469975,-0.0183715,0.0025634998,1742092301.271862
-0.5875,-0.07675,-0.161,0.0035704998,-0.03297425,0.0081025,1742092301.2872
-0.5065,-0.09175,-0.086,0.0031127501,-0.0490265,0.0063477503,1742092301.3010461
-0.31075,-0.10375,0.06675,0.0183715,-0.08250425,-0.02896125,1742092301.317348
0.3905,-0.09775,0.45775,0.025879,-0.0911865,-0.05166625,1742092301.330067
0.7925,-0.09675,0.62275,0.02114875,-0.076644994,-0.066146754,1742092301.344568
1.0,-0.06775,0.633,0.01460275,-0.057541,-0.05258175,1742092301.358998
1.0,-0.01575,0.4735,0.00131225,-0.0029145,-0.01402275,1742092301.3734221
0.93675,0.10875,0.118,-0.001892,0.019195499,-0.0040435,1742092301.387736
0.79975,0.162,0.0055,-0.000183,0.03025825,-0.00146475,1742092301.402221
0.4295,0.18975,-0.0465,0.00086975005,0.025833251,-0.0012055,1742092301.417186
0.30825,0.148,-0.01875,0.0003815,0.021759002,0.00010675,1742092301.430851
0.2455,0.0775,0.02125,-0.0023345,0.01799,0.003769,1742092301.4451451
0.194,-0.0665,0.0835,-0.0024872501,0.016296498,0.0048065,1742092301.459567
0.17475,-0.107,0.09675,-0.00054925,0.01127625,0.0069885002,1742092301.4738991
0.13425,-0.106,0.095,0.0004425,0.008514499,0.00839225,1742092301.4881809
0.12425,-0.0825,0.0845,0.00059500005,0.0057525,0.008270251,1742092301.502409
0.14675,-0.03275,0.06325,0.000473,0.00434875,0.0062407497,1742092301.517767
0.17125,-0.01625,0.05325,0.00051875,0.0027312501,0.0031127501,1742092301.5309498
0.20025,-0.0085,0.048,0.00096125,0.0,-0.0038757501,1742092301.5452611
0.2535,-0.00625,0.053,0.0008545,-0.00051875,-0.0059510004,1742092301.5597272
0.26975,-0.01,0.05675,-9.15e-05,0.00035100002,-0.00640875,1742092301.57411
0.28525,-0.0245,0.05525,-0.000473,0.0014037499,-0.00561525,1742092301.58863
0.287,-0.02925,0.05375,-0.000763,0.0039215,-0.00320425,1742092301.603112
0.287,-0.03875,0.0505,-0.00090025004,0.0048674997,-0.001709,1742092301.6179898
0.285,-0.039,0.04825,-0.00099175,0.0052642496,-1.5250001e-05,1742092301.631996
0.2825,-0.03375,0.048,-0.0013275,0.00444025,0.00302125,1742092301.648111
0.2925,-0.02075,0.061,-0.001526,0.00393675,0.0038757501,1742092301.660776
0.3005,-0.014,0.07025,-0.0009765,0.00531,0.00399775,1742092301.675184
0.2965,-0.00725,0.068,-0.00048825,0.0068512503,0.0038299998,1742092301.689572
0.2885,-0.00975,0.06,0.00029,0.008773751,0.00437925,1742092301.703871
0.27475,-0.0125,0.0495,0.00048825,0.009079001,0.0048979996,1742092301.7182121
0.2705,-0.00875,0.047,0.0003205,0.009292499,0.0056304997,1742092301.732411
0.26575,-0.00325,0.043,-0.00067150005,0.009933501,0.00715625,1742092301.7479198
0.25625,-0.001,0.03725,-0.00099175,0.010009751,0.00737,1742092301.761085
0.25425,-0.00475,0.037,-0.00062550005,0.009079001,0.00621025,1742092301.775459
0.25275,-0.01075,0.04,-0.0005035,0.008590749,0.00570675,1742092301.7898118
0.255,-0.01325,0.0455,-0.0013275,0.00891125,0.0061950004,1742092301.8041961
0.26475,-0.018,0.05825,-0.0016632499,0.00968925,0.0065917503,1742092301.818602
0.2635,-0.01825,0.057,-0.00169375,0.01083375,0.00672925,1742092301.832978
0.24925,-0.0105,0.03625,-0.0017242499,0.012832751,0.00720225,1742092301.84743
0.244,-0.00475,0.02875,-0.0020905002,0.013031,0.00798025,1742092301.86168
0.24175,-0.00125,0.02525,-0.0025634998,0.01245125,0.008590749,1742092301.877447
0.237,-0.0085,0.01975,-0.0020599999,0.012039251,0.0077515002,1742092301.890454
0.23525,-0.013,0.0165,-0.00062550005,0.01104725,0.0056609996,1742092301.90481
0.23975,-0.0105,0.01425,-0.0005645,0.010314999,0.005783,1742092301.919198
0.24325,-0.00375,0.01625,-0.0021819999,0.0093995,0.00883475,1742092301.9336169
0.24375,0.00425,0.021,-0.00296025,0.009506251,0.01019275,1742092301.947822
0.2385,0.00325,0.02,-0.0031585,0.009887749,0.010376001,1742092301.96211
0.23225,-0.00025,0.0165,-0.0019989999,0.010391249,0.00764475,1742092301.977846
0.22175,-0.0045,0.00475,-0.001236,0.010314999,0.0061950004,1742092301.990956
0.21875,-0.00225,0.0005,-0.00096125,0.009521499,0.0056609996,1742092302.005283
0.21875,0.00325,0.0015,-0.00149525,0.0088805,0.0063934997,1742092302.019495
0.21825,0.00275,0.00375,-0.0018615,0.0076905,0.0068055,1742092302.033752
0.20925,0.003,0.00575,-0.001175,0.00744625,0.00546275,1742092302.047926
0.20425,0.00225,0.007,-0.00010675,0.0073547503,0.0032195,1742092302.062169
0.199,-0.0015,0.0095,0.00213625,0.0069274995,-0.0015105,1742092302.0769541
0.18625,-0.01625,0.01625,0.0025025,0.0065002497,-0.0026092501,1742092302.0908642
0.17775,-0.0255,0.02275,0.00146475,0.00546275,-0.0014495,1742092302.1052449
0.13475,-0.03725,0.04325,0.0007935,0.0050355,-0.000183,1742092302.119601
0.089,-0.038,0.05525,-0.00024425,0.0045165,0.00067150005,1742092302.133893
-0.03275,-0.053,0.05875,-7.625e-05,0.0040587503,-0.00096125,1742092302.1484659
-0.11325,-0.073,0.04825,0.0013885,0.00292975,-0.00413525,1742092302.162903
-0.22025,-0.08775,0.03025,0.0053252503,-0.0023497501,-0.0093995,1742092302.177865
-0.42175,-0.07575,-0.03375,0.00505075,-0.00611875,-0.008361749,1742092302.1920729
-0.51825,-0.05075,-0.08875,0.0022277501,-0.024383498,0.001892,1742092302.207495
-0.65825,-0.05025,-0.14925,-0.00070200005,-0.038390998,0.00691225,1742092302.221287
-0.579,-0.058,-0.07975,0.00646975,-0.073578,-0.0059510004,1742092302.2376199
0.01825,-0.01525,0.321,0.01469425,-0.090271,-0.023193251,1742092302.250346
0.4745,-0.02175,0.555,0.018585252,-0.09043875,-0.05552675,1742092302.264809
1.0,-0.13675,0.6625,0.013549751,-0.071289,-0.055236753,1742092302.279267
1.0,-0.17325,0.50975,0.00617975,-0.046081502,-0.04043575,1742092302.293785
1.0,-0.148,0.32925,-0.00334175,0.002533,-0.0067445002,1742092302.308228
0.957,0.0105,0.06825,-0.0014037499,0.0164795,-0.0045625,1742092302.3226051
0.87325,0.06775,0.01725,0.005005,0.02601625,-0.01396175,1742092302.3380811
0.59275,0.1375,-0.02625,0.0053252503,0.022369498,-0.012267999,1742092302.351398
0.46725,0.155,-0.025,0.00051875,0.014343251,0.0036010002,1742092302.3674932
0.3025,0.1285,0.01875,-0.00148,0.013793999,0.0078125,1742092302.380081
0.25975,0.0775,0.04325,-0.0023039998,0.014343251,0.0038605002,1742092302.3943539
0.228,-0.0365,0.08775,-0.0013427499,0.013214,0.00169375,1742092302.408798
0.21325,-0.07075,0.08925,-3.0500001e-05,0.010452249,0.0024414998,1742092302.42318
0.194,-0.08325,0.08,0.00010675,0.0081635,0.00941475,1742092302.4376209
0.167,-0.05225,0.05675,-0.00067150005,0.0079955,0.0119630005,1742092302.451775
0.167,-0.027,0.0495,-0.00115975,0.0044555003,0.0099945,1742092302.4676962
0.187,-0.00825,0.04075,-0.00096125,0.0023039998,0.006073,1742092302.4804668
0.20475,-0.016,0.041,-0.00061025,-0.00019825,-0.00099175,1742092302.4949539
0.24625,-0.038,0.055,-0.00054925,-0.00048825,-0.0020295,1742092302.509412
0.2575,-0.04225,0.05975,-0.00054925,-3.0500001e-05,-0.0017395001,1742092302.5239758
0.26275,-0.042,0.0605,-0.0012055,0.0021819999,0.00064075,1742092302.5383801
0.26375,-0.03575,0.055,-0.00169375,0.0030669998,0.0019989999,1742092302.552814
0.26275,-0.0315,0.0495,-0.00245675,0.0032195,0.0037079998,1742092302.567486
0.27125,-0.025,0.0495,-0.0023039998,0.0029755002,0.0035704998,1742092302.581555
0.2795,-0.01975,0.05475,-0.0012055,0.0030365,0.00148,1742092302.5958169
0.288,-0.01225,0.05975,-0.00074775,0.0037995,0.00070200005,1742092302.6102688
0.2865,-0.011,0.05825,-0.000473,0.0050355,0.00054925,1742092302.624684
0.281,-0.00925,0.0535,0.0,0.0065307496,0.00169375,1742092302.6389701
0.2655,-0.0065,0.0395,0.0,0.0067445002,0.0028074998,1742092302.653179
0.26125,-0.00525,0.03375,-0.0005035,0.0065307496,0.0045777503,1742092302.667635
0.26525,0.00025,0.03075,-0.0008545,0.006073,0.004837,1742092302.681859
0.27025,0.00425,0.03375,-0.00190725,0.0054932497,0.0050965,1742092302.697834
0.27875,0.00575,0.038,-0.00242625,0.00570675,0.00541675,1742092302.710471
0.283,0.00525,0.041,-0.002777,0.00617975,0.00570675,1742092302.7247128
0.285,0.0065,0.04275,-0.00334175,0.0064850003,0.0061645,1742092302.7389681
0.276,0.006,0.04025,-0.0038299998,0.0065917503,0.00671375,1742092302.7533288
0.27075,-0.0,0.04025,-0.0042267498,0.008026,0.00691225,1742092302.7676501
0.26125,-0.011,0.038,-0.00390625,0.008651749,0.0062407497,1742092302.782055
0.256,-0.01175,0.03225,-0.0039215,0.009017999,0.0061035,1742092302.797693
0.24675,-0.00975,0.02225,-0.0044250004,0.0089569995,0.0071409997,1742092302.8108108
0.24325,-0.01,0.02325,-0.0047302498,0.008926501,0.008224499,1742092302.825115
0.23925,-0.0115,0.026,-0.00396725,0.009613,0.008346501,1742092302.839485
0.22575,-0.016,0.0235,-0.00334175,0.010086001,0.00741575,1742092302.853787
0.21975,-0.01575,0.0175,-0.003128,0.009796251,0.0062865,1742092302.8680918
0.215,-0.01475,0.00375,-0.00352475,0.00918575,0.00694275,1742092302.882445
0.214,-0.0145,0.00225,-0.0036010002,0.0078125,0.008865249,1742092302.8977711
0.208,-0.01275,0.005,-0.0029449998,0.0070952503,0.0085755,1742092302.911125
0.203,-0.0115,0.00525,-0.002121,0.0062865,0.007553,1742092302.925586
0.2035,-0.009,0.01275,-0.00105275,0.00488275,0.0061035,1742092302.9399621
0.209,-0.006,0.01825,-0.00071725,0.004547,0.0061339997,1742092302.954279
0.21375,-0.00225,0.0215,-0.00019825,0.00469975,0.0062865,1742092302.968645
0.211,0.001,0.01925,6.1000002e-05,0.00511175,0.00590525,1742092302.98282
0.20475,0.0015,0.0145,0.00080875,0.0053709997,0.004242,1742092302.99778
0.19775,0.00475,0.00675,0.001236,0.005066,0.0034637498,1742092303.0111659
0.19525,0.0065,0.005,0.0016175,0.00463875,0.0028535,1742092303.025252
0.1925,0.0065,0.0045,0.00193775,0.003662,0.00201425,1742092303.039446
0.18825,0.00275,0.0105,0.00198375,0.0033264998,0.00177,1742092303.0536819
0.184,0.00175,0.015,0.0028535,0.0034790002,0.00109875,1742092303.067831
0.15725,0.01075,0.02,0.00358575,0.0035095,0.0003815,1742092303.082096
0.1345,0.01875,0.02125,0.004303,0.002777,-0.0023039998,1742092303.0978088
0.07275,0.0075,0.03025,0.0042725,0.0020752498,-0.0040435,1742092303.110712
0.03,-0.009,0.03575,0.0039215,0.0013885,-0.0052947504,1742092303.1250381
-0.02975,-0.01625,0.04025,0.00077825,0.00062550005,-0.0045165,1742092303.139457
-0.19425,-0.0125,0.043,-0.0021057501,0.001175,-0.002655,1742092303.153991
-0.3155,-0.02375,0.0235,-0.003891,0.0009765,0.002243,1742092303.1683562
-0.56275,-0.169,-0.124,-0.00279225,-0.0047455,0.00691225,1742092303.1830962
-0.61225,-0.248,-0.148,0.0031127501,-0.032256998,0.00712575,1742092303.197741
-0.50675,-0.19175,0.0355,0.009292499,-0.05296325,-0.002411,1742092303.212369
-0.3245,-0.105,0.171,0.01835625,-0.08911125,-0.03373725,1742092303.2273731
0.4175,-0.01175,0.506,0.020202748,-0.0971985,-0.0513,1742092303.2413461
0.85375,0.00225,0.6895,0.0208435,-0.0984345,-0.06501775,1742092303.257494
1.0,-0.0195,0.756,0.01054375,-0.06387325,-0.05587775,1742092303.270376
1.0,-0.10675,0.464,0.001953,-0.027893,-0.03572075,1742092303.284888
0.99225,-0.08675,0.22425,-0.0062712496,0.03297425,-0.00328075,1742092303.2993338
0.88225,0.1025,-0.0545,-0.0048979996,0.045471247,0.002533,1742092303.313781
0.72675,0.1705,-0.0725,0.0028687501,0.0228425,0.00453175,1742092303.328129
0.419,0.14625,0.00625,0.004303,0.0144805005,0.0055237496,1742092303.342249
0.32375,0.102,0.035,0.0012970001,0.01899725,0.01026925,1742092303.35762
0.23575,0.0185,0.07675,-0.0003815,0.02197275,0.01197825,1742092303.370691
0.214,-0.014,0.09525,-0.0007325,0.0206605,0.012695249,1742092303.385071
0.1965,-0.04725,0.10525,0.0,0.012695249,0.013412501,1742092303.399331
0.1745,-0.089,0.09675,0.00036625,0.01086425,0.01272575,1742092303.413673
0.175,-0.08975,0.08675,0.00177,0.009323,0.009216251,1742092303.42809
0.18375,-0.04575,0.066,0.0020599999,0.0084379995,0.0068512503,1742092303.442272
0.18675,-0.01825,0.051,0.00187675,0.006775,0.0050355,1742092303.457891
0.198,0.00625,0.03175,-4.575e-05,0.00396725,0.00331125,1742092303.470944
0.20875,0.00175,0.03125,-0.0012970001,0.0034484998,0.0021515,1742092303.485177
0.222,-0.016,0.031,-0.00093075,0.0022277501,0.0002595,1742092303.499566
0.251,-0.0535,0.033,-0.00035100002,0.0015105,0.00062550005,1742092303.513935
0.26325,-0.05225,0.036,-0.000473,0.000824,0.00302125,1742092303.528279
0.27775,-0.02075,0.0425,-0.00086975005,0.0003205,0.0042267498,1742092303.542629
0.28475,-0.00425,0.04625,-0.0013580001,-0.00039675,0.00491325,1742092303.557493
0.29175,0.0125,0.0565,-0.00187675,-0.0007325,0.004547,1742092303.571342
0.28775,0.01425,0.05825,-0.002472,-0.000473,0.0044555003,1742092303.5876858
0.284,0.016,0.05725,-0.00440975,-0.0005645,0.0052185003,1742092303.600366
0.2825,0.0205,0.05525,-0.0051269997,-0.00042725,0.006073,1742092303.6147861
0.28,0.02225,0.0575,-0.0044250004,0.0031585,0.00697325,1742092303.6291451
0.267,0.014,0.05825,-0.0038757501,0.00567625,0.007019,1742092303.6434162
0.261,0.0075,0.05725,-0.00320425,0.0070342496,0.0077972496,1742092303.657832
0.25325,0.004,0.048,-0.0031127501,0.0067445002,0.008316,1742092303.671977
0.252,0.005,0.04575,-0.00305175,0.0070647504,0.0084379995,1742092303.687383
0.2515,0.007,0.04575,-0.00225825,0.008377,0.0067597497,1742092303.7005498
0.25125,0.0095,0.0455,-0.0021057501,0.008727999,0.00590525,1742092303.714862
0.25125,0.00675,0.04425,-0.0025940002,0.0093385,0.0064850003,1742092303.729101
0.2475,0.009,0.03975,-0.0030365,0.00975025,0.00737,1742092303.743367
0.2435,0.01475,0.03675,-0.0042115003,0.0101165,0.00839225,1742092303.7576902
0.23325,0.01125,0.02925,-0.0044707498,0.010024999,0.00817875,1742092303.771945
0.232,0.00025,0.0285,-0.00416575,0.00975025,0.00744625,1742092303.787474
0.2325,-0.011,0.02975,-0.0020752498,0.00912475,0.0056,1742092303.800586
0.23275,-0.0125,0.032,-0.0012665,0.009002751,0.0055695,1742092303.814864
0.23025,-0.00275,0.033,-0.001648,0.008865249,0.00688175,1742092303.829251
0.22225,0.0195,0.033,-0.002365,0.008850001,0.0073547503,1742092303.843589
0.2155,0.02325,0.0305,-0.00325,0.00842275,0.0068969997,1742092303.857858
0.1995,0.01725,0.026,-0.0032347501,0.00794975,0.0059205,1742092303.872149
0.19175,0.0105,0.0245,-0.0027465,0.007431,0.00453175,1742092303.887784
0.1835,0.00375,0.0235,-0.0007935,0.00668325,0.00169375,1742092303.900664
0.168,-0.003,0.02575,4.575e-05,0.0064239996,0.00057975,1742092303.914946
0.16375,-0.004,0.03,0.00057975,0.00585925,-0.00024425,1742092303.9292421
0.15025,-0.0005,0.03225,0.00077825,0.0060272496,-0.000412,1742092303.943671
0.137,0.00225,0.026,0.0013580001,0.00614925,-0.0014495,1742092303.957942
0.09875,0.00425,0.0145,0.0015105,0.0054932497,-0.001953,1742092303.972163
0.07475,0.00125,0.01525,0.0016175,0.0043944996,-0.0022735,1742092303.98755
0.04675,-0.0045,0.01925,0.002411,0.0016175,-0.004013,1742092304.000791
-0.03075,-0.01625,0.03075,0.00325,0.0001525,-0.00614925,1742092304.0152519
-0.087,-0.02425,0.038,0.0043335,-0.0028229998,-0.011139,1742092304.02988
-0.2505,-0.07325,0.04425,0.005066,-0.0040435,-0.01216125,1742092304.044462
-0.36875,-0.121,-0.004,0.0070495,-0.0071105,-0.00764475,1742092304.059083
-0.611,-0.179,-0.16975,0.0067597497,-0.01481625,-0.00137325,1742092304.073746
-0.66825,-0.1865,-0.2135,0.0059205,-0.0302735,0.00505075,1742092304.088366
-0.398,-0.098,0.053,0.011917,-0.075653,-0.00399775,1742092304.102933
-0.02475,-0.0445,0.34025,0.02023325,-0.097107,-0.02070625,1742092304.117572
0.4625,-0.028,0.62275,0.02952575,-0.09927375,-0.059265252,1742092304.131926
1.0,-0.09975,0.8095,0.02545175,-0.08038325,-0.06427,1742092304.147671
1.0,-0.123,0.67775,0.00897225,-0.028289748,-0.030334499,1742092304.1608808
0.99025,-0.033,0.29775,0.0027312501,-9.15e-05,-0.00968925,1742092304.175308
0.96175,0.0805,0.15125,-4.575e-05,0.03268425,0.0075072497,1742092304.189579
0.6575,0.25925,0.0065,0.0012970001,0.03344725,0.0072785,1742092304.2037811
0.4615,0.2615,-0.01175,0.00213625,0.029358,0.005783,1742092304.2180521
0.32075,0.216,-0.00725,0.0003815,0.0247955,0.0054932497,1742092304.232338
0.20125,0.0845,0.0455,-0.00109875,0.02409375,0.0064850003,1742092304.247107
0.18625,0.019,0.07725,-0.00062550005,0.015396,0.008361749,1742092304.260946
0.18,-0.0975,0.11275,0.0002135,0.011169501,0.009017999,1742092304.2752588
0.1795,-0.1325,0.11375,0.0015565,0.0086975,0.009521499,1742092304.289633
0.17375,-0.115,0.09125,0.0025634998,0.00801075,0.009079001,1742092304.303885
0.1735,-0.073,0.0735,0.00283825,0.0068512503,0.008590749,1742092304.3182662
0.179,-0.02375,0.05675,0.00070200005,0.0048217503,0.0068665,1742092304.332549
0.2075,0.0455,0.0405,-0.0008545,0.0037995,0.0048674997,1742092304.347542
0.22575,0.052,0.042,-0.0036315,0.0020752498,1.5250001e-05,1742092304.3611782
0.254,0.01825,0.05725,-0.0044707498,0.0017395001,-0.0017242499,1742092304.375582
0.261,-0.0065,0.06475,-0.00543225,0.0024872501,-0.00231925,1742092304.390014
0.267,-0.04075,0.07275,-0.0055237496,0.00317375,-0.001114,1742092304.404473
0.268,-0.04425,0.0745,-0.00520325,0.00378425,0.000412,1742092304.418763
0.26625,-0.04075,0.07275,-0.004303,0.00514225,0.002884,1742092304.433247
0.25975,-0.024,0.068,-0.00396725,0.0059510004,0.00343325,1742092304.4479969
0.25525,-0.0175,0.06725,-0.0034637498,0.0068055,0.00308225,1742092304.461927
0.245,-0.02375,0.06325,-0.0034637498,0.0068055,0.0032347501,1742092304.477837
0.2385,-0.03075,0.0595,-0.0028535,0.0072632497,0.0045777503,1742092304.490635
0.2255,-0.025,0.05,-0.0023345,0.0076599997,0.00531,1742092304.504957
0.2245,-0.00875,0.04925,-0.0020295,0.0080872495,0.006012,1742092304.519258
0.228,0.01825,0.049,-0.0022277501,0.008148249,0.0058287503,1742092304.533556
0.2295,0.0185,0.04725,-0.0026092501,0.0080567505,0.00561525,1742092304.5479228
0.23,0.01475,0.045,-0.003418,0.00747675,0.0059967497,1742092304.5622752
0.23075,0.0135,0.04325,-0.0035095,0.0072632497,0.0060272496,1742092304.577825
0.23275,0.017,0.045,-0.0029907501,0.00691225,0.00399775,1742092304.590836
0.2375,0.01275,0.04825,-0.002777,0.0066985004,0.002472,1742092304.6052532
0.2395,0.00525,0.04825,-0.00302125,0.00668325,0.0011445,1742092304.619562
0.242,-0.0045,0.044,-0.0033570002,0.0069885002,0.0015105,1742092304.6339269
0.2415,-0.00375,0.04025,-0.00358575,0.0072785,0.0021972498,1742092304.6482718
0.24125,-0.00025,0.038,-0.00372325,0.0075835,0.00305175,1742092304.662679
0.24125,0.00375,0.03825,-0.0036010002,0.0076905,0.00270075,1742092304.67736
0.23925,0.0025,0.0365,-0.0029145,0.008255,0.0012207499,1742092304.6911302
0.23075,-0.0015,0.027,-0.0026245,0.00845325,0.00086975005,1742092304.70557
0.22825,-0.004,0.02075,-0.0022735,0.00817875,0.0013275,1742092304.719926
0.23125,-0.00425,0.01375,-0.00213625,0.0076599997,0.00193775,1742092304.7342458
0.2355,0.00225,0.0145,-0.0019989999,0.0070952503,0.0025787498,1742092304.748693
0.24125,0.01075,0.01775,-0.001892,0.0066374997,0.003006,1742092304.762912
0.24475,0.0205,0.021,-0.00187675,0.00697325,0.00254825,1742092304.7775
0.24,0.01775,0.0165,-0.00190725,0.007599,0.0014037499,1742092304.791426
0.228,0.0055,0.00375,-0.0020295,0.0074004997,0.0014037499,1742092304.8070998
0.227,0.00125,0.00175,-0.0020905002,0.00585925,0.002411,1742092304.819912
0.232,0.0085,0.0075,-0.0020752498,0.0048674997,0.0028074998,1742092304.834259
0.2345,0.015,0.011,-0.00201425,0.00411975,0.0028535,1742092304.8485508
0.2355,0.02075,0.0135,-0.001953,0.00355525,0.0020295,1742092304.8628721
0.236,0.023,0.0155,-0.0023039998,0.00355525,0.0015565,1742092304.877707
0.23475,0.016,0.01375,-0.00270075,0.0034637498,0.000885,1742092304.891407
0.22875,0.001,0.00775,-0.00245675,0.00328075,0.00067150005,1742092304.905666
0.225,-0.00125,0.00625,-0.0021057501,0.00292975,0.00067150005,1742092304.9200451
0.2215,0.00475,0.0095,-0.0020752498,0.00198375,0.0017242499,1742092304.934329
0.21825,0.011,0.00975,-0.0022125002,0.0015565,0.002243,1742092304.948642
0.21375,0.0165,0.00725,-0.0020599999,0.00061025,0.0016785001,1742092304.963081
