acc_x,acc_y,acc_z,gyro_x,gyro_y,gyro_z,timestamp
0.246,0.0185,0.00425,-0.00225825,0.00238025,0.0012817499,1742092365.096517
0.245,0.0175,0.00225,-0.00169375,0.0029907501,0.00039675,1742092365.1101599
0.24325,0.013,-0.00125,-0.0011445,0.00292975,-0.0004425,1742092365.12464
0.2445,0.0125,-0.001,-0.0007325,0.00239575,-0.0010375,1742092365.139101
0.2455,0.01325,0.001,-0.0004425,0.00149525,-0.00096125,1742092365.153544
0.24775,0.01625,0.0035,-0.00067150005,0.0016175,-0.0005645,1742092365.168187
0.2475,0.018,0.00225,-0.00099175,0.00263975,-0.000473,1742092365.1825438
0.24525,0.01725,-0.002,-0.00086975005,0.0028229998,-0.00064075,1742092365.1978528
0.2455,0.01625,-0.0025,-0.00061025,0.00175475,-0.00051875,1742092365.211461
0.24925,0.01425,-0.00125,-0.0005035,0.00112925,-0.00057975,1742092365.227167
0.25025,0.01375,-0.002,-0.00013725001,0.000824,-0.000763,1742092365.2405398
0.24975,0.01375,-0.00425,-4.575e-05,0.00096125,-0.000473,1742092365.2552278
0.2495,0.016,-0.004,-3.0500001e-05,0.001068,-6.1000002e-05,1742092365.2698
0.249,0.0185,-0.00375,-6.1000002e-05,0.0013427499,0.00010675,1742092365.284204
0.24625,0.01925,-0.007,0.0,0.00137325,-0.00019825,1742092365.298679
0.24475,0.0155,-0.00975,0.0001525,0.00093075,-0.00051875,1742092365.313151
0.24325,0.0105,-0.0105,0.00019825,0.00054925,-0.0003815,1742092365.327538
0.24275,0.01275,-0.008,0.00013725001,-9.15e-05,0.00035100002,1742092365.341978
0.242,0.0205,0.002,4.575e-05,-0.0001525,0.00071725,1742092365.357674
0.24,0.0235,0.011,4.575e-05,-0.00027475,0.00112925,1742092365.3706272
0.23075,0.02525,0.07125,0.00024425,-0.00080875,0.0012665,1742092365.38489
0.22625,0.01475,0.1465,0.00090025004,-0.00193775,0.0017852499,1742092365.3991969
0.235,-0.01175,0.26725,0.00440975,-0.00671375,0.0043335,1742092365.41377
0.35025,-0.08925,0.591,0.0042725,-0.0087585,0.0057372497,1742092365.428082
0.3975,-0.112,0.691,-0.0038605002,-0.000534,0.0144805005,1742092365.442587
0.32975,-0.1175,0.6385,-0.00694275,0.009369001,0.01820375,1742092365.457719
0.24325,-0.10075,0.52425,-0.0057677496,0.02507025,0.013321,1742092365.471512
0.1335,-0.03025,0.1625,-0.00585925,0.029693501,0.00747675,1742092365.486217
0.128,-0.03225,-0.06625,-0.0064239996,0.032837003,0.001007,1742092365.500594
0.1185,-0.0385,-0.27725,0.0038299998,0.031356752,-0.0143737495,1742092365.5151942
0.04475,0.0375,-0.49425,0.01148975,0.02563475,-0.0200805,1742092365.5295732
0.04025,0.07875,-0.49925,0.019638,0.007187,-0.02664175,1742092365.5442061
0.156,0.09525,-0.45575,0.020752002,6.1000002e-05,-0.02867125,1742092365.558732
0.21625,0.09625,-0.437,0.018875,-0.0028687501,-0.023407,1742092365.573312
0.2575,0.151,-0.37575,0.015335,-0.00149525,-0.0166015,1742092365.587745
0.26425,0.161,-0.32225,0.009201,-0.00083925005,-0.0069885002,1742092365.602308
0.28375,0.14375,-0.2125,0.008590749,-0.001892,-0.0063477503,1742092365.617344
0.29675,0.1315,-0.1675,0.00585925,-0.0035095,-0.0046234997,1742092365.631404
0.30725,0.08225,-0.096,0.0040435,-0.00302125,-0.0031585,1742092365.645864
0.3025,0.0465,-0.06825,0.00276175,-0.00163275,-0.002655,1742092365.660444
0.296,0.01375,-0.04525,0.0017852499,0.00125125,-0.0026245,1742092365.674869
0.27525,-0.02525,-0.022,0.0016175,0.002365,-0.0022735,1742092365.689385
0.256,-0.028,-0.0255,0.00036625,0.00466925,-0.00090025004,1742092365.70402
0.22625,-0.02525,-0.04075,-0.00048825,0.00494375,-0.00048825,1742092365.718552
0.217,-0.02325,-0.04775,-0.00071725,0.00340275,-0.00119025,1742092365.7331462
0.20875,-0.015,-0.0565,-0.000412,0.0022277501,-0.0015105,1742092365.747921
0.21125,-0.012,-0.05675,0.0003815,0.00030525,-0.0019685,1742092365.762124
0.21825,-0.0015,-0.0605,0.00064075,-0.00039675,-0.00198375,1742092365.777836
0.2225,0.00425,-0.06175,0.000824,-0.0010375,-0.00163275,1742092365.791266
0.23,0.0095,-0.0585,0.00108325,-0.0020599999,-0.000473,1742092365.805884
0.24525,0.0185,-0.04275,0.00074775,-0.00238025,6.1000002e-05,1742092365.820283
0.25175,0.01975,-0.036,-0.00109875,-0.0022125002,0.00071725,1742092365.834763
0.25125,0.014,-0.03425,-0.00148,-0.0016785001,0.00068675,1742092365.8492951
0.2465,0.0105,-0.0375,-0.0013427499,-0.0012207499,0.00035100002,1742092365.863748
0.245,0.00125,-0.04075,-0.0012207499,-0.0012055,0.000183,1742092365.8782861
0.24475,-0.00225,-0.041,-0.00067150005,-0.00149525,-0.00054925,1742092365.8929658
0.24975,-0.0025,-0.03625,-0.0005645,-0.00175475,-0.00062550005,1742092365.907705
0.2535,0.00225,-0.03175,-0.00131225,-0.00143425,0.00016775,1742092365.922194
0.24925,0.00925,-0.0295,-0.001953,-0.00083925005,0.00054925,1742092365.937942
0.24275,0.00425,-0.0325,-0.002365,-0.00024425,0.00054925,1742092365.951305
0.23725,-0.004,-0.0365,-0.00198375,0.000229,-0.00042725,1742092365.967547
0.2315,-0.0165,-0.0435,-0.0013275,0.00013725001,-0.0008545,1742092365.980354
0.22925,-0.01675,-0.04575,-0.0003205,-0.00061025,-0.0008545,1742092365.99529
0.2375,-0.01175,-0.0425,-0.00051875,-0.001068,-7.625e-05,1742092366.009957
0.24225,-0.00875,-0.04025,-0.0016632499,-0.000885,0.00213625,1742092366.0245771
0.2415,-0.006,-0.04475,-0.001953,-0.0003815,0.00270075,1742092366.039291
0.23675,-0.00775,-0.05125,-0.0013580001,0.00029,0.00276175,1742092366.05389
0.231,-0.0075,-0.0625,-0.00064075,0.000122000005,0.00238025,1742092366.068374
0.232,-0.00525,-0.06325,0.0005645,-0.000946,0.0013427499,1742092366.082863
0.241,-0.00675,-0.05675,0.00048825,-0.0014495,0.00149525,1742092366.09802
0.246,-0.00975,-0.0535,0.00010675,-0.00157175,0.002243,1742092366.111966
0.24875,-0.0115,-0.05175,0.0,-0.00068675,0.00384525,1742092366.127209
0.248,-0.00775,-0.055,0.0004425,-4.575e-05,0.0042725,1742092366.141216
0.2455,-0.00575,-0.058,0.00190725,0.00119025,0.0047302498,1742092366.155686
0.233,0.00325,-0.067,0.0028229998,0.001648,0.0045777503,1742092366.1699991
0.22175,0.014,-0.072,0.0021515,0.0005035,0.0042572496,1742092366.184324
0.22375,0.0265,-0.0735,0.00051875,-0.00112925,0.004547,1742092366.198654
0.23425,0.021,-0.06975,-0.001526,-0.0035704998,0.0051574996,1742092366.213357
0.2475,0.009,-0.05925,-0.0014495,-0.00372325,0.00531,1742092366.228102
0.24975,0.0085,-0.0555,-0.0011445,-0.003418,0.0055085,1742092366.242473
0.25025,0.0095,-0.05375,1.5250001e-05,-0.00245675,0.005066,1742092366.257909
0.24675,0.01925,-0.05925,0.000946,-0.002121,0.00399775,1742092366.271254
0.243,0.025,-0.0635,0.00112925,-0.002365,0.0025940002,1742092366.28578
0.24525,0.0255,-0.06325,-0.00045775,-0.00279225,0.0037537501,1742092366.3002508
0.2525,0.0205,-0.058,-0.00314325,-0.0028535,0.0070495,1742092366.3148391
0.26275,0.0155,-0.0535,-0.00320425,-0.00242625,0.0074920002,1742092366.329399
0.26225,0.0195,-0.058,-0.00184625,-0.00059500005,0.0063325,1742092366.343869
0.2465,0.0425,-0.07475,-0.00086975005,6.1000002e-05,0.0049742498,1742092366.358582
0.239,0.052,-0.07775,-0.0008545,-0.00090025004,0.0022277501,1742092366.373224
0.23175,0.041,-0.071,-0.0036315,-0.00204475,0.00352475,1742092366.3876438
0.2355,0.0245,-0.064,-0.00747675,-0.00276175,0.0072480002,1742092366.4023092
0.24025,0.0125,-0.05725,-0.009658749,-0.00238025,0.01257325,1742092366.417326
0.245,0.02525,-0.04175,-0.00744625,-0.002121,0.01142875,1742092366.431254
0.24575,0.03675,-0.03425,-0.0033570002,-0.002655,0.0057372497,1742092366.447031
0.2315,0.04,-0.0195,-0.00302125,-0.0033722501,0.0035704998,1742092366.460284
0.22225,0.0355,-0.00525,-0.0075835,-0.00567625,0.00585925,1742092366.474835
0.2345,0.0375,0.04925,-0.01092525,-0.00643925,0.00924675,1742092366.489291
0.2455,0.04625,0.08075,-0.011627249,-0.00614925,0.009262,1742092366.503613
0.24875,0.0595,0.14175,-0.009796251,-0.0062865,0.0052185003,1742092366.517969
0.25025,0.051,0.181,-0.008941749,-0.0072480002,0.00157175,1742092366.532367
0.255,0.033,0.2415,-0.0112915,-0.0099945,0.0023039998,1742092366.547963
0.2815,0.022,0.43875,-0.013549751,-0.010101249,0.00367725,1742092366.561159
0.28375,0.01725,0.52875,-0.015152001,-0.00585925,-0.00027475,1742092366.575797
0.254,-0.0495,0.60225,-0.01310725,-0.0016632499,-0.0033875,1742092366.590436
0.21825,-0.05925,0.60475,-0.0084379995,0.00912475,-0.0032655,1742092366.604964
0.1325,0.03125,0.5585,-0.009017999,0.01367175,-0.00108325,1742092366.619393
0.10725,0.06025,0.4715,-0.013626001,0.019989,-0.00535575,1742092366.633861
0.09025,-0.08625,0.0665,-0.013061499,0.024414,-0.013854999,1742092366.648551
0.0635,-0.2105,-0.23625,-0.0112,0.02876275,-0.02200325,1742092366.663274
0.0375,-0.26375,-0.51275,-0.00083925005,0.021606501,-0.020462,1742092366.677835
0.10025,-0.01225,-0.69925,0.00587475,0.00640875,-0.017654499,1742092366.6923661
0.20675,0.16175,-0.6485,0.011856,-0.02088925,-0.0301055,1742092366.707958
0.452,0.17225,-0.48125,0.010879501,-0.024047751,-0.036804248,1742092366.7215822
0.504,0.05725,-0.396,0.00801075,-0.010788,-0.02772525,1742092366.736085
0.462,-0.04325,-0.2225,0.008545,-0.001709,-0.01579275,1742092366.750874
0.40225,-0.00275,-0.1625,0.0090637505,0.00982675,0.00463875,1742092366.765276
0.2885,0.054,-0.12625,0.00738525,0.01260375,0.010024999,1742092366.779566
0.253,0.06975,-0.12475,0.0027160002,0.013733,0.01490775,1742092366.793816
0.215,0.07675,-0.102,0.00115975,0.01301575,0.0141755,1742092366.808486
0.19825,0.04975,-0.07725,0.00105275,0.011383001,0.00982675,1742092366.822737
0.18775,0.02575,-0.05525,0.0020752498,0.00531,-0.0021972498,1742092366.837696
0.184,-0.006,-0.03975,0.00169375,0.00251775,-0.0052185003,1742092366.8518112
0.18425,-0.0235,-0.047,0.001236,-0.00010675,-0.0054780003,1742092366.867827
0.18525,-0.02925,-0.068,0.00160225,-0.0008545,-0.0048979996,1742092366.8811069
0.19,-0.0195,-0.0725,0.00105275,-0.0025025,-0.0025634998,1742092366.895736
0.2085,-0.0055,-0.06225,0.0005645,-0.0031889998,-0.00175475,1742092366.910346
0.21825,-0.0025,-0.0555,-7.625e-05,-0.0042725,-0.00242625,1742092366.925066
0.241,0.00025,-0.04925,-0.00096125,-0.00453175,-0.00245675,1742092366.939753
0.25525,-0.001,-0.0475,-0.0021515,-0.0044707498,-0.001831,1742092366.954428
0.2575,-0.0015,-0.054,-0.0030975002,-0.0037385002,-0.00148,1742092366.969384
0.249,0.0005,-0.05925,-0.00305175,-0.0036162501,-0.00146475,1742092366.983969
0.24175,0.005,-0.06175,-0.003006,-0.0042267498,-0.0005645,1742092366.998519
0.24375,0.0175,-0.05225,-0.00343325,-0.00463875,-0.000229,1742092367.013055
0.24675,0.01625,-0.04475,-0.00517275,-0.00384525,0.00059500005,1742092367.027967
0.241,0.0025,-0.038,-0.0052642496,-0.00320425,0.00062550005,1742092367.042154
0.24175,-0.00125,-0.037,-0.00416575,-0.00352475,-0.00030525,1742092367.057933
0.25175,0.00725,-0.034,-0.0041044997,-0.0037385002,-0.0005035,1742092367.071539
0.2525,0.01375,-0.0345,-0.0049285004,-0.0030365,-0.00090025004,1742092367.087486
0.24275,0.01675,-0.042,-0.00514225,-0.0026092501,-0.00143425,1742092367.100939
0.239,0.01175,-0.0435,-0.0051269997,-0.0025787498,-0.002472,1742092367.1179662
0.24225,-0.01425,-0.03375,-0.0052337497,-0.0027465,-0.00213625,1742092367.130614
0.2465,-0.02475,-0.028,-0.00538625,-0.0026854998,0.000122000005,1742092367.145301
0.2525,-0.02125,-0.02425,-0.005005,-0.0024414998,0.001007,1742092367.159859
0.25425,-0.0095,-0.02575,-0.004547,-0.0020599999,0.00131225,1742092367.174586
0.2535,0.00025,-0.02775,-0.0044250004,-0.001068,0.00048825,1742092367.189461
0.2445,-0.0105,-0.0355,-0.0045165,-0.00064075,1.5250001e-05,1742092367.2040908
0.23925,-0.02375,-0.039,-0.0042725,-0.00039675,0.00059500005,1742092367.218709
0.233,-0.0385,-0.04125,-0.00369275,-0.00074775,0.0012970001,1742092367.233547
0.2325,-0.038,-0.04,-0.00231925,-0.0021057501,0.0026245,1742092367.248223
0.242,-0.0275,-0.03575,-0.00213625,-0.00254825,0.0036315,1742092367.262825
0.247,-0.01625,-0.03475,-0.0023345,-0.0017852499,0.0052642496,1742092367.278084
0.24,-0.0,-0.042,-0.002411,-0.00125125,0.0050355,1742092367.292157
0.238,-0.005,-0.0425,-0.0020752498,-0.00184625,0.0040435,1742092367.30778
0.243,-0.0195,-0.036,-0.0013580001,-0.002533,0.00352475,1742092367.321632
0.2455,-0.0185,-0.0355,-0.00035100002,-0.0029755002,0.00343325,1742092367.3379
0.24375,-0.00825,-0.0415,-0.00029,-0.0028229998,0.0037385002,1742092367.350975
0.24025,-0.005,-0.04425,-0.00042725,-0.002655,0.00419625,1742092367.365628
0.24025,-0.00525,-0.039,-0.00035100002,-0.0029449998,0.0041810004,1742092367.380338
0.243,-0.006,-0.03525,-0.0002135,-0.0033722501,0.0041810004,1742092367.395176
0.24575,-0.00175,-0.03225,0.000122000005,-0.00384525,0.004486,1742092367.4096751
0.24925,0.0015,-0.02925,0.00048825,-0.0040587503,0.004242,1742092367.424225
0.253,0.0045,-0.025,0.00108325,-0.0041044997,0.00279225,1742092367.438606
0.25725,0.003,-0.02,0.00086975005,-0.0037385002,0.0023345,1742092367.453087
0.25625,-0.0015,-0.0215,-0.00016775,-0.00216675,0.00331125,1742092367.467628
0.245,-0.00075,-0.033,-0.00062550005,-0.00146475,0.004547,1742092367.4822369
0.23775,0.00275,-0.03925,-0.00027475,-0.00169375,0.0054015,1742092367.4979851
0.231,0.0085,-0.045,0.0004425,-0.0029449998,0.0043944996,1742092367.511366
0.2375,0.01125,-0.03925,0.0016175,-0.00643925,0.0015565,1742092367.527105
0.262,0.013,-0.0195,0.0012207499,-0.007309,0.0012665,1742092367.540234
0.2695,0.01175,-0.01125,0.00010675,-0.0066985004,0.0022277501,1742092367.554568
0.26825,0.009,-0.00825,-0.00190725,-0.0038757501,0.00514225,1742092367.5690482
0.25125,0.00375,-0.01975,-0.002121,-0.0021972498,0.006012,1742092367.583553
0.2435,0.0095,-0.02425,-0.0012055,-6.1000002e-05,0.0051574996,1742092367.598071
0.23175,0.0255,-0.03275,-0.00074775,-0.0013427499,0.0034790002,1742092367.612534
0.23175,0.022,-0.02975,-0.0012055,-0.0051574996,0.00148,1742092367.6277828
0.24625,0.00325,-0.008,-0.001831,-0.0060577504,0.002243,1742092367.641678
0.25475,0.007,0.0025,-0.00402825,-0.0039825,0.0065917503,1742092367.657451
0.253,0.031,0.001,-0.004837,-0.00181575,0.0079345,1742092367.670891
0.23975,0.04225,-0.0075,-0.0046845004,-0.0001525,0.00712575,1742092367.68535
0.22425,0.05025,-0.015,-0.0034637498,-0.00109875,0.001587,1742092367.6999528
0.2135,0.04725,0.005,-0.00343325,-0.00328075,-0.0007325,1742092367.714545
0.22025,0.03975,0.035,-0.00466925,-0.007309,-0.0025787498,1742092367.7291598
0.22825,0.0365,0.11,-0.00541675,-0.008407501,-0.0026854998,1742092367.743763
0.2275,0.03525,0.16525,-0.0055237496,-0.01104725,-0.0045012496,1742092367.7583392
0.2295,0.02975,0.33525,-0.005249,-0.013183501,-0.0058287503,1742092367.772943
0.25025,0.02975,0.46075,-0.0058135,-0.0148772495,-0.00567625,1742092367.787552
0.32975,-0.0085,0.702,-0.004837,-0.011550999,-0.0068512503,1742092367.802064
0.3435,-0.041,0.745,-0.000885,0.0051574996,-0.00546275,1742092367.817533
0.245,-0.035,0.64775,-0.001114,0.01460275,-0.0001525,1742092367.831087
0.1805,-0.01875,0.5435,-0.00163275,0.019439751,0.0036315,1742092367.845712
0.13875,-0.0205,0.40825,0.0039825,0.01741025,-0.0025787498,1742092367.860288
0.12075,-0.11525,0.056,0.00924675,0.013382,-0.0123442495,1742092367.874799
0.13625,-0.13875,-0.15625,0.020691,0.00839225,-0.0266875,1742092367.8895419
0.2115,-0.082,-0.44575,0.022934001,0.00811775,-0.02525325,1742092367.904114
0.23825,-0.03075,-0.5145,0.02189625,0.0041504996,-0.01670825,1742092367.9185631
0.2905,0.10825,-0.52,0.021927001,0.00149525,-0.01542675,1742092367.933011
0.3165,0.14975,-0.4835,0.0178985,-0.0025634998,-0.014221249,1742092367.947843
0.318,0.146,-0.41275,0.01374825,-0.0012817499,-0.011123749,1742092367.962046
0.3035,0.1195,-0.36625,0.009948749,0.0012207499,-0.006546,1742092367.9772449
0.29775,0.11925,-0.2365,0.0059815003,0.002533,0.0032347501,1742092367.9908748
0.296,0.137,-0.17025,0.0044555003,0.0020599999,0.006546,1742092368.0052822
0.29175,0.139,-0.10325,0.00119025,0.00149525,0.0050965,1742092368.0195541
0.26325,0.0625,0.003,-0.0005645,0.0015565,0.001419,1742092368.033761
0.244,0.0065,0.0285,-0.0049742498,0.0027312501,-0.0025025,1742092368.0483708
0.2125,-0.06675,0.02825,-0.00614925,0.0037995,-0.001709,1742092368.063203
0.19975,-0.07925,0.0075,-0.0052795,0.0047302498,0.00062550005,1742092368.078201
0.18725,-0.0695,-0.04075,-0.003952,0.00384525,0.0010375,1742092368.0923479
0.18675,-0.053,-0.05725,-0.00245675,0.002243,0.000885,1742092368.107829
0.18775,-0.02125,-0.07075,-0.000534,-0.001007,6.1000002e-05,1742092368.121542
0.1895,-0.00825,-0.0715,-0.0004425,-0.0021057501,0.0002135,1742092368.137881
0.196,0.00075,-0.07,-0.00074775,-0.004486,0.0009155,1742092368.150979
0.2295,-0.0015,-0.05125,-0.00051875,-0.00590525,0.001068,1742092368.165621
0.25,-0.00125,-0.03675,0.0001525,-0.008026,0.00093075,1742092368.180237
0.284,0.0115,-0.004,-0.00013725001,-0.008133001,0.0012207499,1742092368.1947489
0.29275,0.01825,0.006,-0.0023039998,-0.0058287503,0.00305175,1742092368.2091498
0.28475,0.015,0.0035,-0.00325,-0.003952,0.0033264998,1742092368.223802
0.27175,0.0055,-0.008,-0.00289925,-0.0012207499,0.0020752498,1742092368.2384949
0.24875,-0.00675,-0.02925,-0.0019989999,-0.00090025004,0.001709,1742092368.253194
0.244,-0.001,-0.032,-0.000763,-0.001831,0.0015565,1742092368.267967
0.251,0.01,-0.01825,-0.00146475,-0.0020752498,0.00216675,1742092368.282641
0.25075,0.00875,-0.0125,-0.00279225,-0.0015105,0.0031585,1742092368.2980611
0.24625,0.0065,-0.01225,-0.0050965,0.00057975,0.0044250004,1742092368.3116832
0.232,0.00575,-0.02425,-0.00564575,0.0011445,0.0046845004,1742092368.3271449
0.224,0.00625,-0.02975,-0.00543225,0.00016775,0.00434875,1742092368.340666
0.2215,0.00225,-0.02475,-0.0052337497,-0.00099175,0.003662,1742092368.3553002
0.22825,-0.00275,-0.01575,-0.0057372497,-0.002777,0.00305175,1742092368.369889
0.2365,-0.0065,-0.00575,-0.00662225,-0.0028687501,0.00378425,1742092368.3844721
0.239,-0.0005,-0.00775,-0.00846875,-0.001831,0.0055085,1742092368.3991501
0.2345,0.0105,-0.02525,-0.00846875,-0.00143425,0.00505075,1742092368.413884
0.228,0.00825,-0.03325,-0.0072175004,-0.0020599999,0.0028074998,1742092368.428462
0.21925,-0.00625,-0.03225,-0.006668,-0.00296025,0.0023039998,1742092368.443097
0.2175,-0.01,-0.02575,-0.00643925,-0.0038757501,0.0025940002,1742092368.457632
0.2255,-0.01225,-0.009,-0.0070037497,-0.0053709997,0.0049895,1742092368.472356
0.234,-0.0085,0.00075,-0.0070495,-0.0057220003,0.0062712496,1742092368.487514
0.245,-0.0005,0.012,-0.0050355,-0.00567625,0.0059510004,1742092368.5015411
0.26225,0.01525,0.02825,-0.0033264998,-0.0054780003,0.0038605002,1742092368.5176399
0.262,0.018,0.02575,-0.00169375,-0.0051880004,-0.00061025,1742092368.53088
0.25975,0.00425,0.01775,-0.0021972498,-0.0048674997,-0.000946,1742092368.545439
0.25825,-0.00225,0.016,-0.0034484998,-0.0028687501,0.0013427499,1742092368.5600908
0.24875,-0.00575,0.007,-0.00320425,-0.00198375,0.0019989999,1742092368.5746508
0.24575,-0.00575,0.003,-0.00112925,-0.0022125002,0.001648,1742092368.589372
0.254,0.00375,0.00725,-0.0002135,-0.0028229998,0.00125125,1742092368.603965
0.26,0.0055,0.0145,0.0003205,-0.0033570002,0.0003815,1742092368.618379
0.2655,0.0055,0.02125,-0.00035100002,-0.00308225,0.000473,1742092368.6327722
0.265,0.0075,0.016,-0.00131225,-0.00225825,0.0012970001,1742092368.647321
0.263,0.00725,0.006,-0.0023497501,0.0005035,0.00317375,1742092368.66179
0.24975,-0.00525,-0.017,-0.001648,0.0012817499,0.0031889998,1742092368.677508
0.24675,-0.0125,-0.0195,0.00080875,0.0,0.0028229998,1742092368.69061
0.25175,0.0,-0.00675,0.00146475,-0.001236,0.00334175,1742092368.705058
0.25775,0.01825,0.001,0.000473,-0.00292975,0.00416575,1742092368.719452
0.27125,0.0165,0.01075,0.0,-0.0028229998,0.0037537501,1742092368.733721
0.269,0.0015,0.008,3.0500001e-05,-0.00201425,0.0033570002,1742092368.748182
0.26075,-0.0065,0.00125,0.0013275,0.000183,0.0031585,1742092368.762771
0.2405,0.009,-0.01325,0.00193775,0.000183,0.0027465,1742092368.7780201
0.23975,0.02075,-0.0145,0.001892,-0.002121,0.00137325,1742092368.7917209
0.247,0.0195,-0.004,0.00119025,-0.0031585,0.001007,1742092368.8074188
0.25075,0.01,0.002,-0.00096125,-0.00283825,0.00276175,1742092368.82067
0.242,0.01325,-0.005,-0.001068,-0.002655,0.00340275,1742092368.835383
0.238,0.028,-0.00975,0.00096125,-0.00267025,7.625e-05,1742092368.849867
0.24025,0.04125,-0.00025,0.0019989999,-0.004013,-0.0028687501,1742092368.8645241
0.24525,0.02825,0.01225,-0.00131225,-0.00369275,-0.00090025004,1742092368.879138
0.25075,0.00675,0.03375,-0.0045777503,-0.0005645,0.003891,1742092368.8936698
0.242,0.015,0.0325,-0.0068055,0.0013885,0.00811775,1742092368.908045
0.23,0.0335,0.02925,-0.0055847503,-0.00086975005,0.0079955,1742092368.9225469
0.2265,0.0685,0.05975,-0.003128,-0.0030365,0.00364675,1742092368.937854
0.23475,0.06475,0.09425,-0.001709,-0.00694275,-0.0037995,1742092368.951618
0.24675,0.02575,0.18,-0.00352475,-0.00798025,-0.0030669998,1742092368.9675698
0.24775,0.02025,0.242,-0.0068969997,-0.00985725,0.00083925005,1742092368.9807518
0.2495,0.0375,0.42725,-0.0076142503,-0.011383001,0.001068,1742092368.995216
0.2595,0.0405,0.56125,-0.0072175004,-0.013290499,-0.002472,1742092369.0099661
0.328,0.02775,0.79425,-0.0067597497,-0.0101165,-0.006302,1742092369.0247092
0.3105,0.01225,0.802,-0.00621025,-0.0029449998,-0.01004025,1742092369.0392709
0.147,0.01825,0.61325,-0.008407501,0.01596075,-0.0093385,1742092369.053646
0.072,-0.001,0.46775,-0.00845325,0.02241525,-0.0080872495,1742092369.0682209
0.024,-0.05,0.3015,0.00216675,0.02180475,-0.01741025,1742092369.0826728
0.1035,-0.10075,-0.0695,0.0087585,0.01667775,-0.024658252,1742092369.09818
0.17525,-0.07475,-0.2535,0.0157775,0.0138702495,-0.027557248,1742092369.112094
0.196,-0.037,-0.523,0.0144805005,0.0151825,-0.024826,1742092369.1274529
0.181,-0.02725,-0.58825,0.0172425,0.009842,-0.02275075,1742092369.141241
0.2305,0.06075,-0.569,0.0182495,0.00364675,-0.02034,1742092369.1557
0.27275,0.071,-0.496,0.01345825,-0.00027475,-0.009384249,1742092369.1702662
0.3235,0.0125,-0.33825,0.012909001,0.0012817499,-0.00408925,1742092369.1846359
0.3335,0.0275,-0.26825,0.013564999,0.0027312501,0.00071725,1742092369.198933
0.33875,0.07875,-0.20325,0.008224499,0.00494375,0.010009751,1742092369.213276
0.323,0.11475,-0.093,0.0033570002,0.0059510004,0.01148975,1742092369.227848
0.301,0.09475,-0.05375,-0.00296025,0.00331125,0.005844,1742092369.24218
0.2685,0.0125,0.029,-0.00384525,0.0013580001,0.00204475,1742092369.2579148
0.2415,-0.03375,0.04675,-0.00314325,0.0028074998,-0.0028229998,1742092369.271044
0.2,-0.084,0.0315,-0.00267025,0.0037995,-0.0035095,1742092369.287355
0.1905,-0.088,0.01175,0.000229,0.00251775,-0.00320425,1742092369.3002298
0.19575,-0.06625,-0.02575,0.00169375,0.00125125,-0.0021972498,1742092369.3148532
0.2085,-0.04475,-0.0325,0.0026854998,0.0001525,-0.00086975005,1742092369.329338
0.22175,-0.0205,-0.034,0.00320425,-0.001831,0.000183,1742092369.343953
0.245,0.00375,-0.0265,0.00254825,-0.00228875,0.00019825,1742092369.358571
0.252,0.0015,-0.02125,0.0016175,-0.0018615,0.0003205,1742092369.373158
0.26125,-0.00875,-0.01125,0.0017242499,-0.00131225,0.001114,1742092369.3880808
0.2615,-0.00675,-0.01,0.0012970001,-0.00019825,0.00408925,1742092369.40238
0.26825,-0.00175,-0.00625,0.00067150005,3.0500001e-05,0.00485225,1742092369.417889
0.2655,0.0015,-0.0085,0.0010375,-0.000229,0.0036010002,1742092369.431166
0.2535,0.01575,-0.018,0.001068,-0.00035100002,0.0027312501,1742092369.447361
0.2505,0.0155,-0.02,0.00077825,7.625e-05,0.0012970001,1742092369.460168
0.2485,-0.00225,-0.0165,0.0007935,0.000183,0.00096125,1742092369.4746292
0.24775,-0.00975,-0.01525,0.00064075,0.000122000005,0.0010375,1742092369.489175
0.24875,-0.01375,-0.01275,-4.575e-05,6.1000002e-05,0.0024872501,1742092369.5037582
0.2485,-0.012,-0.00475,-7.625e-05,0.00042725,0.0033722501,1742092369.5182772
0.2485,-0.00925,-0.00225,0.0004425,0.001007,0.0037537501,1742092369.532701
0.248,-0.00075,-0.00525,0.000763,0.00109875,0.00320425,1742092369.547555
0.24525,0.0045,-0.00875,0.00065625,0.0013580001,0.001709,1742092369.561883
0.23675,0.0045,-0.01525,0.000122000005,0.00131225,0.0012970001,1742092369.576292
0.23775,-0.00275,-0.01375,-0.0005645,0.0007325,0.00149525,1742092369.590743
0.24325,-0.01325,-0.01,-0.00016775,0.00062550005,0.00146475,1742092369.605529
0.2435,-0.01525,-0.01075,0.00065625,0.0007935,0.00115975,1742092369.620107
0.24225,-0.0145,-0.0125,0.0018615,0.00059500005,0.000183,1742092369.6346822
0.24625,-0.0115,-0.0105,0.001709,-0.000122000005,-0.00010675,1742092369.6492329
0.25025,-0.012,-0.009,0.001236,-0.001236,-0.00019825,1742092369.6639202
0.2455,-0.0165,-0.013,0.0012055,-0.00115975,-6.1000002e-05,1742092369.67854
0.2405,-0.01975,-0.0165,0.00163275,-0.00068675,0.00074775,1742092369.693067
0.2345,-0.0075,-0.01625,0.00190725,-0.00093075,0.00119025,1742092369.7075799
0.241,-0.00125,-0.0095,0.00086975005,-0.002243,0.001831,1742092369.721919
0.2595,-0.0085,0.00575,9.15e-05,-0.00225825,0.0023497501,1742092369.7376618
0.2625,-0.01125,0.00625,-0.0003815,-0.00108325,0.0024872501,1742092369.751193
0.258,-0.01475,-0.00525,0.0002135,-0.000473,0.0018615,1742092369.767134
0.2515,-0.01325,-0.01275,0.0013885,-0.00010675,0.00086975005,1742092369.780562
0.246,-0.009,-0.01875,0.00279225,-0.000763,-0.00048825,1742092369.795152
0.24575,-0.00775,-0.01775,0.00216675,-0.0012207499,0.00024425,1742092369.809815
0.24675,-0.0065,-0.015,0.0011445,-0.00187675,0.0016175,1742092369.824528
0.2515,-0.006,-0.011,0.0012970001,-0.00213625,0.001587,1742092369.839154
0.2515,-0.00625,-0.0115,0.001953,-0.0016175,0.00109875,1742092369.8539379
0.245,0.003,-0.021,0.00238025,-0.00125125,0.0005645,1742092369.8683178
0.2395,0.01125,-0.025,0.0021515,-0.001648,-0.00048825,1742092369.882796
0.23925,0.0045,-0.0195,0.00071725,-0.001892,0.00045775,1742092369.8979409
0.2395,-0.00475,-0.016,-0.001114,-0.0014495,0.0027465,1742092369.9118872
0.23,-0.01575,-0.01975,-0.00057975,-0.001648,0.00263975,1742092369.927218
0.2275,-0.015,-0.02275,0.0004425,-0.002472,0.0020752498,1742092369.9414232
0.235,-0.007,-0.019,0.00216675,-0.00505075,0.001236,1742092369.957495
0.24125,-0.00975,-0.01025,0.0021819999,-0.0056609996,0.001892,1742092369.9705741
0.2455,-0.01625,-0.0015,0.0013580001,-0.00378425,0.0049895,1742092369.985155
0.2325,-0.00925,-0.002,0.00102225,-0.0019225,0.0064545004,1742092369.9997299
0.21875,0.0035,-0.01175,-0.00039675,-0.000183,0.0075682504,1742092370.014355
0.21225,0.00375,-0.02825,-0.0004425,-0.001068,0.00668325,1742092370.028983
0.2155,-0.0015,-0.02925,0.0033570002,-0.00531,0.001831,1742092370.043442
0.234,0.00425,-0.00575,0.0048217503,-0.0075682504,0.0002135,1742092370.057878
0.2465,0.01525,0.0115,0.00267025,-0.00924675,0.0014495,1742092370.072269
0.2715,0.0265,0.0285,0.00035100002,-0.00823975,0.0027465,1742092370.08761
0.27275,0.01925,0.02275,-0.001007,-0.00621025,0.00325,1742092370.101163
0.2635,0.01225,0.012,6.1000002e-05,-0.002655,0.00115975,1742092370.115535
0.24125,0.00425,-0.00775,0.001648,-0.0028229998,-0.000534,1742092370.1302521
0.2385,0.00125,-0.0095,0.0034637498,-0.0051574996,-0.001068,1742092370.1449459
0.24575,0.00775,0.0065,0.00231925,-0.006073,0.001419,1742092370.159349
0.25575,0.017,0.02175,-0.0042115003,-0.0049590003,0.009552,1742092370.1739671
0.274,0.01725,0.0325,-0.00611875,-0.00279225,0.0115815,1742092370.1884842
0.2685,0.014,0.023,-0.0033722501,0.00068675,0.008270251,1742092370.202852
0.24925,0.02625,0.0065,-0.001419,0.00070200005,0.0056609996,1742092370.2176158
0.24275,0.03525,0.00975,-0.0005035,-0.0003815,0.0039825,1742092370.2318652
0.24275,0.03575,0.04625,-0.0022277501,-0.0030975002,0.004486,1742092370.247396
0.2525,0.0265,0.07925,-0.00372325,-0.0033570002,0.006012,1742092370.260909
0.261,0.0205,0.11575,-0.0027312501,-0.00083925005,0.0056,1742092370.2754219
0.24575,0.04475,0.193,-0.0012817499,0.00036625,0.004013,1742092370.2898402
0.24175,0.049,0.266,-0.0012207499,-0.00340275,0.005783,1742092370.304508
0.29575,-0.02525,0.56925,-0.001587,-0.007553,0.0072937496,1742092370.319029
0.35075,-0.0715,0.7395,-0.0026854998,-0.0070342496,0.00640875,1742092370.333636
0.3745,-0.07375,0.77225,-0.001419,0.0028229998,0.004547,1742092370.348248
0.25875,-0.01825,0.669,0.00334175,0.024688749,0.00175475,1742092370.3627331
0.06525,0.039,0.48175,0.00384525,0.027862499,-0.00112925,1742092370.378054
0.04525,-0.002,0.381,0.0052795,0.026672252,-0.00617975,1742092370.3915431
0.05125,-0.054,0.24775,0.00985725,0.02525325,-0.01567075,1742092370.407418
0.08125,-0.03975,-0.1545,0.01020825,0.0263825,-0.01805125,1742092370.42056
0.12275,0.0075,-0.36325,0.0094604995,0.024383498,-0.022369498,1742092370.434892
0.21225,0.086,-0.6125,0.00846875,0.0215455,-0.02297975,1742092370.4493692
0.24725,0.11175,-0.63875,0.008651749,0.01104725,-0.0203095,1742092370.464152
0.3235,0.181,-0.54725,0.0075225,0.005783,-0.018035999,1742092370.478732
0.3365,0.1555,-0.46725,0.0021515,0.00708,-0.01326,1742092370.493275
0.27025,-0.00775,-0.3105,0.0016785001,0.0115815,-0.00947575,1742092370.50772
0.23925,-0.055,-0.24475,0.003128,0.0144805005,-0.0037537501,1742092370.522271
0.2305,-0.05025,-0.1865,0.0054015,0.01251225,0.010559,1742092370.538095
0.22925,0.0365,-0.11225,0.0036315,0.0097045,0.015579251,1742092370.5512478
0.22425,0.0635,-0.08425,0.00175475,0.00466925,0.013183501,1742092370.565621
0.209,0.05275,-0.0365,0.0032655,0.0027465,0.00671375,1742092370.580117
0.20125,0.0365,-0.025,0.0049590003,0.000183,-0.0033722501,1742092370.5945458
0.2105,0.01225,-0.0175,0.00381475,-0.00080875,-0.0045012496,1742092370.609146
0.21675,0.00675,-0.02125,0.0018005001,-0.00090025004,-0.0030365,1742092370.623693
0.216,-0.00175,-0.04425,0.001831,-0.00074775,-0.0031889998,1742092370.638261
0.21375,-0.01225,-0.05125,0.0024414998,-0.0012207499,-0.00453175,1742092370.652843
0.212,-0.019,-0.04525,0.00411975,-0.0032347501,-0.0073395,1742092370.6674979
0.22175,-0.01375,-0.03525,0.00411975,-0.0039825,-0.007187,1742092370.682038
0.2335,-0.00925,-0.02875,0.002121,-0.00367725,-0.00378425,1742092370.698066
0.24025,-0.00175,-0.03975,0.0008545,-0.00314325,-0.0016175,1742092370.711454
0.23975,0.00125,-0.0505,-0.00024425,-0.00305175,0.001236,1742092370.7271879
0.23675,0.00875,-0.06575,0.00029,-0.0034637498,0.00157175,1742092370.7408562
0.23775,0.01625,-0.06475,0.0019225,-0.0050355,0.00146475,1742092370.755334
0.2565,0.028,-0.03825,0.0022735,-0.0059205,0.0016785001,1742092370.769901
0.267,0.032,-0.0235,0.0011445,-0.0052642496,0.000412,1742092370.784466
0.2685,0.02725,-0.01625,-0.000122000005,-0.0037537501,-0.00035100002,1742092370.7990232
0.25925,0.0185,-0.0255,-0.0020752498,-0.00090025004,-6.1000002e-05,1742092370.813847
0.24,0.00375,-0.044,-0.0023039998,-0.00019825,0.00048825,1742092370.828464
0.23525,-0.0015,-0.046,-0.0020295,-0.0003205,0.00064075,1742092370.8429718
0.2355,-0.0075,-0.04275,-0.00030525,-0.0023497501,6.1000002e-05,1742092370.8577979
0.2465,-0.0085,-0.02475,0.00067150005,-0.00305175,7.625e-05,1742092370.872125
0.24975,0.00225,-0.01475,0.0002135,-0.00245675,0.0010375,1742092370.8875399
0.24325,0.007,-0.01475,-0.001175,-0.0010375,0.00204475,1742092370.901511
0.23275,-0.0015,-0.0265,-0.00181575,0.0013427499,0.0031889998,1742092370.917676
0.21525,-0.00675,-0.0515,-0.000763,0.000885,0.0028229998,1742092370.930601
0.2125,-0.00475,-0.055,0.0024414998,-0.002121,0.00169375,1742092370.945107
0.22025,-0.006,-0.0435,0.00408925,-0.00378425,0.00115975,1742092370.959711
0.22925,-0.0075,-0.03325,0.0061035,-0.005539,0.0016175,1742092370.974251
0.2495,-0.003,-0.01625,0.00590525,-0.0050202496,0.003296,1742092370.9887412
0.2565,0.0055,-0.01025,0.0048979996,-0.00369275,0.00543225,1742092371.003349
0.2565,0.02,-0.00825,0.0020295,-0.0013427499,0.006775,1742092371.017973
0.24625,0.04275,-0.02025,0.00061025,-0.0014495,0.004776,1742092371.032114
0.24275,0.03675,-0.02625,-0.00019825,-0.00355525,-0.00105275,1742092371.047362
0.24025,0.006,-0.03125,1.5250001e-05,-0.0047150003,-0.00276175,1742092371.0613708
0.24,-0.0065,-0.031,-0.0005035,-0.0059205,-0.0012207499,1742092371.077556
0.2465,-0.01125,-0.025,-0.00105275,-0.00590525,0.001114,1742092371.090702
0.2525,-0.006,-0.02025,-0.0007935,-0.005066,0.0037995,1742092371.10523
0.256,0.00425,-0.01525,0.000183,-0.0044707498,0.00320425,1742092371.119597
0.24975,0.0075,-0.0185,0.0023345,-0.00367725,0.00010675,1742092371.134031
0.23725,0.00725,-0.0275,0.0026245,-0.003891,-0.0007935,1742092371.148562
0.2405,0.00975,-0.02875,0.0021819999,-0.00463875,-0.0009765,1742092371.163096
0.25025,0.013,-0.02725,-0.0002135,-0.0060577504,0.000473,1742092371.178206
0.2645,0.0165,-0.02175,-0.0013885,-0.0058899997,0.001648,1742092371.19204
0.264,0.01825,-0.022,-0.002533,-0.004486,0.002411,1742092371.207424
0.25475,0.01875,-0.02475,-0.00242625,-0.003891,0.00193775,1742092371.22103
0.2545,0.01775,-0.023,-0.00067150005,-0.00331125,3.0500001e-05,1742092371.235635
0.256,0.017,-0.01825,0.000473,-0.0034484998,-0.00146475,1742092371.250011
0.25525,0.0155,-0.0165,0.000534,-0.0044707498,-0.0030975002,1742092371.264587
0.2575,0.0085,-0.01175,-0.00083925005,-0.005005,-0.00204475,1742092371.279089
0.25875,0.004,-0.00875,-0.0027312501,-0.00491325,0.0002135,1742092371.293638
0.25825,0.001,-0.006,-0.0044555003,-0.0046234997,0.0032347501,1742092371.308043
0.25725,0.00225,-0.001,-0.00305175,-0.0055085,0.00228875,1742092371.3225741
0.26425,0.0075,0.00775,0.0005645,-0.005066,-0.00204475,1742092371.338062
0.26925,0.0185,0.017,0.0012665,-0.00466925,-0.00367725,1742092371.351251
0.26675,0.0145,0.016,-0.0027465,-0.0012970001,-0.00030525,1742092371.36763
0.26075,-0.00375,0.02025,-0.0060882503,0.0018615,0.0045777503,1742092371.380234
0.25525,-0.007,0.02425,-0.00741575,0.0036010002,0.0112915,1742092371.394656
0.23675,0.00375,0.02225,-0.0050812503,0.00198375,0.010681249,1742092371.409048
0.22675,0.01575,0.026,-0.002243,0.00083925005,0.00845325,1742092371.423543
0.22175,0.027,0.043,0.0005035,-0.00016775,0.00440975,1742092371.438171
0.22275,0.04875,0.1045,-0.0005645,-0.001068,0.0034790002,1742092371.4524748
0.2295,0.053,0.1455,-0.0064850003,-0.0039825,0.004013,1742092371.467673
0.2515,0.032,0.281,-0.008255,-0.0052642496,0.0044707498,1742092371.481369
0.25475,0.0165,0.39025,-0.00511175,-0.0079955,0.0033570002,1742092371.495879
0.29125,-0.05425,0.6915,-0.00251775,-0.00991825,0.00302125,1742092371.5103512
0.3435,-0.098,0.807,-0.00099175,-0.00947575,0.0036315,1742092371.524931
0.302,-0.07325,0.763,-0.0009155,0.0076905,0.008865249,1742092371.539403
0.206,-0.0165,0.64475,-0.004013,0.01956175,0.01289375,1742092371.553976
0.11625,0.03575,0.4925,-0.01077275,0.03221125,0.0067445002,1742092371.5684228
0.05325,-0.002,0.092,-0.01127625,0.033203,-0.0072937496,1742092371.5828962
0.073,-0.108,-0.1465,-0.000412,0.030304002,-0.038208,1742092371.598163
0.11775,-0.193,-0.59975,0.0060272496,0.02923575,-0.04129025,1742092371.612237
0.1445,-0.10875,-0.7305,0.0056304997,0.01782225,-0.0209655,1742092371.627639
0.26525,0.16225,-0.6525,0.0056,0.008148249,-0.014800999,1742092371.6411252
0.3375,0.2155,-0.53425,0.009552,-0.0034790002,-0.0211335,1742092371.65562
0.33775,0.0855,-0.36425,0.00852975,-0.0009155,-0.01841725,1742092371.670219
0.295,0.0155,-0.3,0.007782,0.00440975,-0.0101775,1742092371.684723
0.255,0.00075,-0.2495,0.01095575,0.0090485,0.0046234997,1742092371.699027
0.2005,0.07325,-0.1755,0.0102235,0.00798025,0.010238751,1742092371.713635
0.18125,0.10875,-0.14475,0.00372325,0.0024872501,0.016113251,1742092371.728271
0.193,0.1125,-0.05425,0.001236,-0.001007,0.01408375,1742092371.742799
0.20775,0.08175,-0.01325,0.001175,-0.0040435,0.002365,1742092371.7578838
0.21825,0.00375,0.01075,0.00157175,-0.00378425,-0.0022125002,1742092371.771827
0.2265,-0.02575,0.013,0.000763,-0.001953,-0.0045777503,1742092371.787812
0.231,-0.04425,0.00025,0.00115975,-0.0015565,-0.00505075,1742092371.801048
0.224,-0.041,-0.017,0.002411,-0.0015105,-0.00564575,1742092371.8156002
0.21225,-0.02375,-0.041,0.0041044997,-0.00177,-0.00514225,1742092371.830406
0.211,-0.01,-0.044,0.0038299998,-0.0026245,-0.00428775,1742092371.845141
0.216,-0.00275,-0.043,0.0023345,-0.0043335,-0.002777,1742092371.859686
0.2335,-0.00575,-0.041,0.00175475,-0.00437925,-0.00204475,1742092371.874316
0.24225,-0.00725,-0.04125,0.0017395001,-0.004303,-0.001068,1742092371.88905
0.2535,-0.0055,-0.0415,0.0022277501,-0.0043182503,-0.00083925005,1742092371.9039412
0.255,0.0005,-0.04,0.0027160002,-0.00419625,-0.0002595,1742092371.9185548
0.25675,0.01975,-0.0295,0.0020295,-0.00419625,0.00030525,1742092371.9329011
0.25725,0.02425,-0.02525,0.00070200005,-0.004074,0.000412,1742092371.947677
0.2555,0.0235,-0.023,0.00067150005,-0.00396725,-0.00029,1742092371.962025
0.25125,0.0185,-0.0255,0.001007,-0.00358575,-0.0013580001,1742092371.977473
0.2475,0.004,-0.0245,0.0012207499,-0.00334175,-0.00169375,1742092371.991107
0.24875,-0.002,-0.02075,0.0013427499,-0.00308225,-0.0020905002,1742092372.0057049
0.24825,-0.0065,-0.01925,0.0012665,-0.00231925,-0.002365,1742092372.0203378
0.24125,-0.0025,-0.02225,0.001175,-0.00198375,-0.0020752498,1742092372.035021
0.23675,0.005,-0.0255,0.00019825,-0.00177,-0.0009765,1742092372.0494878
0.22925,0.01825,-0.0335,-0.00033575002,-0.00201425,-0.00070200005,1742092372.064328
0.22875,0.02075,-0.0375,-0.00149525,-0.0028535,-0.00125125,1742092372.078915
0.232,0.00675,-0.04325,-0.00169375,-0.0033264998,-0.00193775,1742092372.0935428
0.23475,-0.003,-0.044,-0.0012055,-0.004593,-0.00317375,1742092372.108277
0.24225,-0.014,-0.039,-0.001236,-0.0051269997,-0.00270075,1742092372.123126
0.24625,-0.01325,-0.0345,-0.0020752498,-0.0050965,9.15e-05,1742092372.1382139
0.25075,-0.002,-0.03025,-0.00238025,-0.00463875,0.0010375,1742092372.152284
0.253,0.001,-0.02975,-0.0020905002,-0.0042725,0.00030525,1742092372.168137
0.2595,-0.00775,-0.02775,-0.0016632499,-0.0043944996,-0.00042725,1742092372.18191
0.26175,-0.0145,-0.02675,-0.0012970001,-0.00463875,-0.00070200005,1742092372.197749
0.26225,-0.01775,-0.0215,-0.00057975,-0.004837,-0.000534,1742092372.211364
0.2605,-0.01225,-0.01975,-0.00013725001,-0.00460825,-0.00059500005,1742092372.2260952
0.2575,-0.0045,-0.02,-9.15e-05,-0.00343325,-0.00074775,1742092372.240799
0.25125,-0.003,-0.02675,-0.00036625,-0.0028687501,-0.0008545,1742092372.2555661
0.24775,-0.01125,-0.0315,-0.0001525,-0.00276175,-0.001007,1742092372.270314
0.254,-0.01175,-0.0275,0.000183,-0.0032347501,-0.000824,1742092372.285019
0.2655,-0.0035,-0.01625,-0.00029,-0.00352475,0.00045775,1742092372.299834
0.2815,0.00425,0.00325,-0.001419,-0.0026092501,0.0016785001,1742092372.314314
0.2795,0.00125,0.00175,-0.0033875,0.00077825,0.0042267498,1742092372.328722
0.2625,-0.0025,-0.0215,-0.0030669998,0.00225825,0.0042572496,1742092372.343322
0.25275,0.0015,-0.03675,-0.0005035,0.0028229998,0.0013427499,1742092372.3579142
0.249,0.0165,-0.0455,0.00086975005,0.00143425,-0.000885,1742092372.372427
0.25425,0.0155,-0.03375,0.0017242499,-0.00090025004,-0.0029907501,1742092372.3879402
0.26825,-0.01275,-0.00675,-0.00029,-0.00364675,-0.002243,1742092372.40157
0.26875,-0.021,-0.0055,-0.0026245,-0.0026092501,0.0014495,1742092372.417568
0.26475,-0.0195,-0.011,-0.00585925,0.001526,0.008773751,1742092372.430711
0.25475,-0.004,-0.021,-0.0056,0.0027312501,0.00947575,1742092372.445338
0.2545,0.0005,-0.0145,-0.002243,0.00042725,0.00384525,1742092372.459848
0.23725,-0.00225,-0.013,-0.000534,-0.00146475,0.00035100002,1742092372.474485
0.22975,-0.00575,-0.013,-0.0035095,0.00105275,0.00305175,1742092372.488943
0.23725,-0.01525,0.0065,-0.0072175004,0.0029145,0.009506251,1742092372.503351
0.24525,-0.01125,0.018,-0.0085755,0.0025634998,0.01617425,1742092372.51795
0.2495,0.018,0.02925,-0.0064545004,0.0016785001,0.01361075,1742092372.5323431
0.244,0.0275,0.029,-0.004486,0.0013427499,0.0095672505,1742092372.547957
0.23625,0.028,0.0295,-0.0028229998,0.0015565,0.0040587503,1742092372.561059
0.2305,0.0155,0.05075,-0.002472,0.0012055,0.0031585,1742092372.575744
0.23475,0.013,0.0745,-0.0036315,-6.1000002e-05,0.00428775,1742092372.590239
0.2565,0.0185,0.14075,-0.00570675,-0.0002135,0.006012,1742092372.60461
0.27325,0.016,0.1895,-0.00817875,0.00024425,0.0063325,1742092372.6190422
0.3105,-0.01175,0.3475,-0.00767525,1.5250001e-05,0.005066,1742092372.633494
0.32875,-0.037,0.47075,-0.004776,-0.00045775,0.00535575,1742092372.648028
0.3695,-0.09875,0.71325,-0.00369275,0.000824,0.0059967497,1742092372.6626828
0.37175,-0.135,0.7555,-0.0032195,0.0055847503,0.0073242504,1742092372.677537
0.322,-0.1575,0.73125,-0.0025787498,0.02345275,0.012756251,1742092372.6918359
0.159,-0.1005,0.5695,-0.0022735,0.02964775,0.013641249,1742092372.7072692
0.0955,-0.04725,0.42875,-0.00289925,0.033508252,0.007187,1742092372.720622
0.0055,-0.0395,0.017,-0.00378425,0.03306575,-0.00059500005,1742092372.735121
0.00425,-0.074,-0.22725,0.0014495,0.02807625,-0.0213775,1742092372.749623
0.01175,-0.02225,-0.72225,0.0049895,0.023650998,-0.0273895,1742092372.7643468
0.034,0.052,-0.869,0.01004025,0.00381475,-0.02967825,1742092372.778851
0.14725,0.22475,-0.76975,0.013916001,-0.008316,-0.03230275,1742092372.793325
0.23925,0.26,-0.59975,0.015564,-0.017105,-0.03408825,1742092372.8078341
0.33,0.151,-0.3565,0.0100555,-0.0151825,-0.024643,1742092372.8222988
0.3275,0.08325,-0.30075,0.0067445002,-0.008224499,-0.01345825,1742092372.838382
0.3235,0.0465,-0.25475,0.0033875,-0.000122000005,0.0129395,1742092372.8513138
0.34175,0.02875,-0.116,0.00419625,-0.0012817499,0.0194855,1742092372.865819
0.34725,0.0285,-0.03875,0.0075072497,-0.00463875,0.015854,1742092372.880386
0.32725,0.02925,0.04375,0.0075377496,-0.0028229998,0.0111085,1742092372.894613
0.295,0.02425,0.0435,0.004593,0.0053709997,0.003952,1742092372.9087942
0.21525,-0.0165,-0.00225,0.00378425,0.0080567505,0.0013885,1742092372.923192
0.18175,-0.03725,-0.03375,0.0038757501,0.009002751,-0.001587,1742092372.938547
0.159,-0.0395,-0.0645,0.00531,0.0052795,-0.0068512503,1742092372.9521039
0.14125,-0.00825,-0.0965,0.0062712496,0.0021057501,-0.00833125,1742092372.967835
0.14525,0.0065,-0.09725,0.006836,-0.00444025,-0.00773625,1742092372.981112
0.178,0.004,-0.07425,0.006073,-0.0070952503,-0.005539,1742092372.99559
0.201,0.005,-0.0555,0.00437925,-0.009796251,-0.00201425,1742092373.010096
0.2495,0.01975,-0.029,0.003891,-0.00975025,-0.00190725,1742092373.0246
0.2605,0.0155,-0.02675,0.0041044997,-0.0072937496,-0.00181575,1742092373.039124
0.26025,0.0175,-0.02625,0.0043182503,-0.00593575,-0.000946,1742092373.053615
0.2595,0.02425,-0.029,0.0034942501,-0.0050812503,0.00062550005,1742092373.0680199
0.2575,0.02425,-0.03425,0.00070200005,-0.003418,0.0029145,1742092373.0823848
0.2415,0.018,-0.0535,0.00030525,-0.00292975,0.0025787498,1742092373.098387
0.24625,0.01875,-0.053,-0.00010675,-0.0032655,0.0023497501,1742092373.111348
0.256,0.02025,-0.04325,4.575e-05,-0.0036162501,0.0023497501,1742092373.127302
0.25575,0.02,-0.03875,0.00064075,-0.0034790002,0.001587,1742092373.140262
0.25375,0.0185,-0.03175,0.00035100002,-0.0026092501,0.0012817499,1742092373.1547918
0.2485,0.01275,-0.03175,-0.000824,-0.0010375,0.00083925005,1742092373.1695209
0.2435,0.00975,-0.031,-0.00137325,-0.0013275,0.00070200005,1742092373.1840441
0.2485,0.01,-0.028,-0.0021057501,-0.0019225,0.00109875,1742092373.198477
0.25,0.00875,-0.02625,-0.0025634998,-0.0021972498,0.001709,1742092373.212956
0.2375,0.00625,-0.0335,-0.0017242499,-0.002411,0.0007935,1742092373.227482
0.23175,0.008,-0.0385,0.00042725,-0.00416575,-0.00198375,1742092373.242023
0.24025,0.014,-0.03375,0.00051875,-0.0050812503,-0.0025025,1742092373.257808
0.2475,0.014,-0.026,-0.002655,-0.0039825,0.001114,1742092373.271148
0.25475,0.0105,-0.01725,-0.00411975,-0.0026854998,0.0032347501,1742092373.2856262
0.25475,0.0065,-0.0175,-0.00317375,-0.0022125002,0.0024872501,1742092373.300107
0.25175,-0.00225,-0.02325,-0.00149525,-0.0030365,0.00048825,1742092373.3148348
0.24975,-0.0005,-0.02775,0.00169375,-0.0047455,-0.00254825,1742092373.329419
0.25325,0.004,-0.02925,0.0025634998,-0.005249,-0.0032195,1742092373.343913
0.2545,0.003,-0.0275,0.00228875,-0.0052795,-0.00245675,1742092373.3584
0.256,0.00325,-0.02625,-0.00099175,-0.00314325,0.002777,1742092373.37302
0.2525,0.0095,-0.02775,-0.0019989999,-0.001709,0.0044250004,1742092373.3878772
0.2475,0.0125,-0.032,-0.001068,-0.00108325,0.0034942501,1742092373.4019132
0.238,0.026,-0.0415,-4.575e-05,-0.0018005001,0.002121,1742092373.4176471
0.23625,0.034,-0.0425,0.00105275,-0.00369275,-0.0012207499,1742092373.431253
0.24175,0.02025,-0.03075,0.00029,-0.004303,-0.00177,1742092373.445714
0.24525,0.00725,-0.02475,-0.00231925,-0.003662,0.0020599999,1742092373.460334
0.24475,0.0055,-0.01975,-0.00292975,-0.0028229998,0.0043639997,1742092373.475019
0.242,0.0145,-0.022,-0.0035704998,-0.0021515,0.006073,1742092373.489701
0.23775,0.021,-0.028,-0.0034637498,-0.0024872501,0.0051574996,1742092373.504231
0.23375,0.02,-0.0305,-0.0025940002,-0.00334175,0.003006,1742092373.518691
0.231,0.0195,-0.03075,-0.00029,-0.0068055,-0.0020295,1742092373.5333061
0.2415,0.01475,-0.01575,-0.00035100002,-0.0085602505,-0.00279225,1742092373.548131
0.247,0.01075,-0.00575,-0.00381475,-0.008590749,0.0017242499,1742092373.5628428
0.25375,0.01475,0.013,-0.0052642496,-0.0070647504,0.004486,1742092373.5781639
0.2585,0.01925,0.019,-0.00399775,-0.00396725,0.0034637498,1742092373.591938
0.25525,0.014,0.017,-0.0028535,-0.00292975,0.000885,1742092373.607597
0.24675,0.0015,0.011,-0.0046845004,-0.0025025,0.001892,1742092373.620864
0.23375,-0.0055,-0.00225,-0.0060425,-0.0023497501,0.0049895,1742092373.6353762
0.228,0.00625,-0.008,-0.00621025,-0.0021057501,0.0071105,1742092373.650008
0.221,0.0325,-0.00975,-0.0050202496,-0.0027160002,0.00708,1742092373.664547
0.23125,0.03525,0.0045,-0.00466925,-0.0036315,0.006012,1742092373.6790159
0.2465,0.0335,0.02225,-0.0037079998,-0.0050202496,0.002533,1742092373.693621
0.2595,0.0275,0.03525,-0.00358575,-0.0046539996,0.00102225,1742092373.708121
0.253,0.017,0.0295,-0.0057372497,-0.0023039998,0.00267025,1742092373.7226272
0.232,0.0,0.0195,-0.006546,-0.00105275,0.0052185003,1742092373.737783
0.223,0.00525,0.0175,-0.0046234997,-0.00096125,0.0069274995,1742092373.751638
0.22025,0.03825,0.03525,-0.0032347501,-0.00228875,0.0055695,1742092373.767657
0.22875,0.04925,0.05775,-0.0028535,-0.00520325,0.0007325,1742092373.7805078
0.25,0.03075,0.106,-0.0042725,-0.0058287503,-0.0007935,1742092373.795062
0.25975,0.01225,0.13175,-0.00587475,-0.00543225,-0.00086975005,1742092373.809597
0.26725,0.0035,0.16625,-0.0058899997,-0.0022277501,-3.0500001e-05,1742092373.824312
0.2605,0.00775,0.268,-0.0045012496,-0.00102225,0.00013725001,1742092373.838816
0.27175,-0.003,0.35525,-0.002472,-0.00160225,0.0022735,1742092373.853316
0.3255,-0.07225,0.55525,-0.00177,-0.0007325,0.00419625,1742092373.868154
0.33,-0.10825,0.61775,0.0017852499,0.00868225,0.0080872495,1742092373.882359
0.27825,-0.1005,0.641,0.00408925,0.014328,0.0086975,1742092373.8980658
0.2315,-0.06775,0.6075,0.00720225,0.022033751,0.0037385002,1742092373.911008
0.15825,-0.031,0.413,0.0076905,0.0247345,-0.00105275,1742092373.925521
0.1275,-0.05025,0.22875,0.0061339997,0.02699275,-0.00585925,1742092373.940047
0.109,-0.072,0.00625,0.004303,0.03158575,-0.014510999,1742092373.9545002
0.1265,0.011,-0.4405,0.0064545004,0.032959,-0.0183715,1742092373.969024
0.14975,0.074,-0.6075,0.0103455,0.0245515,-0.02519225,1742092373.983398
0.1535,0.1985,-0.74575,0.01222225,0.017608749,-0.0274505,1742092373.998104
0.13175,0.283,-0.72625,0.007553,0.0044555003,-0.02139275,1742092374.0121841
0.17425,0.276,-0.568,0.0042572496,-0.00054925,-0.017501751,1742092374.0275478
0.21225,0.182,-0.46175,0.00596625,-0.0076295,-0.014160249,1742092374.041108
0.2665,0.02225,-0.25425,0.0070342496,-0.00991825,-0.0073395,1742092374.05559
0.2955,-0.00325,-0.14425,0.00567625,-0.011321999,0.003891,1742092374.070039
0.3325,0.0,-0.0375,0.00099175,-0.0077210004,0.02186575,1742092374.084434
0.36575,0.02225,0.077,0.00093075,-0.0030365,0.021606501,1742092374.098706
0.3455,0.024,0.0735,0.00184625,0.0050355,0.01324475,1742092374.113132
0.26475,0.0115,0.01475,0.002243,0.0072175004,0.008545,1742092374.127851
0.22675,-0.006,-0.00625,0.00488275,0.0070037497,-0.0048674997,1742092374.141815
0.1685,-0.0365,-0.044,0.006073,0.0049285004,-0.009384249,1742092374.158011
0.15325,-0.03325,-0.058,0.00631725,0.0028687501,-0.009948749,1742092374.1708071
0.15275,-0.0195,-0.064,0.00546275,-0.000824,-0.00585925,1742092374.185602
0.18,-0.00375,-0.06025,0.0052947504,-0.0025787498,-0.0048065,1742092374.2001688
0.1995,-0.00325,-0.055,0.0050355,-0.005066,-0.004074,1742092374.215018
0.24,0.00375,-0.04,0.0045777503,-0.00564575,-0.0025025,1742092374.229511
0.257,0.01325,-0.03675,0.0033264998,-0.0048217503,0.00112925,1742092374.243958
0.271,0.035,-0.0365,0.0033264998,-0.0045012496,0.00119025,1742092374.258498
0.2675,0.04475,-0.04,0.00317375,-0.005066,-9.15e-05,1742092374.273098
0.26225,0.04725,-0.04175,0.00239575,-0.00491325,-0.000229,1742092374.2881632
0.25825,0.038,-0.039,0.00102225,-0.00354,0.00086975005,1742092374.302028
0.25175,0.018,-0.03175,0.00054925,-0.002884,0.00201425,1742092374.3176901
0.24975,0.01375,-0.028,0.0002595,-0.00239575,0.0028535,1742092374.33115
0.24875,0.013,-0.0245,0.0004425,-0.00177,0.00263975,1742092374.34562
0.2445,0.0205,-0.0205,0.000473,-0.00148,0.002121,1742092374.3600378
0.2415,0.022,-0.01975,-0.0005645,-0.00108325,0.0017395001,1742092374.374728
0.236,0.01425,-0.0185,-0.0014037499,-0.000885,0.00213625,1742092374.389337
0.2315,0.01025,-0.02175,-0.00204475,-0.001007,0.0025787498,1742092374.404044
0.2215,0.0095,-0.03225,-0.0018005001,-0.00149525,0.0024414998,1742092374.418426
0.22275,0.013,-0.03325,-0.0005645,-0.00340275,0.00080875,1742092374.432898
0.24,0.022,-0.0205,0.00029,-0.0045777503,-0.00080875,1742092374.447905
0.25075,0.02325,-0.009,-0.00027475,-0.005249,-0.0021057501,1742092374.461997
0.262,0.00975,0.00575,-0.0017242499,-0.0043639997,-0.0009155,1742092374.478045
0.2605,0.00275,0.0045,-0.00308225,-0.00296025,0.000885,1742092374.4910212
0.254,-0.00025,-0.0035,-0.00328075,-0.00062550005,0.0026092501,1742092374.505582
0.236,0.0045,-0.029,-0.0023039998,-0.00071725,0.0023039998,1742092374.520224
0.23125,0.01275,-0.037,0.00019825,-0.0034637498,0.0002595,1742092374.534635
0.23925,0.02225,-0.026,0.0012207499,-0.0051574996,-0.00131225,1742092374.5493
0.2525,0.01525,-0.0105,0.0005645,-0.0065307496,-0.0012055,1742092374.563909
0.27325,0.00725,0.013,-0.0007325,-0.0053405,0.00080875,1742092374.5783691
0.27125,0.011,0.0095,-0.00245675,-0.00093075,0.0036010002,1742092374.5928478
0.248,0.01725,-0.01825,-0.00245675,0.00057975,0.0038299998,1742092374.607563
0.236,0.01925,-0.03125,-0.0020295,0.001068,0.0037079998,1742092374.621763
0.226,0.025,-0.0395,-0.00068675,-0.000885,0.0023039998,1742092374.636319
0.224,0.0345,-0.035,-0.00024425,-0.002777,0.0010375,1742092374.651005
0.2335,0.02875,-0.024,0.00013725001,-0.0056304997,-0.000885,1742092374.6655948
0.248,0.01625,-0.007,0.000122000005,-0.0057525,-0.000946,1742092374.680028
0.24825,0.016,-0.00525,-0.0007325,-0.0039215,0.00062550005,1742092374.694592
0.24075,0.02275,-0.01475,-0.0012817499,-0.0027160002,0.00154125,1742092374.7092228
0.2375,0.02425,-0.019,-0.0013580001,-0.0017242499,0.0019685,1742092374.723674
0.241,0.02125,-0.01425,-0.00105275,-0.0021819999,0.001648,1742092374.738312
0.24825,0.01625,-0.0065,-0.00169375,-0.0030669998,0.0025940002,1742092374.752928
0.2555,0.0055,0.00125,-0.0020599999,-0.0026854998,0.003662,1742092374.7681
0.2525,0.0035,-0.0005,-0.00193775,-0.0018615,0.0045777503,1742092374.782092
0.24975,0.007,-0.0015,-0.00057975,-0.00016775,0.0051269997,1742092374.798086
0.2425,0.0295,-0.003,-0.00010675,0.0002595,0.0046845004,1742092374.8112152
0.23875,0.03925,-0.004,-0.00175475,-0.00039675,0.0036315,1742092374.825737
0.24175,0.02925,-0.0025,-0.0029755002,-0.0012970001,0.0034942501,1742092374.840302
0.24375,0.02,-0.001,-0.0032655,-0.00213625,0.0037079998,1742092374.854889
0.244,0.02225,0.00325,-0.0029449998,-0.001892,0.003952,1742092374.869395
0.24275,0.0275,0.00525,-0.002121,-0.000885,0.00354,1742092374.883754
0.23975,0.032,0.006,-0.0013580001,-0.00074775,0.0023039998,1742092374.898504
0.23675,0.03175,0.00525,-0.001007,-0.001587,9.15e-05,1742092374.912999
0.234,0.03125,0.004,-0.0019989999,-0.00225825,0.000412,1742092374.92747
0.23525,0.03075,0.00525,-0.0030365,-0.00267025,0.0012970001,1742092374.94187
0.23675,0.031,0.007,-0.00308225,-0.00263975,0.00177,1742092374.9578161
0.24375,0.0335,0.01825,-0.0025025,-0.002472,0.0010375,1742092374.9706602
0.248,0.033,0.02475,-0.00146475,-0.00225825,-0.001068,1742092374.985229
0.25225,0.03075,0.0315,-0.00163275,-0.00181575,-0.0013580001,1742092374.999694
0.252,0.02975,0.03,-0.0035704998,9.15e-05,0.000885,1742092375.01406
0.2455,0.03175,0.02125,-0.0043335,0.0012055,0.0023039998,1742092375.028607
0.2405,0.03475,0.0175,-0.004593,0.00193775,0.003006,1742092375.042921
0.23725,0.0355,0.021,-0.004013,0.0019225,0.00216675,1742092375.0579772
0.24075,0.0315,0.025,-0.0031127501,0.0015565,0.00077825,1742092375.071672
0.244,0.0265,0.02825,-0.000946,0.00090025004,-0.00254825,1742092375.086119
0.2445,0.01775,0.02925,-0.00030525,0.00061025,-0.00340275,1742092375.100577
0.244,0.01725,0.0295,-0.00064075,-0.00019825,-0.0020295,1742092375.115194
0.2535,0.028,0.037,-0.00125125,-0.00036625,-0.00059500005,1742092375.129714
0.259,0.034,0.0395,-0.001648,0.00090025004,-0.000122000005,1742092375.1442392
0.257,0.03275,0.03275,-0.001419,0.0020599999,-0.00115975,1742092375.1585898
0.25275,0.028,0.0265,-0.001068,0.00305175,-0.0024414998,1742092375.173114
0.249,0.0235,0.0215,-0.00035100002,0.003662,-0.0041504996,1742092375.1876092
0.2485,0.02,0.02525,7.625e-05,0.0031889998,-0.0043182503,1742092375.2018628
