acc_x,acc_y,acc_z,gyro_x,gyro_y,gyro_z,timestamp
0.0005,-0.00925,0.25625,-0.00010675,0.0012055,4.575e-05,1742092217.321574
0.00125,-0.01,0.2575,-1.5250001e-05,0.00131225,-0.00013725001,1742092217.337515
0.002,-0.008,0.257,0.00068675,0.00160225,-0.00048825,1742092217.351924
0.003,-0.00825,0.25625,0.00090025004,0.0016785001,-0.00035100002,1742092217.366652
0.00475,-0.00975,0.25775,0.0009155,0.00181575,-0.00045775,1742092217.380658
0.0055,-0.0095,0.25825,0.0011445,0.0021515,-0.00067150005,1742092217.396092
0.00575,-0.0095,0.258,0.001587,0.0028229998,-0.000824,1742092217.4095628
0.007,-0.01,0.25825,0.00137325,0.0028229998,-0.00083925005,1742092217.4240398
0.00775,-0.01175,0.259,0.00068675,0.0027160002,-0.00090025004,1742092217.4385478
0.00675,-0.014,0.2555,0.00054925,0.0028687501,-0.00077825,1742092217.452972
0.0065,-0.01275,0.2545,0.00077825,0.0032347501,-0.00048825,1742092217.467495
0.0085,-0.01125,0.25775,0.000946,0.00364675,-0.00048825,1742092217.481782
0.00975,-0.01175,0.25775,0.001007,0.00419625,-0.0005645,1742092217.496211
0.00975,-0.012,0.25125,0.00051875,0.0045625,-0.00071725,1742092217.510802
0.01,-0.01275,0.249,0.00019825,0.00437925,-0.00070200005,1742092217.525988
0.011,-0.01325,0.2485,-6.1000002e-05,0.0041044997,-0.000473,1742092217.539774
0.012,-0.014,0.24375,7.625e-05,0.00384525,-0.00033575002,1742092217.554281
0.013,-0.0145,0.24325,0.00042725,0.00283825,-0.00016775,1742092217.568716
0.0165,-0.01375,0.249,0.00068675,0.00251775,-7.625e-05,1742092217.583102
0.017,-0.0125,0.251,0.001068,0.0026092501,4.575e-05,1742092217.597483
0.016,-0.01075,0.24975,0.0009155,0.0027160002,1.5250001e-05,1742092217.6117408
0.0155,-0.0115,0.24675,0.00057975,0.00270075,-6.1000002e-05,1742092217.626409
0.0155,-0.01325,0.244,-4.575e-05,0.001953,-0.000229,1742092217.640734
0.01675,-0.01575,0.24125,-7.625e-05,0.0013580001,-0.0001525,1742092217.655246
0.0165,-0.01575,0.24075,0.000412,0.0005645,0.000122000005,1742092217.669538
0.0175,-0.01425,0.24575,0.0005645,0.00027475,0.00024425,1742092217.6838558
0.0185,-0.013,0.24875,0.00036625,7.625e-05,0.0004425,1742092217.6981602
0.0175,-0.0125,0.24825,0.00019825,6.1000002e-05,0.00042725,1742092217.712576
0.01675,-0.01275,0.247,1.5250001e-05,-0.0003815,0.00029,1742092217.726961
0.01575,-0.01175,0.24725,3.0500001e-05,-0.00077825,0.00019825,1742092217.741361
0.0155,-0.01225,0.24875,0.000183,-0.00112925,6.1000002e-05,1742092217.756951
0.01575,-0.01325,0.2505,0.000473,-0.00131225,-0.00029,1742092217.7702641
0.018,-0.011,0.25425,0.000473,-0.0011445,-0.00027475,1742092217.7847471
0.01825,-0.01025,0.25525,0.00033575002,-0.00027475,-0.0003205,1742092217.799446
0.01675,-0.01175,0.2525,0.00030525,0.00010675,-0.0004425,1742092217.813758
0.01575,-0.014,0.25075,0.0002595,-1.5250001e-05,-0.00065625,1742092217.828135
0.017,-0.01575,0.251,0.00024425,-0.00030525,-0.00068675,1742092217.842776
0.017,-0.016,0.251,0.0003205,-0.00051875,-0.0007325,1742092217.85712
0.01775,-0.01375,0.2515,0.00035100002,-0.0005645,-0.0007325,1742092217.8717299
0.01775,-0.0125,0.2515,0.00030525,-0.0007935,-0.00061025,1742092217.886234
0.01725,-0.0125,0.2515,9.15e-05,-0.001236,-0.00061025,1742092217.90078
0.0165,-0.01425,0.252,-0.00010675,-0.0012055,-0.00070200005,1742092217.916794
0.01725,-0.015,0.25325,-0.00024425,-0.001007,-0.00051875,1742092217.930012
0.017,-0.01525,0.25525,-0.000183,-0.00074775,-0.00033575002,1742092217.944522
0.0165,-0.015,0.25425,-0.00019825,-0.000229,-0.00013725001,1742092217.959187
0.016,-0.01525,0.25275,-0.00035100002,-0.00030525,-9.15e-05,1742092217.973862
0.016,-0.01525,0.2525,-0.00057975,-0.00057975,3.0500001e-05,1742092217.988346
0.016,-0.01375,0.25125,-0.00059500005,-0.000412,0.000122000005,1742092218.0028641
0.01575,-0.0145,0.24975,-0.00059500005,-0.0002595,0.00019825,1742092218.0172732
0.01475,-0.01475,0.244,-0.001114,-0.0009765,0.00030525,1742092218.0317729
0.0145,-0.014,0.24275,-0.00181575,-0.0017852499,0.0003815,1742092218.046344
0.01525,-0.01425,0.24575,-0.00276175,-0.00251775,0.00057975,1742092218.0607429
0.0145,-0.0125,0.25325,-0.002884,-0.002411,0.00064075,1742092218.0752482
0.0125,-0.01075,0.252,-0.0029755002,-0.0029145,0.000534,1742092218.089739
0.01075,-0.00925,0.2505,-0.0032347501,-0.0032195,0.0005035,1742092218.1041868
0.011,-0.01025,0.251,-0.00263975,-0.0020599999,0.00074775,1742092218.118805
0.00875,-0.01125,0.24975,-0.00187675,-0.000946,0.001007,1742092218.13324
0.00825,-0.00875,0.2495,-0.0012665,-0.0002135,0.001175,1742092218.147726
0.0115,-0.006,0.25625,-0.0002595,-0.000122000005,0.000946,1742092218.162144
0.0115,-0.00675,0.259,7.625e-05,0.00036625,0.0008545,1742092218.1770298
0.0105,-0.008,0.258,0.00051875,0.00245675,0.00109875,1742092218.1908648
0.01125,-0.0095,0.25225,0.00061025,0.00267025,0.0012207499,1742092218.206182
0.009,-0.00725,0.25075,0.00090025004,0.0015565,0.001007,1742092218.219687
0.0085,-0.00625,0.2495,0.0013275,0.00125125,0.00062550005,1742092218.233922
0.0105,-0.0075,0.249,0.00102225,0.00057975,0.0001525,1742092218.2482738
0.01225,-0.008,0.25075,0.0003205,-6.1000002e-05,6.1000002e-05,1742092218.2626472
0.0125,-0.0085,0.251,-9.15e-05,-0.00051875,1.5250001e-05,1742092218.2770538
0.01225,-0.009,0.25075,0.00024425,-0.00057975,-6.1000002e-05,1742092218.291795
0.01175,-0.009,0.24975,0.0005035,-0.00064075,-6.1000002e-05,1742092218.306891
0.01175,-0.0095,0.25,0.0005645,-0.00086975005,-0.00010675,1742092218.3207839
0.012,-0.011,0.25175,0.00045775,-0.00093075,-0.000122000005,1742092218.335171
0.012,-0.011,0.2515,0.000229,-0.001236,-0.000122000005,1742092218.349775
0.01225,-0.01125,0.252,0.0001525,-0.0013275,-7.625e-05,1742092218.364164
0.01225,-0.01175,0.2525,7.625e-05,-0.00090025004,0.00019825,1742092218.378582
0.01125,-0.0115,0.2515,4.575e-05,-0.00067150005,0.00036625,1742092218.392979
0.011,-0.01075,0.2515,6.1000002e-05,-0.00059500005,0.00045775,1742092218.407331
0.0105,-0.01025,0.2515,0.00019825,-0.0005645,0.0005035,1742092218.421669
0.01,-0.01075,0.2505,0.0002595,-0.00054925,0.00054925,1742092218.436539
0.01025,-0.01075,0.25075,0.00027475,-0.0005645,0.00061025,1742092218.450777
0.011,-0.0105,0.25325,0.00039675,-0.0005645,0.00059500005,1742092218.466531
0.01075,-0.01025,0.25325,0.00062550005,-0.0003205,0.00062550005,1742092218.479657
0.0095,-0.0095,0.2505,0.0005645,-0.00027475,0.00062550005,1742092218.4940631
0.0095,-0.01,0.2505,0.00048825,-0.00036625,0.0005645,1742092218.5083551
0.00975,-0.01025,0.25125,0.00048825,-0.00045775,0.000534,1742092218.5228329
0.00975,-0.011,0.2515,0.0005645,-0.00033575002,0.00042725,1742092218.537121
0.01025,-0.0115,0.25175,0.00090025004,-0.000122000005,0.00010675,1742092218.5515552
0.01,-0.0115,0.25175,0.0007935,-0.000229,0.0003815,1742092218.566775
0.00925,-0.01175,0.251,0.0002595,-0.0002595,0.000763,1742092218.580579
0.00875,-0.01175,0.25175,0.00010675,-0.0002595,0.00077825,1742092218.596213
0.00875,-0.01175,0.25275,0.00039675,-0.0001525,0.0007325,1742092218.609487
0.008,-0.01125,0.2515,0.00054925,-6.1000002e-05,0.00070200005,1742092218.623831
0.008,-0.0115,0.25025,0.00057975,4.575e-05,0.00051875,1742092218.638174
0.00875,-0.011,0.2505,0.000824,0.00010675,4.575e-05,1742092218.654423
0.00875,-0.00925,0.2505,0.00074775,-1.5250001e-05,0.00036625,1742092218.668749
0.00775,-0.009,0.2505,0.000122000005,-0.000122000005,0.00061025,1742092218.6831071
0.00825,-0.01,0.25225,-0.000183,-0.000122000005,0.00048825,1742092218.6976461
0.009,-0.011,0.25375,-0.00024425,-0.00013725001,0.0002595,1742092218.7120068
0.008,-0.0115,0.2525,-0.00013725001,-0.00010675,0.0002135,1742092218.726453
0.0075,-0.0115,0.25125,-0.0002135,-0.0001525,0.00019825,1742092218.741028
0.00825,-0.012,0.2515,-0.0003205,-0.0002135,0.00016775,1742092218.756427
0.00825,-0.012,0.25125,-0.00024425,-0.00027475,0.00010675,1742092218.769805
0.0085,-0.011,0.2505,-0.0002135,-0.0003205,0.000122000005,1742092218.784248
0.00875,-0.011,0.2505,-0.00027475,-0.00036625,0.0001525,1742092218.7987342
0.00875,-0.01125,0.25025,-0.00048825,-0.00035100002,0.0002135,1742092218.813161
0.00875,-0.01125,0.25125,-0.00051875,-0.00033575002,0.0002135,1742092218.827764
0.009,-0.01075,0.25225,-0.00033575002,-0.0003815,0.00019825,1742092218.8422348
0.00925,-0.01,0.25275,-0.00029,-0.0003205,0.0002135,1742092218.856565
0.009,-0.00975,0.25275,-0.00033575002,-0.0001525,0.0001525,1742092218.8710558
0.0085,-0.0105,0.25075,-0.00030525,-9.15e-05,6.1000002e-05,1742092218.8860428
0.00825,-0.011,0.2495,-0.00033575002,-0.00016775,7.625e-05,1742092218.900028
0.00825,-0.01275,0.24775,-0.00036625,-0.00030525,0.0001525,1742092218.914421
0.00825,-0.01325,0.24825,-0.00035100002,-0.00045775,0.00024425,1742092218.928861
0.008,-0.01375,0.24875,-0.00033575002,-0.00064075,0.00051875,1742092218.955029
0.00725,-0.01575,0.2495,-0.00030525,-0.00061025,0.0005035,1742092218.9582841
0.008,-0.015,0.251,0.000183,-0.0004425,0.000473,1742092218.97219
0.00775,-0.013,0.252,0.000229,-0.00061025,0.000946,1742092218.9871192
0.0075,-0.01275,0.25175,0.000122000005,-0.00071725,0.00112925,1742092219.007782
0.0075,-0.013,0.252,0.00010675,-0.00068675,0.00115975,1742092219.017293
0.00725,-0.01375,0.252,0.00013725001,-0.00064075,0.0012970001,1742092219.030956
0.00725,-0.012,0.25275,0.000885,0.000122000005,0.0012970001,1742092219.044738
0.007,-0.01,0.252,0.0012665,0.00064075,0.0015565,1742092219.058736
0.00725,-0.00775,0.2515,0.00090025004,0.000122000005,0.0016175,1742092219.073627
0.006,-0.004,0.24925,0.000534,-0.00029,0.00115975,1742092219.086841
0.00575,-0.00475,0.24825,9.15e-05,-0.0005645,0.00065625,1742092219.1023371
0.00625,-0.009,0.25075,-1.5250001e-05,-0.000763,0.0005645,1742092219.117255
0.00625,-0.01,0.25275,3.0500001e-05,-0.000763,0.0004425,1742092219.138308
0.0065,-0.009,0.25625,9.15e-05,-0.00061025,0.0004425,1742092219.147147
0.00625,-0.008,0.25725,3.0500001e-05,-0.00051875,0.00051875,1742092219.1609411
0.0055,-0.00775,0.257,-1.5250001e-05,-0.000183,7.625e-05,1742092219.174429
0.00525,-0.00775,0.254,6.1000002e-05,0.0,-0.0001525,1742092219.189002
0.005,-0.008,0.25275,-0.000122000005,-1.5250001e-05,-7.625e-05,1742092219.202946
0.00575,-0.01025,0.2525,-0.00019825,0.0,-0.00013725001,1742092219.216405
0.00625,-0.0115,0.25225,-0.00016775,0.00013725001,-0.00027475,1742092219.231209
0.00625,-0.01175,0.24975,-0.00010675,0.00013725001,-0.00024425,1742092219.246328
0.00625,-0.011,0.2495,-0.00010675,6.1000002e-05,-0.00019825,1742092219.259812
0.00625,-0.0105,0.25,-0.00027475,-0.00013725001,-0.00016775,1742092219.274368
0.00575,-0.01325,0.25025,-0.0003205,-0.0001525,-0.0002595,1742092219.288857
0.00625,-0.01425,0.25175,-6.1000002e-05,1.5250001e-05,-0.000473,1742092219.303293
0.00725,-0.012,0.254,-3.0500001e-05,-4.575e-05,-0.00010675,1742092219.317761
0.00625,-0.0105,0.253,-0.0002595,-0.00013725001,0.00016775,1742092219.332133
0.00625,-0.00925,0.25275,-0.00027475,-6.1000002e-05,3.0500001e-05,1742092219.346775
0.00625,-0.0095,0.25275,-0.000183,3.0500001e-05,3.0500001e-05,1742092219.3611531
0.006,-0.00975,0.2515,-0.000183,4.575e-05,3.0500001e-05,1742092219.375453
0.00575,-0.01025,0.25075,-0.000183,3.0500001e-05,3.0500001e-05,1742092219.389771
0.006,-0.01025,0.2505,-0.000229,1.5250001e-05,0.0001525,1742092219.404168
0.00525,-0.0105,0.24975,-0.00024425,6.1000002e-05,0.00013725001,1742092219.418667
0.0055,-0.01075,0.2505,4.575e-05,7.625e-05,-0.000183,1742092219.432928
0.00625,-0.009,0.2515,0.0001525,1.5250001e-05,-0.00010675,1742092219.447328
0.00575,-0.0085,0.2505,-7.625e-05,-7.625e-05,6.1000002e-05,1742092219.461851
0.00575,-0.00925,0.2495,-0.000229,-0.00016775,-4.575e-05,1742092219.4764318
0.00575,-0.00975,0.24925,-0.0002595,-0.0002595,-0.00010675,1742092219.4909341
0.00575,-0.01075,0.25075,-0.000122000005,-0.0003815,-1.5250001e-05,1742092219.506201
0.00625,-0.01075,0.25275,-9.15e-05,-0.00039675,3.0500001e-05,1742092219.51992
0.00675,-0.0105,0.255,-7.625e-05,-0.0002135,7.625e-05,1742092219.534409
0.006,-0.00925,0.25525,-4.575e-05,-6.1000002e-05,3.0500001e-05,1742092219.548784
0.0055,-0.00975,0.25375,0.000122000005,0.00016775,-0.00029,1742092219.563167
0.006,-0.01125,0.25075,0.00027475,0.00027475,-0.000473,1742092219.5776582
0.00575,-0.01075,0.24975,0.0001525,3.0500001e-05,-7.625e-05,1742092219.5921059
0.00575,-0.00925,0.25025,-3.0500001e-05,-0.00013725001,9.15e-05,1742092219.6065202
0.00625,-0.009,0.2515,-0.00013725001,-0.0001525,9.15e-05,1742092219.621036
0.00625,-0.00975,0.2515,-1.5250001e-05,0.0,-4.575e-05,1742092219.6363258
0.00525,-0.01,0.25,3.0500001e-05,1.5250001e-05,-7.625e-05,1742092219.649761
0.00525,-0.01025,0.24925,3.0500001e-05,-7.625e-05,-4.575e-05,1742092219.664106
0.006,-0.011,0.25075,9.15e-05,-0.000122000005,-1.5250001e-05,1742092219.678624
0.00625,-0.01075,0.2515,0.0002595,-6.1000002e-05,3.0500001e-05,1742092219.6929631
0.00525,-0.01075,0.25,0.00030525,-1.5250001e-05,-6.1000002e-05,1742092219.707407
0.00525,-0.0105,0.24975,0.00019825,-0.00029,0.0,1742092219.7216809
0.00575,-0.00925,0.2525,6.1000002e-05,-0.000412,9.15e-05,1742092219.7361221
0.006,-0.009,0.254,1.5250001e-05,-0.00036625,9.15e-05,1742092219.750368
0.006,-0.00925,0.25375,3.0500001e-05,-0.000183,-3.0500001e-05,1742092219.764873
0.0055,-0.0095,0.25125,-4.575e-05,-0.000122000005,-6.1000002e-05,1742092219.779455
0.0055,-0.00925,0.25175,-0.0002595,-3.0500001e-05,-1.5250001e-05,1742092219.793924
0.00525,-0.0095,0.25225,-0.00029,3.0500001e-05,-7.625e-05,1742092219.808419
0.005,-0.01,0.25125,-0.00030525,-1.5250001e-05,-0.000122000005,1742092219.822933
0.00525,-0.0105,0.2505,-0.00029,-0.0001525,-0.000122000005,1742092219.8375459
0.0055,-0.0105,0.25025,-0.000122000005,-0.0003205,-9.15e-05,1742092219.852044
0.00575,-0.0105,0.25025,4.575e-05,-0.00035100002,-6.1000002e-05,1742092219.866621
0.0065,-0.0105,0.25225,9.15e-05,-0.0003815,-1.5250001e-05,1742092219.8807628
0.00675,-0.0105,0.255,-0.00054925,-0.00065625,9.15e-05,1742092219.8961658
0.00525,-0.0095,0.256,-0.000885,-0.00074775,7.625e-05,1742092219.909636
0.0045,-0.0105,0.25325,-0.0007935,-0.00019825,9.15e-05,1742092219.9240031
0.004,-0.01125,0.24975,-0.00059500005,-0.00016775,0.00013725001,1742092219.938433
0.00375,-0.0105,0.24975,-0.000412,-0.00074775,0.0002595,1742092219.952812
0.004,-0.0085,0.25175,-0.00051875,-0.00086975005,0.00030525,1742092219.967235
0.00425,-0.0085,0.25275,-0.00062550005,-0.00086975005,0.00027475,1742092219.9816241
0.00425,-0.009,0.253,-0.0005035,-0.00077825,0.00019825,1742092219.9963012
0.003,-0.00875,0.25175,-0.00039675,-0.00071725,0.0002135,1742092220.010459
0.003,-0.00775,0.252,-0.00033575002,-0.00071725,0.000229,1742092220.0248451
0.003,-0.0075,0.2535,-0.000183,-0.00062550005,0.000122000005,1742092220.039312
0.00275,-0.00775,0.2525,0.00010675,-0.00035100002,-1.5250001e-05,1742092220.05373
0.00275,-0.0095,0.25075,0.000122000005,-0.00035100002,-6.1000002e-05,1742092220.068108
0.003,-0.00975,0.25075,-3.0500001e-05,-0.00051875,0.0,1742092220.082486
0.0025,-0.01,0.2515,-0.0002135,-0.00062550005,6.1000002e-05,1742092220.09704
0.00275,-0.0105,0.25175,-0.0003815,-0.00068675,9.15e-05,1742092220.111457
0.0025,-0.0105,0.25125,-0.0004425,-0.00070200005,0.0002135,1742092220.1269388
0.00175,-0.00825,0.25125,-0.000473,-0.000763,0.00027475,1742092220.140335
0.00175,-0.0075,0.25225,-0.0005035,-0.00071725,0.00027475,1742092220.154804
0.00125,-0.00775,0.25175,-0.00042725,-0.00065625,0.000229,1742092220.169219
0.00125,-0.008,0.2505,-0.00033575002,-0.00068675,0.00019825,1742092220.183664
0.00175,-0.008,0.251,-0.000412,-0.0007325,0.000229,1742092220.198005
0.002,-0.0075,0.2525,-0.00048825,-0.000763,0.00024425,1742092220.212414
0.0015,-0.00725,0.25425,-0.0005035,-0.00051875,0.000229,1742092220.2268648
0.00125,-0.007,0.25425,-0.0004425,-0.0002595,0.000229,1742092220.241302
0.00125,-0.00725,0.253,-0.00024425,0.00019825,0.00019825,1742092220.2566872
0.00125,-0.0085,0.25025,-0.000183,0.0002595,0.00016775,1742092220.2699242
0.00075,-0.00775,0.25025,-0.0002595,0.000183,0.00030525,1742092220.284259
0.00375,-0.00725,0.25375,-0.00033575002,0.00035100002,0.00048825,1742092220.2985191
0.00325,-0.008,0.25325,-0.000122000005,0.00137325,0.00086975005,1742092220.312942
0.0015,-0.00675,0.2495,-0.00019825,0.0010375,0.000763,1742092220.3272479
0.00325,-0.00675,0.2515,-0.00036625,0.00030525,0.00061025,1742092220.341524
0.00425,-0.0075,0.254,-0.000229,0.000824,0.0008545,1742092220.3563032
0.00275,-0.006,0.253,-0.00013725001,0.00115975,0.000946,1742092220.370332
0.0035,-0.007,0.2535,7.625e-05,0.0011445,0.0005645,1742092220.3845298
0.00275,-0.00775,0.25125,0.000183,0.00131225,0.00045775,1742092220.398839
0.00225,-0.006,0.24925,-0.00013725001,0.00029,0.0002595,1742092220.413252
0.0025,-0.007,0.2495,-0.00045775,-0.00010675,0.000183,1742092220.4276211
0.003,-0.00825,0.25,-0.00068675,-0.000122000005,0.00024425,1742092220.442048
0.003,-0.00925,0.2505,-0.00051875,-0.0003815,0.00036625,1742092220.456743
0.00225,-0.00875,0.2495,-0.00036625,-0.0005035,0.0005035,1742092220.4712262
0.0015,-0.00625,0.24875,-0.00071725,-0.00096125,0.000763,1742092220.486163
0.002,-0.00475,0.25125,-0.001007,-0.00115975,0.000763,1742092220.5000331
0.002,-0.00375,0.25225,-0.00115975,-0.0012055,0.00064075,1742092220.514445
0.00075,-0.0015,0.25125,-0.0011445,-0.0012970001,0.000473,1742092220.5288398
0.00125,-0.003,0.25275,-0.0012055,-0.0013580001,0.00024425,1742092220.5433679
0.002,-0.00525,0.255,-0.001114,-0.00109875,1.5250001e-05,1742092220.557837
0.00125,-0.005,0.25375,-0.00080875,-0.00096125,-1.5250001e-05,1742092220.572404
0.00025,-0.00475,0.25275,-0.00045775,-0.00074775,6.1000002e-05,1742092220.5867798
0.0005,-0.00475,0.253,-0.00036625,-0.00061025,0.00010675,1742092220.6011531
0.0005,-0.0045,0.253,-0.0001525,-0.000473,0.00016775,1742092220.616331
0.00025,-0.0035,0.252,-0.00010675,-0.00036625,0.0001525,1742092220.629932
0.00025,-0.00375,0.2515,-3.0500001e-05,-0.000229,0.00010675,1742092220.644427
0.0005,-0.00425,0.2505,-6.1000002e-05,-0.0003205,0.000122000005,1742092220.658867
0.0005,-0.00425,0.25125,-0.00016775,-0.00042725,0.0001525,1742092220.673346
0.0005,-0.004,0.252,-0.000229,-0.000412,0.00019825,1742092220.687843
-0.00025,-0.0035,0.25175,-0.00019825,-0.0003205,0.000183,1742092220.7024598
-0.0005,-0.00375,0.252,-0.000122000005,-0.00027475,0.000122000005,1742092220.716916
-0.00075,-0.0045,0.251,-0.000122000005,-0.00030525,0.00010675,1742092220.7314408
-0.00075,-0.0045,0.25075,-0.00029,-0.00039675,0.00013725001,1742092220.746422
-0.00075,-0.00475,0.2515,-0.00035100002,-0.0004425,0.000183,1742092220.760426
-0.001,-0.004,0.25225,-0.0003815,-0.0003815,0.00027475,1742092220.7749171
-0.001,-0.0035,0.25325,-0.00030525,-0.00029,0.00029,1742092220.789524
-0.00125,-0.00325,0.25275,-0.0001525,-0.00019825,0.00027475,1742092220.804055
-0.00125,-0.00275,0.25075,7.625e-05,-0.000122000005,0.000229,1742092220.818604
-0.00125,-0.00275,0.251,1.5250001e-05,-0.000122000005,0.0002135,1742092220.833005
-0.00125,-0.00275,0.2525,-1.5250001e-05,-9.15e-05,0.0001525,1742092220.847552
-0.001,-0.00275,0.253,0.00010675,0.0,0.000122000005,1742092220.862039
-0.001,-0.003,0.252,0.00029,0.00016775,9.15e-05,1742092220.877028
-0.0005,-0.0035,0.25175,0.00030525,0.00016775,6.1000002e-05,1742092220.89072
-0.0005,-0.004,0.25175,0.00033575002,0.000183,0.0,1742092220.9049962
-0.001,-0.00475,0.2515,0.00033575002,0.00016775,-1.5250001e-05,1742092220.9194188
-0.001,-0.00475,0.2515,0.00029,0.000122000005,1.5250001e-05,1742092220.933718
-0.00125,-0.0045,0.252,0.00016775,0.000122000005,0.00010675,1742092220.948054
-0.00075,-0.00375,0.25275,0.0002595,0.000183,9.15e-05,1742092220.962424
-0.00075,-0.0035,0.25275,0.00064075,0.00039675,-3.0500001e-05,1742092220.976917
-0.0005,-0.00325,0.25125,0.000763,0.00048825,-9.15e-05,1742092220.991294
-0.0005,-0.00375,0.2505,0.00080875,0.00039675,-0.00016775,1742092221.006817
0.00025,-0.00475,0.2515,0.00074775,0.00024425,-0.00016775,1742092221.020125
0.0005,-0.00475,0.252,0.00067150005,0.00029,-0.00010675,1742092221.034485
0.0,-0.00475,0.25225,0.00065625,0.0003815,-0.000122000005,1742092221.048832
0.0,-0.00525,0.25175,0.00065625,0.00039675,-0.00013725001,1742092221.0632331
0.00025,-0.0055,0.25175,0.00070200005,0.00035100002,-0.000122000005,1742092221.077493
0.0005,-0.006,0.25225,0.00068675,0.00030525,-9.15e-05,1742092221.0918632
0.00075,-0.0055,0.25225,0.00062550005,0.00030525,-0.000122000005,1742092221.1068292
0.00125,-0.00675,0.25075,0.00061025,0.00033575002,-0.00013725001,1742092221.120729
0.001,-0.0075,0.24875,0.00042725,0.00019825,-1.5250001e-05,1742092221.1362329
0.00075,-0.007,0.24875,0.00013725001,-0.00013725001,7.625e-05,1742092221.149374
0.00075,-0.00675,0.25025,-0.0001525,-0.000412,0.00013725001,1742092221.163807
0.00025,-0.00675,0.2515,-0.00033575002,-0.00048825,0.0002135,1742092221.178289
-0.0005,-0.00625,0.2525,-0.0002595,-0.000412,0.0002135,1742092221.192714
-0.0005,-0.0065,0.25225,-4.575e-05,-0.00013725001,0.0002135,1742092221.2072132
-0.00025,-0.00575,0.2515,4.575e-05,-0.00010675,0.0002135,1742092221.221621
-0.0005,-0.004,0.25125,-0.00019825,-0.000183,0.000229,1742092221.2364259
-0.00025,-0.00575,0.25175,-0.0003815,-0.00013725001,0.00016775,1742092221.250724
0.0005,-0.00675,0.25225,-0.00030525,-9.15e-05,0.00010675,1742092221.2664099
0.0,-0.005,0.25225,-0.0001525,-7.625e-05,0.00010675,1742092221.279606
0.0,-0.0035,0.2525,-4.575e-05,0.0,9.15e-05,1742092221.293877
0.00025,-0.00275,0.253,0.00016775,0.00016775,-0.00010675,1742092221.3084002
0.00025,-0.00425,0.25175,0.00029,0.0002135,-0.00024425,1742092221.322691
0.0,-0.0055,0.2505,0.00027475,0.000122000005,-0.00036625,1742092221.336997
-0.00025,-0.00675,0.25,0.00010675,-3.0500001e-05,-0.00035100002,1742092221.351506
-0.0005,-0.0075,0.2505,-0.00035100002,-0.0003205,-0.0002595,1742092221.3666828
-0.0,-0.00675,0.25175,-0.000534,-0.00036625,-0.00016775,1742092221.380821
-0.00025,-0.006,0.2515,-0.00061025,-0.00033575002,-6.1000002e-05,1742092221.3961082
-0.0005,-0.00525,0.2515,-0.00059500005,-0.00039675,4.575e-05,1742092221.409987
-0.00075,-0.005,0.252,-0.00054925,-0.0004425,4.575e-05,1742092221.424598
-0.001,-0.0045,0.2525,-0.0003815,-0.0003205,0.0,1742092221.439081
-0.00125,-0.0045,0.253,-0.0002595,-0.00024425,-3.0500001e-05,1742092221.453713
-0.001,-0.00475,0.25275,-6.1000002e-05,-7.625e-05,-7.625e-05,1742092221.4683
-0.00125,-0.00425,0.2515,-1.5250001e-05,-3.0500001e-05,-9.15e-05,1742092221.4829981
-0.0015,-0.004,0.25125,-6.1000002e-05,-3.0500001e-05,-9.15e-05,1742092221.497586
-0.001,-0.004,0.2505,-0.00013725001,-1.5250001e-05,-9.15e-05,1742092221.512244
-0.001,-0.0045,0.24975,-0.0004425,-0.0001525,-9.15e-05,1742092221.526813
-0.001,-0.0055,0.25075,-0.00067150005,-0.0003205,-6.1000002e-05,1742092221.5414772
-0.00075,-0.00525,0.2515,-0.000885,-0.00065625,-3.0500001e-05,1742092221.556488
-0.00125,-0.00425,0.25275,-0.000885,-0.00074775,-1.5250001e-05,1742092221.5707588
-0.0015,-0.004,0.25275,-0.0008545,-0.00070200005,1.5250001e-05,1742092221.58534
-0.00175,-0.00375,0.25275,-0.000763,-0.000534,3.0500001e-05,1742092221.5999238
-0.00175,-0.0025,0.2525,-0.00070200005,-0.000473,3.0500001e-05,1742092221.61443
-0.0015,-0.00225,0.2525,-0.0004425,-0.00024425,-6.1000002e-05,1742092221.62905
-0.00125,-0.00275,0.2515,-0.00033575002,-0.00019825,-0.00010675,1742092221.643649
-0.0015,-0.003,0.251,-0.000412,-0.0002595,-0.00013725001,1742092221.658297
-0.00225,-0.00375,0.251,-0.0005645,-0.00030525,-0.00013725001,1742092221.6729898
-0.0025,-0.00375,0.251,-0.0008545,-0.0004425,-3.0500001e-05,1742092221.6875231
-0.002,-0.00275,0.2515,-0.0009765,-0.00054925,3.0500001e-05,1742092221.701992
-0.002,-0.00225,0.25175,-0.00099175,-0.0007325,4.575e-05,1742092221.716542
-0.00275,-0.002,0.25175,-0.00093075,-0.00077825,3.0500001e-05,1742092221.730923
-0.003,-0.002,0.25175,-0.00090025004,-0.00077825,3.0500001e-05,1742092221.746172
-0.00275,-0.00175,0.2525,-0.0008545,-0.00070200005,3.0500001e-05,1742092221.7599208
-0.00325,-0.00125,0.2525,-0.00074775,-0.0005645,1.5250001e-05,1742092221.7744331
-0.00375,-0.0015,0.2515,-0.00059500005,-0.000412,6.1000002e-05,1742092221.788936
-0.00375,-0.0005,0.25175,-0.00062550005,-0.000473,9.15e-05,1742092221.803447
-0.004,0.0005,0.25275,-0.000473,-0.00042725,9.15e-05,1742092221.817791
-0.0045,-0.00025,0.25225,-0.00030525,-0.00029,6.1000002e-05,1742092221.8324149
-0.0045,-0.001,0.2515,-0.00016775,-0.0001525,7.625e-05,1742092221.846892
-0.004,-0.001,0.25125,-0.00016775,-0.00019825,0.00010675,1742092221.861398
-0.00375,-0.001,0.251,-0.0001525,-0.000229,0.000122000005,1742092221.876085
-0.004,-0.00075,0.2505,-0.0002595,-0.00027475,0.000183,1742092221.890701
-0.00375,-0.00025,0.25025,-0.000412,-0.0003815,0.00019825,1742092221.9052448
-0.00375,0.00025,0.25125,-0.00071725,-0.00064075,0.00019825,1742092221.919639
-0.00375,0.0005,0.2525,-0.00071725,-0.00065625,0.0001525,1742092221.9341362
-0.004,0.0,0.25225,-0.00054925,-0.0005645,0.000122000005,1742092221.9487202
-0.0045,0.00025,0.25275,-0.00048825,-0.000534,0.0001525,1742092221.9632099
-0.0045,0.001,0.2535,-0.0001525,-0.0002595,0.0001525,1742092221.977591
-0.00475,0.001,0.253,0.000122000005,-3.0500001e-05,0.00010675,1742092221.99203
-0.00475,0.00075,0.25225,0.0003205,0.00013725001,4.575e-05,1742092222.0064902
-0.00475,0.00075,0.25225,0.00051875,0.00027475,-3.0500001e-05,1742092222.020695
-0.005,0.00025,0.25125,0.00059500005,0.00033575002,-6.1000002e-05,1742092222.03506
-0.005,-0.00025,0.25075,0.00051875,0.00033575002,-4.575e-05,1742092222.049633
-0.00475,-0.0,0.252,0.00042725,0.00029,0.0,1742092222.063997
-0.00475,0.00025,0.253,0.00057975,0.000412,-3.0500001e-05,1742092222.078322
-0.004,0.00075,0.25325,0.00080875,0.00064075,-9.15e-05,1742092222.092769
-0.004,0.0005,0.25275,0.001068,0.0010375,-0.00016775,1742092222.107079
-0.0035,0.00075,0.25475,0.001175,0.0012665,-0.000229,1742092222.121514
-0.00325,0.00025,0.254,0.0014037499,0.0016175,-0.0003205,1742092222.136404
-0.00325,-0.0015,0.25125,0.00169375,0.0019685,-0.00048825,1742092222.150273
-0.004,-0.00225,0.247,0.001419,0.00160225,-0.00048825,1742092222.164633
-0.00275,-0.0025,0.24925,0.00051875,0.000763,-0.00045775,1742092222.179302
-0.00125,-0.0035,0.25275,0.000473,0.000763,-0.00033575002,1742092222.193828
-0.002,-0.0025,0.25225,0.000534,0.00057975,-0.00030525,1742092222.2083142
-0.00125,-0.002,0.25225,0.000412,0.0005645,-0.00042725,1742092222.222914
-0.001,-0.00225,0.25125,0.00036625,0.000534,-0.00048825,1742092222.237371
-0.00175,-0.0035,0.25,0.0004425,0.0002135,-0.000473,1742092222.2518458
-0.0025,-0.0045,0.24975,0.00042725,-0.00033575002,-0.0005035,1742092222.2671978
-0.00125,-0.004,0.2505,0.00029,-0.00119025,-0.000473,1742092222.280993
-0.00075,-0.0035,0.253,0.00033575002,-0.00080875,-0.000229,1742092222.29615
-0.0015,-0.003,0.252,0.00033575002,-0.0002135,-0.0002135,1742092222.310242
-0.0015,-0.00425,0.25,0.00033575002,-0.00048825,-0.00033575002,1742092222.3246982
-0.00125,-0.0045,0.25,0.00027475,-0.000946,-0.00019825,1742092222.3392582
-0.0025,-0.00425,0.251,0.00010675,-0.001007,-9.15e-05,1742092222.354311
-0.00275,-0.0045,0.25125,-0.000183,-0.001068,1.5250001e-05,1742092222.368119
-0.00275,-0.004,0.251,-0.00016775,-0.001236,4.575e-05,1742092222.382853
-0.00275,-0.00425,0.2515,-6.1000002e-05,-0.00157175,6.1000002e-05,1742092222.397193
-0.0035,-0.004,0.252,0.00016775,-0.0022735,0.00024425,1742092222.4116218
-0.00575,-0.0015,0.2515,0.0002595,-0.0023039998,0.00027475,1742092222.4265149
-0.0065,-0.0025,0.25075,0.00045775,-0.002411,0.000229,1742092222.44081
-0.00675,-0.00525,0.25025,0.0004425,-0.0025634998,0.00027475,1742092222.4560971
-0.00625,-0.0055,0.251,0.00019825,-0.0025634998,0.000412,1742092222.469693
-0.00775,-0.0035,0.252,0.00016775,-0.002411,0.000412,1742092222.484067
-0.0085,-0.00275,0.252,0.0001525,-0.00228875,0.00033575002,1742092222.4986072
-0.0085,-0.0035,0.25175,0.000412,-0.002121,0.00030525,1742092222.5130901
-0.009,-0.00325,0.25225,0.00080875,-0.0020295,0.0002595,1742092222.527633
-0.00925,-0.003,0.253,0.0013885,-0.0023039998,0.00016775,1742092222.542212
-0.00975,-0.00425,0.255,0.001648,-0.00216675,7.625e-05,1742092222.55694
-0.01,-0.00575,0.2535,0.0022735,-0.00149525,-1.5250001e-05,1742092222.57107
-0.0115,-0.00725,0.24725,0.0023345,-0.00146475,4.575e-05,1742092222.58656
-0.012,-0.00675,0.24725,0.00125125,-0.00225825,0.0003205,1742092222.6000981
-0.01175,-0.0065,0.25225,0.00061025,-0.002365,0.00048825,1742092222.614639
-0.01175,-0.00625,0.25225,0.0003205,-0.001587,0.00068675,1742092222.6291242
-0.01425,-0.007,0.2505,0.000122000005,-0.00137325,0.00048825,1742092222.643646
-0.01475,-0.00625,0.252,-0.00027475,-0.00137325,0.0003205,1742092222.658096
-0.0145,-0.006,0.25275,-0.0005645,-0.0011445,0.00045775,1742092222.672686
-0.01375,-0.00575,0.2525,-0.000412,-0.0010375,0.00061025,1742092222.687299
-0.013,-0.00525,0.25325,-1.5250001e-05,-0.00071725,0.000412,1742092222.701812
-0.01375,-0.003,0.2505,0.00016775,-0.00035100002,0.00010675,1742092222.716336
-0.01425,-0.0045,0.247,0.000183,-0.000534,-0.0004425,1742092222.731004
-0.01375,-0.00775,0.249,-0.0002595,-0.00099175,-0.000473,1742092222.746357
-0.01375,-0.007,0.252,-0.0009155,-0.0013885,-0.0002595,1742092222.760434
-0.01475,-0.0055,0.25275,-0.00102225,-0.0012207499,-0.000229,1742092222.774977
-0.015,-0.00725,0.25225,-0.00115975,-0.00065625,-0.00013725001,1742092222.7894819
-0.015,-0.0065,0.2535,-0.0009765,-0.000473,-7.625e-05,1742092222.804065
-0.0155,-0.00425,0.2535,-0.00070200005,-0.00030525,-4.575e-05,1742092222.8186262
-0.01525,-0.004,0.252,-0.0005645,0.00036625,-0.00013725001,1742092222.8332028
-0.01525,-0.0045,0.2515,-0.00059500005,0.00061025,-0.000183,1742092222.84767
-0.015,-0.004,0.25075,-0.00070200005,0.00080875,-0.000229,1742092222.86222
-0.01475,-0.00425,0.25,-0.00083925005,0.00086975005,-0.00019825,1742092222.876858
-0.01425,-0.00525,0.25075,-0.001007,0.00070200005,-0.000183,1742092222.891304
-0.0145,-0.00575,0.2505,-0.001007,0.00059500005,-0.0001525,1742092222.9065
-0.01475,-0.005,0.25,-0.00115975,0.00030525,3.0500001e-05,1742092222.920654
-0.01425,-0.002,0.25225,-0.001236,0.000229,9.15e-05,1742092222.935071
-0.014,-0.001,0.25325,-0.00093075,0.000534,-1.5250001e-05,1742092222.949704
-0.014,-0.00125,0.25375,-0.00054925,0.00062550005,-0.00013725001,1742092222.9641962
-0.01425,-0.00225,0.25275,-0.00013725001,0.00070200005,-0.00019825,1742092222.97876
-0.014,-0.00275,0.2515,0.00019825,0.000885,-0.00019825,1742092222.993313
-0.01325,-0.00275,0.2505,0.00016775,0.00083925005,-0.00016775,1742092223.007709
-0.01325,-0.00325,0.25025,9.15e-05,0.00048825,-0.00013725001,1742092223.022088
-0.01325,-0.00325,0.25025,-4.575e-05,0.00035100002,-0.00010675,1742092223.036889
-0.01325,-0.00325,0.25075,-0.0002135,0.000122000005,-7.625e-05,1742092223.05119
-0.01325,-0.003,0.25125,-0.00016775,4.575e-05,-7.625e-05,1742092223.0656672
-0.013,-0.0025,0.25075,-0.00016775,-3.0500001e-05,-3.0500001e-05,1742092223.080275
-0.013,-0.002,0.2505,-0.0002595,-0.00010675,-1.5250001e-05,1742092223.096195
-0.013,-0.00225,0.251,-0.00036625,-0.00019825,-1.5250001e-05,1742092223.1094809
-0.013,-0.002,0.252,-0.000534,-0.00024425,-3.0500001e-05,1742092223.1240761
-0.01325,-0.00175,0.252,-0.0005645,-0.00019825,-4.575e-05,1742092223.138777
-0.01325,-0.00175,0.25175,-0.0004425,-0.00013725001,-3.0500001e-05,1742092223.1534941
-0.01325,-0.00225,0.251,-0.0004425,-0.00013725001,-1.5250001e-05,1742092223.1680589
-0.01325,-0.00225,0.2505,-0.000534,-0.00027475,-3.0500001e-05,1742092223.1826649
-0.01375,-0.00175,0.2515,-0.00059500005,-0.00033575002,-3.0500001e-05,1742092223.1972759
-0.014,-0.0015,0.25175,-0.00061025,-0.0003815,-1.5250001e-05,1742092223.211929
-0.01425,-0.00125,0.25125,-0.000534,-0.000412,-1.5250001e-05,1742092223.22654
-0.01425,-0.001,0.25075,-0.00042725,-0.0004425,-1.5250001e-05,1742092223.241073
-0.014,-0.00075,0.25,-0.000534,-0.0005035,1.5250001e-05,1742092223.25658
-0.01425,-0.00075,0.24975,-0.000946,-0.0007325,0.00010675,1742092223.2702239
-0.0145,-0.001,0.2505,-0.00108325,-0.000885,0.000122000005,1742092223.284752
-0.0145,-0.0005,0.25175,-0.0011445,-0.0010375,0.0001525,1742092223.2993228
-0.0145,0.0,0.2525,-0.00119025,-0.001007,0.0001525,1742092223.313699
-0.01475,0.0015,0.2535,-0.001068,-0.000824,0.00010675,1742092223.3280709
-0.015,0.0015,0.25325,-0.000412,-0.00035100002,-9.15e-05,1742092223.3428009
-0.01575,0.0,0.25,-0.0002135,-0.00027475,-0.00013725001,1742092223.357276
-0.01525,0.00025,0.24975,-0.00045775,-0.000473,-6.1000002e-05,1742092223.3718212
-0.01525,0.00125,0.25125,-0.00057975,-0.00051875,-4.575e-05,1742092223.386722
-0.0155,0.00125,0.25175,-0.0005035,-0.0003815,-0.00010675,1742092223.4010282
-0.0155,0.00125,0.252,-0.00048825,-0.00027475,-0.00013725001,1742092223.415488
-0.0155,0.0015,0.252,-0.000473,-0.0002135,-0.00016775,1742092223.429964
-0.01575,0.001,0.25125,-0.00013725001,-3.0500001e-05,-0.00024425,1742092223.444673
-0.01525,0.00075,0.251,-1.5250001e-05,0.0,-0.00030525,1742092223.459133
-0.01475,0.00075,0.25175,-0.00010675,0.000183,-0.0003205,1742092223.473668
-0.0145,0.00025,0.2515,0.0,0.0005645,-0.0001525,1742092223.487981
-0.01575,0.001,0.25,0.00029,0.0008545,1.5250001e-05,1742092223.502306
-0.016,0.00275,0.2515,0.000183,0.0003815,-0.0002595,1742092223.5166268
-0.01525,0.0025,0.25325,0.0002135,0.00024425,-0.00067150005,1742092223.530984
-0.01525,0.00075,0.25075,0.0004425,0.0005645,-0.000473,1742092223.546326
-0.0155,0.00025,0.2495,0.00054925,0.00057975,-0.00029,1742092223.559724
-0.01575,0.00125,0.2495,9.15e-05,0.000122000005,-0.00024425,1742092223.5739572
-0.01525,0.002,0.25125,-0.00016775,-6.1000002e-05,-0.0003205,1742092223.588367
-0.015,0.00175,0.25175,7.625e-05,-1.5250001e-05,-0.00045775,1742092223.602782
-0.01475,0.0015,0.25075,0.00013725001,0.00013725001,-0.00045775,1742092223.6172318
-0.0145,0.002,0.25125,-0.00033575002,0.0003205,-0.00061025,1742092223.631623
-0.01525,0.0005,0.25075,-0.000412,0.0003815,-0.00065625,1742092223.646517
-0.01575,-0.00025,0.24975,-0.00039675,0.000412,-0.000534,1742092223.660557
-0.015,0.00025,0.25125,-0.00067150005,0.00016775,-0.00010675,1742092223.674915
-0.01475,0.001,0.2515,-0.000824,-3.0500001e-05,6.1000002e-05,1742092223.689353
-0.015,0.0015,0.2505,-0.000763,-7.625e-05,0.0001525,1742092223.703712
-0.0145,0.00275,0.251,-0.00071725,-9.15e-05,0.000122000005,1742092223.718294
-0.0145,0.003,0.252,-0.000763,-0.0002135,1.5250001e-05,1742092223.7328908
-0.01475,0.00225,0.2515,-0.00074775,-0.0001525,-4.575e-05,1742092223.747406
-0.01475,0.002,0.2505,-0.00070200005,0.0,-6.1000002e-05,1742092223.761722
-0.015,0.00325,0.25075,-0.00077825,-9.15e-05,0.0,1742092223.776968
-0.015,0.004,0.25125,-0.0009155,-0.000183,9.15e-05,1742092223.790731
-0.015,0.00425,0.25175,-0.000885,-0.00016775,0.00010675,1742092223.805076
-0.014,0.0045,0.2525,-0.00064075,-9.15e-05,-1.5250001e-05,1742092223.8196192
-0.01425,0.00475,0.2525,-0.00024425,0.0001525,-0.0003205,1742092223.8340118
-0.0145,0.0065,0.2545,-0.00013725001,0.0003815,-0.000473,1742092223.8484101
-0.01425,0.00775,0.25625,0.00065625,0.00149525,-0.00071725,1742092223.8629062
-0.01425,0.00125,0.2525,0.00115975,0.00225825,-0.0005645,1742092223.877293
-0.011,-0.0045,0.24775,0.001709,0.0022277501,-4.575e-05,1742092223.891598
-0.01125,-0.0055,0.248,0.001892,0.0009765,0.00062550005,1742092223.906958
-0.01775,-0.0005,0.25,0.001831,4.575e-05,0.00108325,1742092223.9205382
-0.018,0.0035,0.25075,0.000824,0.00030525,0.00068675,1742092223.93473
-0.01225,0.0,0.2515,0.0005035,0.00039675,0.00048825,1742092223.9489658
-0.011,-0.00225,0.2525,0.0008545,0.00045775,0.00093075,1742092223.9632761
-0.01425,0.0035,0.2525,0.000946,0.00064075,0.0012207499,1742092223.977608
-0.0145,0.0015,0.25125,0.00071725,0.001007,0.0009765,1742092223.991903
-0.011,-0.00125,0.25075,0.00099175,0.00086975005,0.000885,1742092224.006189
-0.012,0.001,0.25125,0.00148,0.00062550005,0.00099175,1742092224.0203352
-0.014,0.003,0.2505,0.00163275,0.00070200005,0.00096125,1742092224.034538
-0.01375,0.0025,0.24975,0.001114,0.00045775,0.00057975,1742092224.04884
-0.013,0.0005,0.25125,0.00061025,4.575e-05,6.1000002e-05,1742092224.0630982
-0.01025,-0.00675,0.24975,0.000763,0.000183,0.000229,1742092224.077682
-0.01,-0.0075,0.249,0.00080875,-0.00013725001,0.00112925,1742092224.092061
-0.01275,0.002,0.252,0.00065625,-0.000183,0.00131225,1742092224.106436
-0.01275,0.003,0.2525,0.000534,-6.1000002e-05,0.0011445,1742092224.120738
-0.0135,0.00225,0.252,0.00039675,-7.625e-05,0.00059500005,1742092224.135089
-0.01175,-0.0025,0.25075,0.000183,-0.000229,0.00042725,1742092224.149608
-0.00925,-0.0055,0.25125,-3.0500001e-05,0.0,0.000824,1742092224.16399
-0.0105,-0.0035,0.251,0.000183,0.0001525,0.0012665,1742092224.1783319
-0.0135,0.00125,0.25125,0.00016775,-3.0500001e-05,0.0012665,1742092224.1926248
-0.00925,-0.00425,0.2555,9.15e-05,-0.00010675,0.00093075,1742092224.20698
-0.00825,-0.0065,0.257,0.0005035,0.00027475,0.001068,1742092224.2212842
-0.01025,-0.0045,0.25525,0.00193775,0.00149525,0.00201425,1742092224.236824
-0.01175,-0.00475,0.249,0.00201425,0.0017242499,0.0022125002,1742092224.250087
-0.011,-0.0075,0.24925,0.00093075,0.001831,0.00279225,1742092224.264637
-0.01325,-0.00075,0.2495,0.0004425,0.0016632499,0.0030669998,1742092224.278952
-0.0135,0.0035,0.2495,-0.00024425,0.0009765,0.0026092501,1742092224.293215
-0.01125,-0.003,0.2515,-0.00051875,0.00090025004,0.0021057501,1742092224.307586
-0.0105,-0.00325,0.252,-0.00057975,0.0009155,0.00187675,1742092224.322009
-0.01225,0.002,0.25175,-0.00035100002,0.00102225,0.0017852499,1742092224.336803
-0.01275,0.00375,0.25075,-0.00042725,0.00109875,0.00160225,1742092224.350892
-0.013,0.0035,0.24975,-0.00093075,0.00054925,0.0009155,1742092224.366812
-0.0095,-0.0015,0.25325,-0.00099175,0.00019825,0.00054925,1742092224.379573
-0.0085,-0.00225,0.25475,-0.0005645,0.00057975,0.0003815,1742092224.3940322
-0.0075,-0.0025,0.25275,-0.00042725,0.001068,0.00065625,1742092224.408371
-0.00825,-0.00225,0.2495,-0.0007325,0.00112925,0.00080875,1742092224.422842
-0.00725,-0.0015,0.24825,-0.0009765,0.00067150005,0.00059500005,1742092224.4372559
-0.00775,-0.0015,0.24825,-0.0012207499,0.00024425,0.00048825,1742092224.451844
-0.00825,-0.00175,0.24825,-0.00187675,-0.0007325,0.0005035,1742092224.46667
-0.009,0.00125,0.251,-0.0020295,-0.001114,0.000473,1742092224.481044
-0.0095,0.001,0.25,-0.0021972498,-0.00148,0.00030525,1742092224.496793
-0.0105,-0.0005,0.247,-0.0025025,-0.0020752498,0.00036625,1742092224.5100741
-0.011,-0.00175,0.247,-0.0032195,-0.0034637498,0.0003815,1742092224.524696
-0.011,0.00175,0.25,-0.00340275,-0.003769,0.0003205,1742092224.539089
-0.01075,0.00325,0.25225,-0.003296,-0.00381475,0.0004425,1742092224.553716
-0.013,0.004,0.25425,-0.0029449998,-0.0036010002,0.00051875,1742092224.568233
-0.014,0.00475,0.25325,-0.00245675,-0.00328075,0.000534,1742092224.582726
-0.0155,0.0045,0.24925,-0.001648,-0.0029907501,0.00054925,1742092224.597186
-0.016,0.00425,0.24725,-0.00160225,-0.0032347501,0.00064075,1742092224.6115892
-0.016,0.00475,0.2475,-0.0020295,-0.0040587503,0.00090025004,1742092224.6269062
-0.01625,0.00625,0.25,-0.0021819999,-0.00434875,0.0009765,1742092224.640606
-0.01725,0.007,0.251,-0.002411,-0.0045625,0.001068,1742092224.656158
-0.019,0.0085,0.2505,-0.0025940002,-0.00453175,0.0012055,1742092224.6694012
-0.01975,0.00825,0.25125,-0.0027160002,-0.00453175,0.0012207499,1742092224.6838021
-0.02225,0.009,0.2525,-0.0025940002,-0.0043335,0.001114,1742092224.6983309
-0.024,0.01,0.2505,-0.0025025,-0.00408925,0.0011445,1742092224.712693
-0.025,0.0115,0.2495,-0.00242625,-0.004242,0.00112925,1742092224.7272608
-0.02475,0.01275,0.25125,-0.00239575,-0.00440975,0.0011445,1742092224.7416909
-0.0255,0.01325,0.25125,-0.00201425,-0.0042115003,0.000885,1742092224.7564359
-0.02775,0.01425,0.2515,-0.00175475,-0.0040587503,0.0005645,1742092224.770884
-0.0285,0.01425,0.25275,-0.00131225,-0.0035095,0.000122000005,1742092224.785295
-0.03025,0.0125,0.25375,-0.00105275,-0.0028687501,3.0500001e-05,1742092224.7997
-0.031,0.01275,0.252,-0.00042725,-0.00160225,-4.575e-05,1742092224.814186
-0.0315,0.01325,0.2505,-0.00016775,-0.0012665,-6.1000002e-05,1742092224.82864
-0.0315,0.01225,0.2505,1.5250001e-05,-0.00105275,-0.00010675,1742092224.8431911
-0.03125,0.012,0.2525,0.000412,-0.0003815,-0.00027475,1742092224.857596
-0.03125,0.013,0.25425,0.000885,0.0002135,-0.0003815,1742092224.8718941
-0.03175,0.0125,0.25175,0.00177,0.001114,-0.00045775,1742092224.8863091
-0.0305,0.0105,0.246,0.00177,0.00115975,-0.0004425,1742092224.900501
-0.02975,0.01,0.246,0.001175,0.00071725,-0.00035100002,1742092224.914786
-0.02925,0.00975,0.248,0.00090025004,0.00048825,-0.0003205,1742092224.929198
-0.029,0.01,0.24875,0.00067150005,0.00036625,-0.00030525,1742092224.943567
-0.02975,0.011,0.2515,0.0004425,0.0003205,-0.00029,1742092224.95784
-0.02975,0.01075,0.253,0.00054925,0.00051875,-0.00033575002,1742092224.972189
-0.02925,0.01075,0.2535,0.0012207499,0.0013275,-0.000473,1742092224.986645
-0.02925,0.011,0.252,0.00154125,0.0016785001,-0.00054925,1742092225.000812
-0.02825,0.00975,0.25225,0.00193775,0.0023039998,-0.00059500005,1742092225.015197
-0.0275,0.0085,0.24875,0.0021515,0.0025940002,-0.0004425,1742092225.02945
-0.02775,0.01175,0.2465,0.00228875,0.002533,-0.00036625,1742092225.043838
-0.02775,0.0105,0.24525,0.0013885,0.0017242499,-0.0005645,1742092225.0582871
-0.02575,0.00525,0.24775,0.00071725,0.0014037499,-0.0005035,1742092225.072605
-0.02475,0.00175,0.24975,0.00062550005,0.00115975,-0.00019825,1742092225.0869
-0.02625,0.00775,0.25125,0.00086975005,0.001114,-7.625e-05,1742092225.101208
-0.02625,0.00775,0.2505,0.00083925005,0.00149525,-1.5250001e-05,1742092225.11658
-0.02525,0.007,0.2495,0.000763,0.00157175,1.5250001e-05,1742092225.129588
-0.02525,0.00875,0.24825,0.00074775,0.00146475,3.0500001e-05,1742092225.143839
-0.02475,0.0075,0.24825,0.00039675,0.00137325,7.625e-05,1742092225.158071
-0.0235,0.00525,0.251,0.00027475,0.00119025,6.1000002e-05,1742092225.1723258
-0.0245,0.0065,0.25125,0.00057975,0.0009155,9.15e-05,1742092225.1868212
-0.024,0.00875,0.251,0.00057975,0.00108325,0.0001525,1742092225.200809
-0.022,0.00725,0.2525,0.00070200005,0.0013580001,0.0,1742092225.216758
-0.02075,0.0075,0.25075,0.0010375,0.001419,-0.00013725001,1742092225.229524
-0.02125,0.00675,0.248,0.0012207499,0.0012817499,-0.00027475,1742092225.243984
-0.02125,0.005,0.247,0.0005645,0.00068675,-0.0002595,1742092225.258322
-0.0215,0.004,0.25,0.00024425,0.00030525,-0.00016775,1742092225.272726
-0.022,0.00425,0.25075,7.625e-05,3.0500001e-05,-1.5250001e-05,1742092225.287327
-0.0225,0.00575,0.25125,6.1000002e-05,0.00013725001,3.0500001e-05,1742092225.3017159
-0.0225,0.0065,0.2515,0.000183,0.0003815,1.5250001e-05,1742092225.3165052
-0.022,0.007,0.25075,0.00035100002,0.00054925,-7.625e-05,1742092225.330519
-0.022,0.006,0.2495,0.000412,0.00036625,-0.0001525,1742092225.344809
-0.02225,0.00475,0.24875,0.0003205,0.000122000005,-0.000122000005,1742092225.3591812
-0.022,0.0045,0.249,0.000183,3.0500001e-05,-6.1000002e-05,1742092225.3734899
-0.02175,0.0045,0.2495,-0.00016775,0.00016775,3.0500001e-05,1742092225.387778
-0.0215,0.00425,0.24975,-9.15e-05,0.00024425,4.575e-05,1742092225.402178
