acc_x,acc_y,acc_z,gyro_x,gyro_y,gyro_z,timestamp
0.239,-0.01575,-0.02525,-7.625e-05,-0.0031585,-0.00064075,1742092327.750061
0.243,-0.01675,-0.01875,0.000412,-0.00325,0.0001525,1742092327.7645922
0.25,-0.01125,-0.00525,0.0009155,-0.0027465,9.15e-05,1742092327.7792242
0.24975,-0.009,-0.00325,0.00143425,-0.0012207499,-0.00039675,1742092327.7937658
0.2425,-0.00775,-0.013,0.00143425,-0.00064075,-0.000412,1742092327.808394
0.23975,-0.007,-0.01875,0.0014495,-0.0004425,-0.0002595,1742092327.822975
0.23925,-0.0045,-0.0215,0.00190725,-0.001068,-0.00039675,1742092327.837574
0.24475,0.004,-0.01625,0.002243,-0.0014037499,-0.000763,1742092327.8520162
0.24825,0.006,-0.01125,0.00245675,-0.0009765,-0.001709,1742092327.867114
0.24825,-0.00075,-0.011,0.0023039998,-0.000473,-0.0019685,1742092327.881089
0.24675,-0.00475,-0.01425,0.0016785001,-0.000229,-0.00143425,1742092327.8956008
0.24675,-0.00475,-0.0165,0.0016175,-0.000412,-0.00112925,1742092327.910173
0.2475,-0.004,-0.0165,0.00216675,-0.00077825,-0.0012665,1742092327.92473
0.2475,-0.003,-0.01475,0.002243,-0.00090025004,-0.00137325,1742092327.939392
0.24875,-0.002,-0.01225,0.00201425,-0.000946,-0.00125125,1742092327.953853
0.25,0.00125,-0.01075,0.0012817499,-0.00059500005,-0.00065625,1742092327.968278
0.2505,0.00125,-0.01175,0.00093075,-0.00029,-0.0004425,1742092327.9828322
0.25075,0.0,-0.013,0.0007935,3.0500001e-05,-0.000534,1742092327.9971662
0.24975,-0.003,-0.01525,0.0010375,4.575e-05,-0.00083925005,1742092328.011677
0.24925,-0.00525,-0.015,0.00146475,-9.15e-05,-0.0013275,1742092328.02684
0.248,-0.00575,-0.01375,0.0014495,-0.00010675,-0.0012665,1742092328.0410721
0.2475,-0.0055,-0.01325,0.00074775,9.15e-05,-0.0005645,1742092328.055564
0.246,-0.00725,-0.0145,0.00042725,0.00024425,-0.00030525,1742092328.069998
0.2445,-0.008,-0.01675,0.000473,0.00035100002,-0.00042725,1742092328.084596
0.2435,-0.009,-0.0195,0.00071725,0.00016775,-0.00059500005,1742092328.098957
0.24425,-0.009,-0.01825,0.0010375,-9.15e-05,-0.00070200005,1742092328.1136022
0.245,-0.00825,-0.016,0.001709,-0.0003815,-0.001007,1742092328.1280599
0.245,-0.006,-0.0135,0.00177,-0.00035100002,-0.00109875,1742092328.142574
0.2445,-0.005,-0.014,0.00108325,-0.000229,-0.00070200005,1742092328.1572769
0.245,-0.003,-0.0155,0.00051875,-0.0001525,-0.00030525,1742092328.171607
0.24625,-0.0035,-0.01525,-0.00010675,-6.1000002e-05,6.1000002e-05,1742092328.18717
0.24725,-0.0065,-0.015,0.00010675,-9.15e-05,-0.0002135,1742092328.200911
0.247,-0.00725,-0.0145,0.00090025004,-0.00024425,-0.00109875,1742092328.215581
0.2475,-0.00825,-0.01275,0.001114,-0.0002135,-0.00131225,1742092328.230068
0.247,-0.00875,-0.01275,0.0011445,-0.000122000005,-0.0013275,1742092328.244576
0.247,-0.00875,-0.0135,0.00067150005,9.15e-05,-0.00077825,1742092328.2590148
0.24825,-0.00875,-0.0125,0.00024425,0.00016775,-0.00033575002,1742092328.273442
0.24925,-0.01,-0.01175,0.000183,0.00029,-0.000183,1742092328.288024
0.248,-0.0155,-0.012,0.0005645,0.00029,-0.0003815,1742092328.302603
0.2475,-0.019,-0.0115,0.0013885,0.00024425,-0.00042725,1742092328.317344
0.2485,-0.03025,-0.00825,0.0017242499,0.0003205,-0.00016775,1742092328.331591
0.24775,-0.0375,-0.007,0.00320425,0.00065625,0.000183,1742092328.34729
0.22825,-0.0425,-0.0115,0.0055085,0.00071725,0.00033575002,1742092328.36048
0.20925,-0.02975,-0.02025,0.014282251,4.575e-05,0.002411,1742092328.3749812
0.1705,0.106,-0.05525,0.018859752,-0.000229,0.0047455,1742092328.3893938
0.15575,0.2685,-0.08025,0.020584,-0.00067150005,0.008545,1742092328.403921
0.15075,0.49825,-0.09225,0.002243,-0.0023497501,0.0173645,1742092328.4185238
0.1535,0.8815,-0.06825,-0.015213001,-0.001709,0.01475525,1742092328.4329522
0.13325,0.851,-0.04775,-0.039093,-3.0500001e-05,-0.0118407495,1742092328.447545
0.115,0.349,0.0415,-0.04296875,-0.0027465,-0.027847249,1742092328.4619699
0.15575,0.018,0.116,-0.0483855,-0.0129700005,-0.038314752,1742092328.477657
0.27375,-0.4965,0.25775,-0.05131525,-0.01452625,-0.029266251,1742092328.491132
0.31475,-0.6095,0.28075,-0.0497895,-0.0070952503,-0.00267025,1742092328.50577
0.34725,-0.588,0.188,-0.042663503,-0.001236,0.004837,1742092328.5202901
0.3285,-0.48775,0.096,-0.032470748,0.0040435,0.00694275,1742092328.534708
0.29875,-0.361,0.01475,-0.01504525,0.0081025,0.0057677496,1742092328.549115
0.26225,-0.14725,-0.0405,-0.010788,0.0065917503,0.0052795,1742092328.5637279
0.267,-0.09725,-0.03475,-0.005783,0.000763,0.000534,1742092328.578309
0.2835,-0.07925,-0.031,-0.0025025,-0.00131225,-0.0039825,1742092328.5930371
0.2875,-0.08525,-0.03,0.00381475,-0.0038299998,-0.0110625,1742092328.607539
0.2925,-0.0995,-0.0095,0.00561525,-0.0038757501,-0.011184749,1742092328.622113
0.28825,-0.10375,0.00025,0.0043944996,-0.00090025004,-0.0042267498,1742092328.637738
0.27025,-0.1015,0.00425,0.0033722501,0.00115975,-0.0001525,1742092328.6510022
0.26025,-0.0875,0.005,0.0033570002,0.0027160002,0.0021057501,1742092328.6652958
0.247,-0.0515,0.009,0.003769,0.00419625,0.00213625,1742092328.679542
0.2435,-0.0445,0.009,0.00334175,0.0045777503,0.0019989999,1742092328.693912
0.23925,-0.0415,0.008,0.0018005001,0.0050202496,0.0033570002,1742092328.7082639
0.2335,-0.036,0.0045,0.0009155,0.005066,0.0043335,1742092328.722611
0.23025,-0.032,0.00275,0.00067150005,0.0046539996,0.0043639997,1742092328.7377448
0.22475,-0.0255,-0.00575,0.0014495,0.003769,0.0030975002,1742092328.7516239
0.225,-0.023,-0.01025,0.00343325,0.00149525,-0.00036625,1742092328.7674181
0.2295,-0.02025,-0.012,0.00416575,0.00070200005,-0.00187675,1742092328.780573
0.23275,-0.02225,-0.01,0.0044555003,0.0002135,-0.0027465,1742092328.794972
0.2365,-0.024,-0.007,0.0036162501,1.5250001e-05,-0.00201425,1742092328.809439
0.23975,-0.023,-0.007,0.00283825,0.00027475,-0.00090025004,1742092328.8241
0.24,-0.024,-0.0105,0.00175475,0.000824,0.00064075,1742092328.8384929
0.23975,-0.03175,-0.017,0.0019685,0.00083925005,0.0003815,1742092328.853055
0.2395,-0.03575,-0.01875,0.0035095,0.00024425,-0.0012207499,1742092328.867593
0.2425,-0.039,-0.0155,0.0041810004,-0.00030525,-0.001892,1742092328.882088
0.246,-0.0405,-0.011,0.004486,-0.00119025,-0.00213625,1742092328.897814
0.2505,-0.046,-0.00575,0.00437925,-0.0012055,-0.0017852499,1742092328.911359
0.2485,-0.049,-0.0075,0.00434875,-0.0009765,-0.00146475,1742092328.926097
0.24,-0.05425,-0.01725,0.00466925,-0.00061025,-0.001068,1742092328.9408
0.23825,-0.056,-0.0205,0.00488275,-0.000763,-0.000824,1742092328.9553971
0.23825,-0.0565,-0.021,0.0056,-0.00137325,9.15e-05,1742092328.969919
0.238,-0.054,-0.01825,0.0060882503,-0.00157175,0.00061025,1742092328.984482
0.238,-0.05225,-0.0165,0.006546,-0.0019685,0.00119025,1742092328.999029
0.241,-0.05275,-0.01525,0.006668,-0.0021057501,0.00125125,1742092329.014346
0.2425,-0.052,-0.0155,0.00791925,-0.0020752498,0.00125125,1742092329.028001
0.2455,-0.03875,-0.01475,0.008499251,-0.00204475,0.00131225,1742092329.042809
0.24625,-0.03,-0.01275,0.008209251,-0.002121,0.001892,1742092329.058225
0.24675,-0.02425,-0.008,0.007553,-0.0022277501,0.00216675,1742092329.071485
0.24825,-0.0265,-0.007,0.0070342496,-0.00228875,0.0023039998,1742092329.086004
0.25,-0.0285,-0.0075,0.00744625,-0.0019989999,0.00160225,1742092329.10054
0.24925,-0.02425,-0.00725,0.008224499,-0.0017852499,0.000885,1742092329.1150122
0.24875,-0.02075,-0.0065,0.009369001,-0.00181575,-0.000229,1742092329.129566
0.2485,-0.02075,-0.0055,0.00947575,-0.0019685,-0.000473,1742092329.144033
0.24775,-0.02375,-0.006,0.0089875,-0.0020752498,-0.000412,1742092329.158527
0.24625,-0.02825,-0.009,0.00880425,-0.001892,-0.00045775,1742092329.173074
0.24575,-0.0285,-0.01075,0.00897225,-0.00143425,-0.00077825,1742092329.187555
0.246,-0.02775,-0.011,0.0090637505,-0.00146475,-0.0007325,1742092329.2020311
0.2465,-0.0285,-0.00975,0.008941749,-0.0016632499,-0.00051875,1742092329.217201
0.24425,-0.037,-0.0065,0.008133001,-0.0021515,0.00024425,1742092329.230965
0.242,-0.04425,-0.0045,0.00798025,-0.0023039998,0.00067150005,1742092329.24544
0.23975,-0.05025,-0.004,0.0097045,-0.0026245,0.00137325,1742092329.259988
0.24425,-0.05075,-0.01025,0.0113525,-0.00279225,0.001419,1742092329.274425
0.24525,-0.04675,-0.01325,0.01278675,-0.002777,0.0003205,1742092329.288977
0.24425,-0.04925,-0.01025,0.0125885,-0.0029449998,-1.5250001e-05,1742092329.303561
0.243,-0.056,-0.0065,0.01260375,-0.0038757501,0.00027475,1742092329.318078
0.24575,-0.0655,-0.0005,0.01307675,-0.004303,0.0012055,1742092329.332631
0.25225,-0.06125,0.00125,0.014206001,-0.0048979996,0.0033570002,1742092329.347855
0.25475,-0.04,0.01,0.01440425,-0.00485225,0.00367725,1742092329.3614771
0.248,-0.0235,0.01625,0.014206001,-0.0047912505,0.0036162501,1742092329.375826
0.244,-0.0065,0.02175,0.011749251,-0.00585925,0.0037537501,1742092329.390125
0.2595,0.008,0.03225,0.010666001,-0.0062407497,0.0043639997,1742092329.404505
0.266,0.014,0.03125,0.01374825,-0.0042725,0.005066,1742092329.418765
0.26025,0.08675,0.0285,0.016296498,-0.00354,0.005539,1742092329.4330602
0.2575,0.17275,0.03625,0.01570125,-0.00491325,0.00941475,1742092329.447335
0.2475,0.4485,0.0635,0.01245125,-0.0044555003,0.01098625,1742092329.461484
0.22,0.63525,0.065,0.0068512503,-0.0022125002,0.0114135,1742092329.4771469
0.19775,0.78825,0.05225,-0.01510625,0.0029755002,0.00485225,1742092329.490088
0.16825,0.7995,0.01175,-0.0249175,0.00460825,-0.0036010002,1742092329.504591
0.12775,0.677,0.00025,-0.037155252,0.0058287503,-0.025528,1742092329.518883
0.062,0.25325,0.0165,-0.04685975,0.0055847503,-0.02996825,1742092329.533323
0.0765,-0.01775,0.05175,-0.06318675,0.0033722501,-0.02124025,1742092329.547654
0.189,-0.49125,0.178,-0.05947875,-0.000229,-0.016723748,1742092329.56223
0.27,-0.6475,0.251,-0.04933175,-0.00488275,-0.015442001,1742092329.5774112
0.3565,-0.73775,0.3055,-0.02886975,-0.0061645,-0.0099945,1742092329.591295
0.42675,-0.67325,0.2435,-0.021988,0.0016175,-0.0029449998,1742092329.607142
0.378,-0.54675,0.1375,-0.013061499,0.0219575,0.010498,1742092329.620085
0.228,-0.27,-0.05375,-0.0069580004,0.02610775,0.013046251,1742092329.6345658
0.18725,-0.17925,-0.1015,0.0051269997,0.01628125,0.00817875,1742092329.648844
0.17725,-0.09375,-0.1125,0.0079955,0.00817875,0.0048674997,1742092329.663271
0.1835,-0.0705,-0.1015,0.009643501,0.00125125,0.0021972498,1742092329.6780632
0.21775,-0.0385,-0.05425,0.011734,-0.008636501,-0.001114,1742092329.6921878
0.237,-0.0285,-0.02175,0.01187125,-0.010681249,-0.0015565,1742092329.7074711
0.25,-0.023,0.003,0.010879501,-0.009231499,-0.0015565,1742092329.721243
0.25775,-0.00975,0.02775,0.010437001,-0.00770575,-0.001648,1742092329.735693
0.26025,0.00225,0.0355,0.0080872495,-0.0055237496,-0.00149525,1742092329.7501628
0.2725,0.01025,0.044,0.0060272496,-0.00440975,-0.0012817499,1742092329.764549
0.27425,-0.0,0.041,0.0032655,-0.00112925,-0.0004425,1742092329.778987
0.2555,-0.01375,0.0255,0.00228875,0.00062550005,0.00035100002,1742092329.793292
0.2465,-0.017,0.01925,0.00115975,0.00201425,0.0012055,1742092329.807879
0.2425,-0.02275,0.0145,0.000412,0.003296,0.00143425,1742092329.8219981
0.2405,-0.03875,0.007,0.001114,0.00296025,0.00065625,1742092329.838018
0.24175,-0.04875,0.00425,0.002365,0.00096125,-0.00109875,1742092329.850707
0.24425,-0.05625,0.003,0.0026092501,0.0002135,-0.000824,1742092329.865074
0.245,-0.0525,0.00425,0.0028229998,-0.0005035,0.00086975005,1742092329.8794649
0.24125,-0.03825,0.00125,0.0029755002,-0.0007935,0.00099175,1742092329.893806
0.2385,-0.0345,-0.002,0.0030975002,-0.00112925,0.00048825,1742092329.908252
0.234,-0.03875,-0.0075,0.00352475,-0.0014495,-0.00083925005,1742092329.922737
0.233,-0.04125,-0.00875,0.0038757501,-0.00154125,-0.0012207499,1742092329.937927
0.23275,-0.042,-0.01,0.00393675,-0.00204475,-0.00042725,1742092329.951906
0.23575,-0.03525,-0.009,0.0036010002,-0.00238025,0.00051875,1742092329.967577
0.2375,-0.02975,-0.00725,0.0028229998,-0.00245675,0.00149525,1742092329.9807549
0.2365,-0.0305,-0.00725,0.00267025,-0.0022735,0.0013275,1742092329.9952261
0.23575,-0.038,-0.009,0.0028229998,-0.0023497501,0.001526,1742092330.009705
0.2375,-0.04525,-0.00925,0.00302125,-0.00270075,0.002243,1742092330.024199
0.23975,-0.04175,-0.0075,0.0032655,-0.00317375,0.003128,1742092330.038657
0.24025,-0.02525,-0.00075,0.003296,-0.00460825,0.0053252503,1742092330.053195
0.243,-0.01325,0.003,0.0033570002,-0.00520325,0.006256,1742092330.067574
0.247,-0.01075,0.0045,0.0043639997,-0.00488275,0.00561525,1742092330.081967
0.24825,-0.01925,0.00775,0.00444025,-0.00440975,0.0047302498,1742092330.0976388
0.2495,-0.02525,0.01075,0.0045012496,-0.00355525,0.0029145,1742092330.1108742
0.25525,-0.0325,0.01425,0.00485225,-0.00305175,0.00238025,1742092330.125275
0.25575,-0.02875,0.0135,0.0054475004,-0.00225825,0.002655,1742092330.139539
0.25425,-0.01325,0.01425,0.0053252503,-0.0020752498,0.0029449998,1742092330.153895
0.25075,-0.012,0.01575,0.0050812503,-0.0021515,0.0030669998,1742092330.168313
0.24825,-0.01825,0.01575,0.0049895,-0.00267025,0.0019685,1742092330.182581
0.24775,-0.03325,0.01325,0.00564575,-0.00276175,0.00083925005,1742092330.197705
0.24925,-0.03575,0.013,0.00767525,-0.0023497501,-0.00057975,1742092330.211393
0.24975,-0.028,0.01575,0.00839225,-0.0020752498,-0.0003815,1742092330.2259772
0.247,-0.02275,0.0175,0.0080415,-0.0016785001,0.00074775,1742092330.240353
0.24225,-0.02,0.0195,0.00708,-0.00160225,0.0013427499,1742092330.2546968
0.24225,-0.02475,0.01925,0.00617975,-0.00169375,0.00177,1742092330.2691991
0.2435,-0.03675,0.01675,0.00593575,-0.0020752498,0.00169375,1742092330.2835782
0.24425,-0.03775,0.0165,0.0066374997,-0.0022735,0.00169375,1742092330.29806
0.245,-0.03475,0.019,0.00794975,-0.0024872501,0.003128,1742092330.312651
0.2465,-0.0225,0.02875,0.0080415,-0.00238025,0.0038299998,1742092330.327203
0.246,-0.017,0.033,0.0079955,-0.00163275,0.00320425,1742092330.3414478
0.246,-0.0145,0.03125,0.008361749,-0.001236,0.002243,1742092330.357258
0.2475,-0.0145,0.02825,0.0088805,-0.001007,0.0012970001,1742092330.3702831
0.24875,-0.01475,0.02575,0.008590749,-0.0011445,0.00190725,1742092330.3845592
0.249,-0.01425,0.0275,0.0080415,-0.0012055,0.00292975,1742092330.398952
0.24925,-0.01325,0.031,0.0072175004,-0.00074775,0.00393675,1742092330.413379
0.2515,-0.0145,0.04175,0.0075835,-0.00051875,0.0036315,1742092330.4276679
0.2525,-0.01925,0.045,0.010803251,-4.575e-05,0.00187675,1742092330.442091
0.2525,-0.0155,0.04,0.012557999,0.0003815,0.001419,1742092330.457781
0.25225,0.00075,0.03775,0.013137749,0.0012207499,0.0028229998,1742092330.470679
0.25175,0.0445,0.0455,0.012619001,0.000885,0.0039215,1742092330.4847848
0.251,0.0625,0.0465,0.01248175,-7.625e-05,0.0052185003,1742092330.499052
0.25525,0.08375,0.04725,0.012207,0.001236,0.0073242504,1742092330.5132859
0.2715,0.16625,0.06025,0.012267999,0.00302125,0.0077667497,1742092330.527439
0.27325,0.23125,0.058,0.0101165,0.0052795,0.00880425,1742092330.541673
0.2725,0.41975,0.048,0.0054932497,0.00688175,0.0095672505,1742092330.555938
0.252,0.5395,0.043,-0.00842275,0.01115425,0.006836,1742092330.57025
0.16725,0.729,-0.00575,-0.016143749,0.013382,-0.000122000005,1742092330.584665
0.11425,0.71775,-0.05975,-0.0238495,0.01368725,-0.00953675,1742092330.599071
0.07225,0.61725,-0.082,-0.04202275,0.006073,-0.0212555,1742092330.613556
0.07425,0.25575,0.01225,-0.051056,0.000824,-0.0220185,1742092330.628
0.09075,0.0395,0.0575,-0.058486998,-0.00399775,-0.021179251,1742092330.642297
0.1535,-0.38075,0.12625,-0.0585175,-0.0052185003,-0.0177155,1742092330.657689
0.2095,-0.5425,0.175,-0.04815675,-0.008865249,-0.0077972496,1742092330.671359
0.33975,-0.697,0.25775,-0.03810125,-0.00935375,-0.00491325,1742092330.685914
0.39375,-0.67725,0.26125,-0.019638,-0.0028535,0.00033575002,1742092330.700383
0.386,-0.4675,0.16775,-0.013336251,0.0025940002,0.0068665,1742092330.7149062
0.338,-0.3485,0.09775,-0.00874325,0.007309,0.012313751,1742092330.729248
0.2885,-0.25125,0.0255,0.0031889998,0.008651749,0.006363,1742092330.7435122
0.21625,-0.1195,-0.064,0.009201,0.0059815003,0.001175,1742092330.7578702
0.202,-0.0675,-0.0695,0.011673001,-0.0004425,0.00027475,1742092330.7723799
0.20425,0.019,-0.043,0.01020825,-0.001709,0.0022735,1742092330.7879272
0.21275,0.04275,-0.031,0.008636501,-0.0028229998,0.00099175,1742092330.800979
0.23725,0.044,-0.00525,0.008255,-0.003662,-0.001419,1742092330.815434
0.249,0.03575,0.0125,0.00788875,-0.0042725,-0.0034484998,1742092330.8298082
0.25725,0.028,0.028,0.006302,-0.0038757501,-0.00491325,1742092330.844165
0.27625,0.0085,0.055,0.0048065,-0.00320425,-0.0046845004,1742092330.858542
0.28325,-0.004,0.06475,0.0013580001,-0.00099175,-0.0029755002,1742092330.873149
0.277,-0.01825,0.05925,-0.00057975,0.00070200005,-0.001419,1742092330.887653
0.27,-0.0215,0.0485,-0.0030669998,0.0037995,0.000885,1742092330.9020889
0.259,-0.0255,0.0315,-0.003006,0.00437925,0.00062550005,1742092330.917584
0.25625,-0.02975,0.02725,-0.00154125,0.0036010002,-0.001236,1742092330.931009
0.25275,-0.04025,0.02025,-0.0007935,0.00314325,-0.00163275,1742092330.9454741
0.2505,-0.0405,0.0165,-0.000183,0.0029449998,-0.00148,1742092330.960201
0.248,-0.0375,0.01275,0.00090025004,0.0027160002,-0.001175,1742092330.974528
0.2415,-0.031,0.004,0.00143425,0.0024872501,-0.00148,1742092330.988852
0.23925,-0.03175,-0.0005,0.00190725,0.0020295,-0.00175475,1742092331.003268
0.2365,-0.03475,-0.0055,0.00198375,0.00190725,-0.0014495,1742092331.017662
0.235,-0.03525,-0.00525,0.0019225,0.00137325,-0.000473,1742092331.032154
0.2355,-0.03625,-0.00075,0.001953,0.000946,-0.000122000005,1742092331.047078
0.2375,-0.03625,0.001,0.0025787498,0.000229,-0.00019825,1742092331.061057
0.24,-0.035,0.0015,0.00302125,4.575e-05,-0.00036625,1742092331.075454
0.24025,-0.03425,0.00075,0.00320425,-9.15e-05,-0.00039675,1742092331.0899441
0.241,-0.034,0.00025,0.0024872501,-0.000473,0.00027475,1742092331.104384
0.243,-0.03625,0.005,0.001831,-0.00064075,0.00099175,1742092331.1186619
0.2425,-0.039,0.00775,0.0013275,-0.00061025,0.0017395001,1742092331.132991
0.242,-0.0495,0.00675,0.0017242499,-0.000473,0.00154125,1742092331.147375
0.24375,-0.052,0.0055,0.0034484998,-0.000183,0.0013580001,1742092331.161671
0.2425,-0.04225,0.002,0.0046234997,-3.0500001e-05,0.001114,1742092331.176203
0.24025,-0.0345,0.00125,0.0053709997,4.575e-05,0.000885,1742092331.190451
0.23975,-0.0285,0.00175,0.0047455,-4.575e-05,0.0012207499,1742092331.2048068
0.24075,-0.02525,0.00425,0.004074,-6.1000002e-05,0.00163275,1742092331.2191849
0.2405,-0.0275,0.00375,0.0033875,0.000122000005,0.00213625,1742092331.233442
0.24175,-0.03475,0.0005,0.0036315,0.00027475,0.0020295,1742092331.24786
0.24275,-0.0375,-0.00125,0.00646975,0.00061025,0.00019825,1742092331.262252
0.2435,-0.0365,-0.00575,0.00839225,0.00062550005,-0.0010375,1742092331.2777312
0.24425,-0.03025,-0.00575,0.009658749,0.000473,-0.0016175,1742092331.291153
0.246,-0.02225,-0.0015,0.008865249,-0.00016775,7.625e-05,1742092331.305612
0.2505,-0.0105,0.01025,0.0077515002,-0.00030525,0.00143425,1742092331.31995
0.25,-0.01,0.011,0.008651749,0.00030525,0.001114,1742092331.334201
0.244,-0.02,0.001,0.0102235,0.00067150005,-7.625e-05,1742092331.348535
0.24175,-0.027,-0.0035,0.0122985,0.000534,-0.000885,1742092331.3630688
0.2405,-0.0345,-0.00375,0.012146,0.00016775,0.00016775,1742092331.377748
0.24075,-0.02975,-0.0005,0.01019275,-0.0003815,0.00343325,1742092331.3921762
0.24425,-0.01475,0.00725,0.00924675,-0.00062550005,0.004242,1742092331.407428
0.2465,-0.01375,0.01,0.0089569995,-0.000946,0.0043182503,1742092331.420867
0.2485,-0.02,0.01125,0.010086001,-0.001419,0.00328075,1742092331.4352598
0.25175,-0.0315,0.01225,0.010818499,-0.0013275,0.0027160002,1742092331.4495208
0.2515,-0.03375,0.0115,0.01194775,-0.00102225,0.0021057501,1742092331.464076
0.2515,-0.03525,0.01275,0.012375,-0.0010375,0.00201425,1742092331.478442
0.254,-0.033,0.01625,0.012680001,-0.000946,0.0024872501,1742092331.4927628
0.257,-0.024,0.022,0.012436,-0.00068675,0.0030365,1742092331.5074759
0.2575,-0.021,0.0245,0.01194775,-0.000473,0.00364675,1742092331.52136
0.25875,-0.02175,0.0265,0.011917,-6.1000002e-05,0.00399775,1742092331.535732
0.2605,-0.02625,0.0265,0.013275251,0.000183,0.00328075,1742092331.549972
0.25925,-0.025,0.0235,0.01661675,0.00048825,0.0019989999,1742092331.5642612
0.25275,-0.00525,0.02025,0.01722725,0.00057975,0.00251775,1742092331.5784729
0.25025,0.00925,0.02175,0.01593025,0.001068,0.0054015,1742092331.592619
0.24625,0.04275,0.028,0.01513675,0.00157175,0.0065612504,1742092331.607191
0.24375,0.0585,0.02025,0.01510625,0.00204475,0.0070342496,1742092331.621086
0.24025,0.08225,0.00625,0.01940925,0.0020599999,0.0067445002,1742092331.6352699
0.22275,0.192,-0.016,0.023758,0.00149525,0.005005,1742092331.649535
0.21375,0.27975,-0.0185,0.0249635,-6.1000002e-05,0.0017242499,1742092331.663935
0.19375,0.4875,-0.00975,0.018585252,-0.00027475,0.0023345,1742092331.6784582
0.1725,0.581,-0.00725,-0.003296,-0.00036625,0.0052795,1742092331.6929688
0.14925,0.65825,0.02825,-0.01490775,-0.00125125,0.00355525,1742092331.707509
0.1365,0.63725,0.05575,-0.0242005,-0.0016632499,-0.0026854998,1742092331.721984
0.11075,0.5675,0.066,-0.0391235,-0.00080875,-0.019699,1742092331.737188
0.0665,0.27875,0.04975,-0.049087502,-0.001419,-0.02342225,1742092331.7510169
0.08725,0.0565,0.08275,-0.067093,-0.009521499,-0.02064525,1742092331.7654212
0.23775,-0.41975,0.23075,-0.065307505,-0.014145001,-0.01832575,1742092331.780069
0.319,-0.5545,0.29575,-0.043701246,-0.01245125,-0.017578252,1742092331.794652
0.39325,-0.6185,0.28225,-0.03515625,-0.006546,-0.01741025,1742092331.809257
0.3835,-0.61325,0.2045,-0.0302735,0.0063325,-0.0017852499,1742092331.823658
0.321,-0.493,0.043,-0.026764,0.01020825,0.00930775,1742092331.8381
0.291,-0.38325,-0.00025,-0.01882925,0.010391249,0.013031,1742092331.852694
0.24225,-0.17675,-0.03825,0.00231925,0.0042572496,0.004593,1742092331.867401
0.227,-0.11,-0.04675,0.0073547503,0.00119025,0.00149525,1742092331.881441
0.21775,-0.066,-0.04825,0.006012,-0.0012817499,0.00279225,1742092331.895995
0.22325,-0.02025,-0.0305,0.004593,-0.00184625,0.00416575,1742092331.910468
0.23425,-0.0125,-0.01575,0.0048065,-0.003662,0.0028535,1742092331.924979
0.2595,-0.007,0.01975,0.00543225,-0.0041044997,0.0009155,1742092331.9393458
0.2665,-0.00375,0.032,0.0052337497,-0.0030365,-0.000824,1742092331.95386
0.26925,-0.0,0.04175,0.00434875,-0.0018005001,-0.0002135,1742092331.968228
0.269,0.0045,0.04275,0.00325,-0.0005035,0.00067150005,1742092331.982431
0.26475,0.01175,0.04,0.00083925005,0.00187675,0.00149525,1742092331.998164
0.25025,0.02275,0.02775,-9.15e-05,0.002777,0.001175,1742092332.011133
0.24725,0.021,0.02375,-0.000229,0.00358575,-0.0012207499,1742092332.025523
0.2425,-0.0025,0.018,0.00024425,0.00343325,-0.0028687501,1742092332.039962
0.23925,-0.01575,0.01475,0.00059500005,0.0025940002,-0.004486,1742092332.0544362
0.23875,-0.03225,0.01125,0.000412,0.0021972498,-0.00408925,1742092332.068727
0.23875,-0.0355,0.01025,0.0002595,0.001953,-0.0033264998,1742092332.083157
0.236,-0.036,0.00775,0.00057975,0.0013427499,-0.002655,1742092332.097737
0.24075,-0.03675,0.01175,0.00068675,0.0008545,-0.00279225,1742092332.112194
0.24875,-0.04025,0.01775,0.00062550005,0.00067150005,-0.0022735,1742092332.127176
0.2505,-0.04475,0.0155,0.00059500005,0.001007,-0.001419,1742092332.140938
0.24875,-0.0415,0.01075,0.000473,0.0013580001,0.000229,1742092332.155141
0.24475,-0.0355,0.00425,0.00070200005,0.00137325,0.00048825,1742092332.169466
0.24125,-0.03525,0.0015,0.001419,0.001068,0.00065625,1742092332.1838698
0.2355,-0.0365,-0.00125,0.0016785001,0.00064075,0.0005035,1742092332.198226
0.236,-0.039,-0.00025,0.00190725,0.000183,3.0500001e-05,1742092332.212569
0.23675,-0.04225,0.00075,0.0030365,-0.00029,-0.00090025004,1742092332.227799
0.2385,-0.043,0.00225,0.0038757501,-0.00045775,-0.00115975,1742092332.241745
0.241,-0.039,0.00325,0.0047150003,-0.0007935,-0.0009765,1742092332.257596
0.24525,-0.02975,0.00325,0.00453175,-0.0009155,-0.00061025,1742092332.2707388
0.2465,-0.0275,0.00425,0.00396725,-0.00099175,-0.00016775,1742092332.2852118
0.24975,-0.03075,0.0095,0.0037995,-0.0009765,-0.00013725001,1742092332.299716
0.25125,-0.03475,0.0105,0.00411975,-0.00070200005,-1.5250001e-05,1742092332.3142312
0.251,-0.0355,0.006,0.0044555003,-0.0005035,0.00033575002,1742092332.328521
0.25,-0.031,0.00325,0.0047302498,-0.000412,0.000824,1742092332.342867
0.24825,-0.026,0.00125,0.0050965,-0.000763,0.00105275,1742092332.357368
0.24775,-0.027,0.00575,0.0051880004,-0.001114,0.0007935,1742092332.371547
0.25,-0.032,0.01275,0.00593575,-0.0012970001,0.00013725001,1742092332.385976
0.2495,-0.0405,0.0185,0.0065002497,-0.00102225,-0.00019825,1742092332.400537
0.2475,-0.043,0.017,0.00671375,-0.000473,0.0004425,1742092332.415145
0.242,-0.04375,0.01175,0.006607,-0.00029,0.001175,1742092332.429524
0.23975,-0.04325,0.00825,0.0065612504,-0.000229,0.00181575,1742092332.443996
0.23725,-0.04275,0.00425,0.00717175,-0.00045775,0.00251775,1742092332.4583528
0.2365,-0.03675,0.00075,0.007843,-0.000763,0.0025940002,1742092332.472706
0.2385,-0.031,0.0035,0.0093385,-0.00137325,0.002411,1742092332.4872189
0.2415,-0.023,0.0115,0.0095672505,-0.001587,0.00245675,1742092332.501445
0.243,-0.022,0.015,0.008194,-0.0016632499,0.00358575,1742092332.5171342
0.247,-0.0205,0.01775,0.007599,-0.00125125,0.0040435,1742092332.530218
0.24675,-0.01725,0.015,0.00794975,-0.0002595,0.0039215,1742092332.544651
0.2435,-0.00425,0.00825,0.008667,-0.00030525,0.003662,1742092332.559028
0.24325,0.00125,0.00825,0.0091095,-0.00074775,0.00334175,1742092332.573348
0.2445,0.0025,0.0125,0.00823975,-0.00154125,0.0025940002,1742092332.5876238
0.24675,-0.00875,0.02075,0.00767525,-0.00146475,0.0022125002,1742092332.602141
0.24575,-0.01625,0.01975,0.0075225,-0.00062550005,0.00169375,1742092332.616626
0.24375,-0.02475,0.0115,0.0077667497,-0.00033575002,0.0020599999,1742092332.6310241
0.24375,-0.019,0.0095,0.0079345,-0.00051875,0.00399775,1742092332.645445
0.25025,0.00275,0.01475,0.007782,-0.00071725,0.0047302498,1742092332.6597
0.25375,0.00825,0.0185,0.0078125,-0.00083925005,0.0047912505,1742092332.674027
0.2565,0.009,0.02125,0.0080415,-0.00080875,0.0042115003,1742092332.688376
0.25975,0.0145,0.027,0.007843,-0.000534,0.0044707498,1742092332.702673
0.25875,0.02275,0.02875,0.006836,0.00054925,0.0051880004,1742092332.717234
0.2545,0.0305,0.03,0.00617975,0.00108325,0.0052642496,1742092332.7310688
0.25275,0.029,0.0265,0.00593575,0.0017242499,0.00444025,1742092332.7454531
0.24775,0.0305,0.01425,0.00621025,0.0017242499,0.0040435,1742092332.759656
0.2465,0.04325,0.01025,0.0063325,0.00160225,0.0041044997,1742092332.7738519
0.249,0.064,0.011,0.00555425,0.0012055,0.00546275,1742092332.7880871
0.262,0.13475,0.026,0.0049895,0.0013427499,0.0066985004,1742092332.8022988
0.26775,0.20325,0.0385,0.00367725,0.002243,0.009719751,1742092332.8177211
0.27175,0.43575,0.056,0.00039675,0.0025940002,0.01127625,1742092332.830724
0.26575,0.58575,0.0615,-0.00662225,0.0031127501,0.012024,1742092332.845106
0.24125,0.756,0.05775,-0.02757275,0.0038605002,0.0055085,1742092332.859404
0.21,0.7045,0.0525,-0.0345,0.00354,-0.00296025,1742092332.873863
0.17925,0.57175,0.0585,-0.037902746,0.00068675,-0.026855499,1742092332.8882859
0.1435,0.14475,0.1105,-0.0420075,-0.00024425,-0.0332795,1742092332.902771
0.12475,-0.11125,0.1165,-0.0569305,0.0035095,-0.02244575,1742092332.9179661
0.14,-0.55575,0.13975,-0.05921925,0.00419625,-0.0129700005,1742092332.9316711
0.1965,-0.69375,0.1815,-0.04240425,0.00090025004,-0.0074615004,1742092332.946194
0.2915,-0.73325,0.16975,-0.0309295,0.00148,-0.0074004997,1742092332.960629
0.284,-0.6325,0.0945,-0.023468,0.00485225,-0.0034790002,1742092332.9751081
0.25275,-0.49,0.0105,-0.01408375,0.0123595,0.00897225,1742092332.989446
0.20375,-0.21775,-0.0835,-0.0075682504,0.0112915,0.011260999,1742092333.0039868
0.19875,-0.11825,-0.081,0.00367725,0.0017852499,0.0070342496,1742092333.018337
0.2085,0.00175,-0.047,0.00570675,-0.0025025,0.0031889998,1742092333.03285
0.2185,0.02475,-0.0375,0.0054780003,-0.0065155,-0.00283825,1742092333.047382
0.2455,0.018,-0.01525,0.004303,-0.0065612504,-0.0033875,1742092333.061823
0.257,0.00425,0.00025,0.0030975002,-0.0051574996,-0.003296,1742092333.077368
0.26625,-0.01475,0.01975,0.0036315,-0.0041044997,-0.00416575,1742092333.090823
0.2665,-0.0115,0.0235,0.00416575,-0.0030975002,-0.00469975,1742092333.105355
0.26825,-0.0045,0.02675,0.0037995,-0.0012207499,-0.0034484998,1742092333.119883
0.2645,-0.00325,0.0215,0.00314325,1.5250001e-05,-0.0026092501,1742092333.134239
0.25825,-0.0095,0.01275,0.00057975,0.00190725,-0.0005645,1742092333.1486132
0.257,-0.02075,0.00675,-0.00030525,0.0021972498,0.00051875,1742092333.163071
0.261,-0.02275,0.011,0.0004425,0.0021057501,0.00077825,1742092333.178062
0.26425,-0.0245,0.01675,0.0011445,0.0018005001,0.000183,1742092333.191797
0.2625,-0.024,0.017,0.00187675,0.0012055,-0.00083925005,1742092333.2071118
0.25475,-0.02275,0.01225,0.0023345,0.001007,-0.0016632499,1742092333.22046
0.2515,-0.02575,0.00925,0.00283825,0.0007325,-0.0025940002,1742092333.2349749
0.249,-0.03125,0.0065,0.0032195,0.0002135,-0.00340275,1742092333.249418
0.2425,-0.044,0.00025,0.0029449998,0.00036625,-0.0028687501,1742092333.263851
0.239,-0.0455,-0.0025,0.00238025,0.0010375,-0.00068675,1742092333.278408
0.233,-0.04075,-0.0055,0.00242625,0.001114,4.575e-05,1742092333.29285
0.2315,-0.0415,-0.006,0.00276175,0.00071725,0.00036625,1742092333.3072278
0.2305,-0.0555,-0.007,0.00308225,0.000473,0.000473,1742092333.321697
0.22925,-0.06475,-0.009,0.0034790002,0.00019825,0.00074775,1742092333.337659
0.2295,-0.07025,-0.01025,0.0045625,-0.00062550005,0.000885,1742092333.3505542
0.23325,-0.06075,-0.00675,0.0052337497,-0.001007,0.0010375,1742092333.365002
0.233,-0.05175,-0.006,0.0065765,-0.00149525,0.00068675,1742092333.379531
0.2325,-0.04725,-0.00625,0.00691225,-0.00181575,0.00036625,1742092333.394042
0.235,-0.05375,-0.00625,0.00737,-0.0026854998,0.001007,1742092333.408541
0.24425,-0.0605,-0.0045,0.0079345,-0.00302125,0.001892,1742092333.4230368
0.2505,-0.05175,-0.00125,0.0093995,-0.0031585,0.00354,1742092333.437846
0.25675,-0.017,0.0085,0.009933501,-0.00305175,0.003769,1742092333.451978
0.25575,-0.005,0.01175,0.010253999,-0.002884,0.00343325,1742092333.4673479
0.253,-0.004,0.0125,0.01054375,-0.00263975,0.00148,1742092333.480791
0.25025,-0.00975,0.01075,0.010666001,-0.002411,0.0004425,1742092333.4952478
0.24825,-0.01625,0.0075,0.010391249,-0.0016175,-0.00035100002,1742092333.5096908
0.247,-0.0155,0.00375,0.0101775,-0.0014495,6.1000002e-05,1742092333.5240161
0.24575,-0.0095,0.00675,0.010024999,-0.00187675,0.000946,1742092333.538445
0.24575,-0.007,0.017,0.010009751,-0.0021819999,0.0012207499,1742092333.552876
0.2465,-0.0115,0.01975,0.01036075,-0.001831,0.00071725,1742092333.567275
0.248,-0.021,0.01425,0.010940501,-0.00119025,1.5250001e-05,1742092333.581603
0.2465,-0.02175,0.00825,0.011612001,-0.00059500005,-0.000412,1742092333.596255
0.244,-0.016,0.0035,0.011901749,-0.00051875,0.00042725,1742092333.610751
0.24125,0.00175,0.00575,0.01104725,-0.00099175,0.00146475,1742092333.62516
0.24175,0.00525,0.0095,0.009155249,-0.0016632499,0.00283825,1742092333.639345
0.24025,-0.00175,0.01,0.009017999,-0.00160225,0.0025634998,1742092333.653705
0.24075,-0.008,0.00675,0.01062,-0.0013275,0.00070200005,1742092333.6680331
0.24475,-0.0125,0.00325,0.01177975,-0.00137325,-0.0002135,1742092333.682443
0.24575,-0.007,0.00725,0.012329,-0.0016632499,-0.00051875,1742092333.697641
0.247,-0.00075,0.0145,0.0110932505,-0.002243,0.0004425,1742092333.711366
0.2505,0.0005,0.027,0.010162249,-0.0021819999,0.000946,1742092333.725599
0.2505,-0.0045,0.028,0.00918575,-0.0011445,0.0012817499,1742092333.739946
0.249,-0.02025,0.0205,0.009613,-0.000534,0.001114,1742092333.7543318
0.24775,-0.024,0.0135,0.011627249,-0.00057975,0.00160225,1742092333.768704
0.24475,-0.00475,0.01025,0.01193225,-0.00115975,0.0026854998,1742092333.783073
0.24725,0.0075,0.0175,0.010101249,-0.00181575,0.0047455,1742092333.797838
0.257,0.02025,0.0285,0.00924675,-0.0015105,0.0050355,1742092333.81162
0.26025,0.02525,0.024,0.009079001,-0.0009155,0.00491325,1742092333.825942
0.2605,0.032,0.0165,0.009887749,-4.575e-05,0.00434875,1742092333.840241
0.255,0.04925,0.015,0.01033025,9.15e-05,0.00411975,1742092333.8547242
0.2525,0.06275,0.01925,0.011169501,-0.00062550005,0.0060577504,1742092333.868979
0.243,0.12925,0.02825,0.01121525,-0.000122000005,0.00924675,1742092333.883568
0.23275,0.20675,0.03625,0.0080872495,0.00302125,0.015594499,1742092333.897961
0.23125,0.46375,0.041,0.0028687501,0.00399775,0.017608749,1742092333.912354
0.2345,0.63,0.037,-0.0045625,0.00402825,0.018310498,1742092333.92714
0.23275,0.78375,0.0395,-0.0209655,0.001175,0.0070037497,1742092333.941034
0.189,0.8355,0.08175,-0.026825001,-0.00108325,-0.0063934997,1742092333.9555259
0.16375,0.69175,0.109,-0.039566003,-0.00343325,-0.03273,1742092333.970029
0.14325,0.232,0.1635,-0.0503845,-0.003662,-0.03524775,1742092333.9845052
0.14075,-0.02375,0.19625,-0.0700225,-0.00184625,-0.02371225,1742092333.9990132
0.17525,-0.517,0.2395,-0.068802,-0.00187675,-0.018737748,1742092334.013642
0.22,-0.67625,0.258,-0.047821,-0.0037537501,-0.0162505,1742092334.0282319
0.3085,-0.78275,0.23925,-0.037170503,-0.00292975,-0.015533499,1742092334.0429518
0.30875,-0.751,0.1575,-0.030181998,0.0012817499,-0.011734,1742092334.057374
0.282,-0.66475,0.06125,-0.0222015,0.0127105,0.0048065,1742092334.0718799
0.22,-0.39625,-0.0505,-0.01519775,0.013854999,0.011123749,1742092334.0874062
0.19325,-0.26525,-0.07875,0.0015565,0.00773625,0.011795,1742092334.1007261
0.16575,-0.076,-0.10925,0.00621025,0.00283825,0.009811499,1742092334.115031
0.173,-0.00775,-0.1025,0.007904,-0.0068512503,0.0049742498,1742092334.129521
0.22825,0.05875,-0.03225,0.0072632497,-0.009552,0.0022125002,1742092334.144099
0.261,0.058,0.01175,0.00665275,-0.009216251,-0.00399775,1742092334.158447
0.291,0.03425,0.0545,0.0062255003,-0.007309,-0.006363,1742092334.173048
0.2935,0.02275,0.06025,0.0053252503,-0.00494375,-0.00744625,1742092334.187917
0.29325,0.0105,0.061,0.0032195,-0.00042725,-0.0068207504,1742092334.2018409
0.27975,-0.018,0.039,0.00201425,0.001587,-0.00517275,1742092334.217747
0.26525,-0.0265,0.021,-0.00033575002,0.004593,-0.00070200005,1742092334.230819
0.24675,-0.02175,0.00375,-0.00064075,0.0049742498,0.000412,1742092334.245242
0.24775,-0.016,0.00875,7.625e-05,0.0045777503,-0.000122000005,1742092334.259733
0.25425,-0.0165,0.02,0.00035100002,0.00437925,-0.00074775,1742092334.2741919
0.2545,-0.0195,0.02125,0.000824,0.00364675,-0.0022125002,1742092334.288841
0.25125,-0.02875,0.0135,0.001236,0.0033722501,-0.00302125,1742092334.30334
0.24725,-0.03225,0.00525,0.00181575,0.00308225,-0.0036315,1742092334.318154
0.2435,-0.03425,-0.0015,0.0029907501,0.00125125,-0.0038299998,1742092334.332468
0.24325,-0.03375,-0.00125,0.00340275,0.0,-0.003662,1742092334.347988
0.246,-0.0325,0.00325,0.0033264998,-0.000946,-0.0029907501,1742092334.3615098
0.2505,-0.03075,0.014,0.00289925,-0.00062550005,-0.0025940002,1742092334.375969
0.25025,-0.034,0.01625,0.002121,0.00068675,-0.00216675,1742092334.390527
0.2465,-0.05225,0.01175,0.00190725,0.0013275,-0.00181575,1742092334.404866
0.2445,-0.06125,0.00675,0.002411,0.002121,-4.575e-05,1742092334.4191968
0.2375,-0.05625,-0.00475,0.00296025,0.00225825,0.00119025,1742092334.4338071
0.23425,-0.04525,-0.0075,0.0033722501,0.0022277501,0.001831,1742092334.448122
0.2325,-0.0365,-0.00725,0.0041044997,0.00163275,0.0012207499,1742092334.46275
0.2315,-0.03675,-0.004,0.00463875,0.00112925,0.00024425,1742092334.477539
0.23275,-0.0445,-0.00275,0.0054932497,0.0,-0.00146475,1742092334.491731
0.236,-0.0615,-0.002,0.0057677496,-0.0003815,-0.00146475,1742092334.507456
0.2355,-0.0655,-0.00275,0.0069885002,-0.00064075,-0.00057975,1742092334.5211892
0.2355,-0.05475,-0.00275,0.0077667497,-0.00061025,-3.0500001e-05,1742092334.535746
0.23775,-0.0435,-0.0015,0.00852975,-0.0009155,0.00093075,1742092334.550118
0.2415,-0.03,0.0015,0.008590749,-0.001068,0.00109875,1742092334.564598
0.24075,-0.02875,0.0015,0.008712751,-0.00108325,0.0009155,1742092334.579026
0.239,-0.03225,0.00025,0.00903325,-0.00090025004,-0.0001525,1742092334.593506
0.2375,-0.03725,-0.003,0.0090637505,-0.000885,-0.00059500005,1742092334.607984
0.237,-0.042,-0.00625,0.0087585,-0.0013885,7.625e-05,1742092334.622423
0.242,-0.04225,-0.002,0.00839225,-0.00193775,0.001236,1742092334.6377752
0.2455,-0.041,0.00475,0.00794975,-0.00239575,0.00292975,1742092334.651308
0.2445,-0.0475,0.009,0.008224499,-0.0020905002,0.0031127501,1742092334.66733
0.2395,-0.05225,0.0035,0.009613,-0.0014037499,0.0031585,1742092334.680202
0.23625,-0.0445,-0.0105,0.01019275,-0.00148,0.003662,1742092334.6948218
0.23725,-0.02825,-0.0115,0.010391249,-0.00193775,0.00463875,1742092334.7095292
0.2455,-0.00025,0.0045,0.009430001,-0.003296,0.00621025,1742092334.723828
0.2485,0.00175,0.01375,0.0090637505,-0.0035704998,0.00587475,1742092334.738175
0.24825,-0.0035,0.018,0.00918575,-0.003006,0.003769,1742092334.752515
0.24025,-0.02525,0.01375,0.00935375,-0.00267025,0.0028687501,1742092334.767724
0.238,-0.03575,0.01025,0.0103455,-0.00263975,0.0019225,1742092334.781195
0.2445,-0.0385,0.0075,0.011139,-0.00289925,0.0021515,1742092334.795615
0.2495,-0.026,0.01175,0.0110015,-0.0032195,0.00416575,1742092334.8101199
0.25375,0.00225,0.027,0.009903,-0.00296025,0.0050355,1742092334.8243918
0.2515,0.00575,0.0305,0.009002751,-0.0025787498,0.0052795,1742092334.8386319
0.24725,0.0005,0.028,0.0091705,-0.0018005001,0.0037385002,1742092334.8529558
0.2465,-0.0165,0.0185,0.0101165,-0.0013580001,0.0025634998,1742092334.86769
0.24775,-0.0175,0.01675,0.0128632495,-0.0013885,0.0014037499,1742092334.881706
0.2515,-0.00575,0.02675,0.01330575,-0.00181575,0.0017242499,1742092334.8959901
0.25225,-0.00075,0.0335,0.011901749,-0.00204475,0.0033264998,1742092334.91044
0.25275,-0.00025,0.0345,0.011245751,-0.0016632499,0.0040587503,1742092334.925035
0.251,0.002,0.0295,0.011184749,-0.0012817499,0.0048217503,1742092334.939316
0.248,0.0115,0.0275,0.013061499,-0.001526,0.00662225,1742092334.9536378
0.245,0.056,0.0415,0.0149535,-0.0020752498,0.00708,1742092334.9679601
0.2435,0.08525,0.04925,0.018402,-0.0026092501,0.0072175004,1742092334.982236
0.23675,0.17225,0.0525,0.01776125,-0.002472,0.00852975,1742092334.997674
0.231,0.23775,0.053,0.009811499,-0.0016785001,0.014267,1742092335.011132
0.23675,0.426,0.058,0.0049590003,-0.0010375,0.01513675,1742092335.0254312
0.2375,0.54675,0.0575,0.00108325,-0.00039675,0.012375,1742092335.039676
0.22375,0.666,0.05225,-0.011673001,-6.1000002e-05,0.00013725001,1742092335.054056
0.1965,0.787,0.07775,-0.023940999,0.00016775,-0.0055847503,1742092335.0685709
0.187,0.75075,0.10725,-0.049804747,0.0012970001,-0.019592252,1742092335.082937
0.128,0.48975,0.134,-0.060791,0.00231925,-0.026352,1742092335.097939
0.09975,0.27225,0.143,-0.07716375,0.000473,-0.03297425,1742092335.111928
0.1515,-0.371,0.261,-0.07669075,-0.00367725,-0.0360565,1742092335.1273
0.23125,-0.69625,0.346,-0.05667125,-0.00505075,-0.03907775,1742092335.141037
0.35225,-1.0,0.3335,-0.0468445,0.001648,-0.031540003,1742092335.155518
0.33625,-0.962,0.216,-0.03857425,0.0109709995,-0.01826475,1742092335.1699672
0.28525,-0.79375,0.086,-0.02070625,0.02259825,0.0049742498,1742092335.184442
0.1855,-0.38675,-0.07325,-0.011825499,0.02183525,0.0104065,1742092335.198943
0.1605,-0.2595,-0.09625,0.0021972498,0.011688249,0.010742251,1742092335.213428
0.14425,-0.12525,-0.0965,0.0067597497,0.0054015,0.008270251,1742092335.2278569
0.14625,-0.06475,-0.08325,0.0110932505,-0.00546275,0.0030365,1742092335.242344
0.192,0.01625,-0.02825,0.0116425,-0.009017999,0.00030525,1742092335.25751
0.222,0.027,0.003,0.01019275,-0.010009751,-0.00317375,1742092335.271148
0.26225,0.022,0.044,0.00918575,-0.00842275,-0.00453175,1742092335.285517
0.2705,0.017,0.0505,0.008773751,-0.0063325,-0.00617975,1742092335.299775
0.27625,0.011,0.05125,0.0069274995,-0.0026854998,-0.0068665,1742092335.314141
0.274,0.00625,0.03525,0.00494375,-0.00070200005,-0.0049285004,1742092335.328471
0.266,0.00575,0.024,0.00125125,0.00263975,-0.00086975005,1742092335.3426912
0.259,-0.0145,0.02125,0.000229,0.0033264998,-0.0003205,1742092335.3579571
0.26075,-0.03,0.02325,-0.001068,0.00369275,-0.00119025,1742092335.3718631
0.26325,-0.05525,0.01775,-0.00119025,0.00372325,-0.0016175,1742092335.3877702
0.26,-0.05925,0.0115,-0.00070200005,0.00355525,-0.0017852499,1742092335.4008179
0.25675,-0.0595,0.0075,0.00059500005,0.00251775,-0.001526,1742092335.4152179
0.25325,-0.0575,0.005,0.0013275,0.0018005001,-0.00154125,1742092335.4296
0.25325,-0.05525,0.00575,0.00242625,0.00010675,-0.00204475,1742092335.443935
0.2545,-0.05325,0.007,0.0026092501,-0.0005035,-0.0021972498,1742092335.4583821
0.255,-0.0515,0.007,0.0025634998,-0.0002135,-0.0018615,1742092335.472947
0.25625,-0.04325,0.00975,0.0025634998,0.00042725,-0.00149525,1742092335.48792
0.25375,-0.03975,0.00975,0.0025787498,0.00190725,-0.00054925,1742092335.501747
0.24825,-0.03925,0.01025,0.00263975,0.0024872501,-0.000183,1742092335.517515
0.2445,-0.04025,0.00875,0.00276175,0.00296025,-3.0500001e-05,1742092335.530504
0.2405,-0.04125,0.00475,0.0028229998,0.0036315,0.00035100002,1742092335.5446908
0.234,-0.0445,-0.00775,0.00267025,0.00378425,0.00045775,1742092335.5590668
0.23225,-0.0465,-0.0135,0.0021972498,0.00317375,0.0009155,1742092335.573427
0.23325,-0.04775,-0.0145,0.0022735,0.0023497501,0.00131225,1742092335.5877728
0.235,-0.0485,-0.011,0.00340275,0.00099175,0.00093075,1742092335.602199
0.236,-0.049,-0.006,0.0041810004,0.00071725,0.00036625,1742092335.617672
0.2365,-0.04875,-0.00525,0.004837,0.00059500005,-0.00016775,1742092335.631116
0.237,-0.05,-0.00525,0.00505075,0.00030525,-0.00033575002,1742092335.645611
0.24175,-0.05475,-0.00125,0.0046539996,0.00010675,0.0001525,1742092335.660033
0.2455,-0.0565,0.00325,0.0043335,0.00039675,0.0016632499,1742092335.6743438
0.2385,-0.05675,0.0005,0.0046234997,0.00090025004,0.00216675,1742092335.68883
0.23225,-0.0565,-0.006,0.005783,0.001068,0.00187675,1742092335.703361
0.228,-0.0545,-0.01475,0.0064545004,0.00054925,0.0014495,1742092335.71767
0.231,-0.05075,-0.01375,0.006836,-0.00090025004,0.00184625,1742092335.7321322
0.237,-0.04375,-0.0025,0.0065002497,-0.0013275,0.002365,1742092335.747814
0.2355,-0.04625,0.00075,0.006012,-0.0013427499,0.0027312501,1742092335.7608
0.2305,-0.0545,-0.00175,0.00555425,-0.000885,0.00276175,1742092335.7752
0.222,-0.0775,-0.016,0.0061339997,-0.00105275,0.00270075,1742092335.789731
0.22275,-0.081,-0.02075,0.008926501,-0.002411,0.0032195,1742092335.80422
0.2305,-0.0665,-0.01575,0.01019275,-0.00320425,0.00358575,1742092335.818801
0.23475,-0.05775,-0.0095,0.0115815,-0.00419625,0.0039825,1742092335.834611
0.23375,-0.0565,-0.00125,0.012176501,-0.0042115003,0.00390625,1742092335.84913
0.22925,-0.06125,-0.00325,0.014099,-0.0041504996,0.0037537501,1742092335.863755
0.2275,-0.05625,-0.0085,0.0148772495,-0.00453175,0.00416575,1742092335.878217
0.23425,-0.04225,-0.005,0.015289251,-0.0057525,0.00593575,1742092335.892729
0.2435,-0.00675,0.009,0.0149995005,-0.0060882503,0.0062712496,1742092335.907607
0.24275,0.0005,0.0135,0.01440425,-0.00611875,0.00570675,1742092335.9213388
0.241,-0.00175,0.01525,0.013321,-0.0054780003,0.0031585,1742092335.9357362
0.23775,-0.02175,0.0125,0.013382,-0.0051269997,0.0021057501,1742092335.950075
0.23975,-0.03,0.0115,0.014419501,-0.00585925,0.0024414998,1742092335.964625
0.252,-0.02325,0.01725,0.0149535,-0.0062407497,0.0034484998,1742092335.979127
0.25525,-0.0075,0.027,0.0158845,-0.00593575,0.0044250004,1742092335.993516
0.2555,0.008,0.04225,0.015854,-0.0052642496,0.0038757501,1742092336.0078778
0.254,0.00375,0.043,0.0153807495,-0.00440975,0.00317375,1742092336.022227
0.253,-0.0035,0.04,0.0138245,-0.0032347501,0.0029755002,1742092336.037544
0.25775,-0.00575,0.0365,0.013153,-0.003006,0.0037995,1742092336.051348
0.26,-0.00075,0.03975,0.013092,-0.0025634998,0.0051880004,1742092336.065724
0.26125,0.004,0.048,0.01368725,-0.0023039998,0.0049590003,1742092336.080145
0.261,0.0025,0.049,0.014724749,-0.0018615,0.0046234997,1742092336.09442
0.26,0.01275,0.05275,0.014724749,-0.001831,0.0051880004,1742092336.1089458
0.25925,0.02375,0.053,0.013290499,-0.00314325,0.008788999,1742092336.123429
0.2615,0.05675,0.065,0.012207,-0.0024872501,0.010742251,1742092336.137835
0.265,0.0835,0.072,0.011627249,-0.00093075,0.01156625,1742092336.152095
0.26525,0.11725,0.07,0.01086425,0.0015105,0.011139,1742092336.167252
0.26375,0.223,0.06575,0.009094249,0.0028687501,0.0114135,1742092336.180692
0.2655,0.29525,0.073,0.00340275,0.0052337497,0.01142875,1742092336.1951182
0.25875,0.4695,0.0805,0.00064075,0.006546,0.010513251,1742092336.2094002
0.23625,0.58425,0.065,-0.010101249,0.0097045,0.0052337497,1742092336.2237198
0.1575,0.77275,0.0095,-0.021331752,0.0088195,0.00096125,1742092336.238063
0.13675,0.77425,0.029,-0.03370675,0.0054015,-0.00434875,1742092336.252453
0.13,0.71375,0.08225,-0.04966725,-0.003006,-0.0249175,1742092336.267482
0.147,0.35625,0.21175,-0.0574035,-0.0051574996,-0.034958,1742092336.281409
0.162,0.06425,0.27525,-0.074585,-0.0029145,-0.03964225,1742092336.296033
0.1825,-0.51925,0.35675,-0.07547,0.0003815,-0.03822325,1742092336.310557
0.1915,-0.71625,0.3305,-0.06277475,0.00976575,-0.03031925,1742092336.3250391
0.1835,-0.89,0.1245,-0.052948,0.014282251,-0.0228425,1742092336.3394969
0.1855,-0.865,0.00925,-0.0318145,0.01708975,-0.0047912505,1742092336.354045
0.18625,-0.5865,-0.104,-0.020523,0.01519775,0.00245675,1742092336.368635
0.176,-0.41325,-0.10675,-0.009430001,0.012176501,0.006012,1742092336.38316
0.17175,-0.2695,-0.09,0.0039825,0.003418,0.0071105,1742092336.398011
0.2,-0.08975,-0.04875,0.0049285004,-0.0014495,0.007904,1742092336.412199
0.21725,-0.031,-0.0415,0.0046234997,-0.008484,0.005844,1742092336.427665
0.2525,0.02325,-0.0205,0.00561525,-0.009903,0.0022125002,1742092336.441188
0.27075,0.031,0.001,0.00712575,-0.009521499,-0.0048979996,1742092336.4557729
0.29425,0.0305,0.04425,0.00697325,-0.008545,-0.0073547503,1742092336.470222
0.29775,0.01775,0.0545,0.0065307496,-0.004593,-0.01020825,1742092336.484885
0.29125,-0.02675,0.044,0.0059510004,-0.0021972498,-0.009887749,1742092336.499315
0.28475,-0.0425,0.0335,0.0029907501,0.0023039998,-0.0047912505,1742092336.513841
0.265,-0.044,0.01975,0.0016785001,0.0038757501,-0.002411,1742092336.528218
0.258,-0.04425,0.0185,0.00096125,0.0047912505,-0.0013885,1742092336.542751
0.25275,-0.0455,0.0175,0.0013580001,0.00555425,-0.0022735,1742092336.55763
0.246,-0.04975,0.0125,0.00149525,0.0051574996,-0.00251775,1742092336.571722
0.24575,-0.054,0.0095,0.00048825,0.00355525,-0.0012817499,1742092336.5877361
0.24475,-0.06575,0.002,0.00010675,0.0028535,-0.00059500005,1742092336.600832
0.245,-0.0665,0.00025,0.00054925,0.00112925,9.15e-05,1742092336.615117
0.24825,-0.0535,0.004,0.00143425,9.15e-05,-0.00019825,1742092336.629722
0.24875,-0.0465,0.0075,0.0029449998,-0.00061025,-0.0015565,1742092336.644219
0.2495,-0.04025,0.013,0.00289925,-4.575e-05,-0.00193775,1742092336.658824
0.24675,-0.0405,0.011,0.00231925,0.0007935,-0.00190725,1742092336.673298
0.24175,-0.0425,0.0055,0.000412,0.0022735,-0.0007935,1742092336.687795
0.23225,-0.04525,-0.005,-0.000229,0.0026092501,-3.0500001e-05,1742092336.7025359
0.22975,-0.04525,-0.008,-0.00016775,0.00242625,0.0008545,1742092336.71742
0.2265,-0.04375,-0.009,0.00036625,0.0021057501,0.000534,1742092336.731576
0.225,-0.04325,-0.0085,0.001892,0.00125125,-0.0012665,1742092336.747391
0.2265,-0.047,-0.008,0.00225825,0.00065625,-0.00251775,1742092336.7606258
0.22975,-0.052,-0.0075,0.00131225,-0.00033575002,-0.0027465,1742092336.7753081
0.233,-0.05725,-0.00925,0.00074775,-0.00068675,-0.00184625,1742092336.789979
0.23375,-0.055,-0.00925,0.0008545,-0.00148,-0.00108325,1742092336.804755
0.234,-0.0495,-0.004,0.00154125,-0.0017852499,-0.001709,1742092336.8195179
0.2335,-0.049,-0.0025,0.00239575,-0.00201425,-0.00263975,1742092336.834186
0.233,-0.04925,-0.002,0.003296,-0.0023345,-0.00367725,1742092336.8488991
0.23625,-0.05125,-0.00075,0.0031585,-0.00251775,-0.0034484998,1742092336.863801
