acc_x,acc_y,acc_z,gyro_x,gyro_y,gyro_z,timestamp
0.15875,-0.0245,0.022,0.001419,-0.00712575,-0.0016632499,1742093951.219574
0.1525,-0.034,0.01925,0.000122000005,-0.0097045,-0.0021972498,1742093951.234781
0.16525,-0.0535,0.0325,0.00148,-0.01156625,-0.00019825,1742093951.248508
0.17525,-0.05825,0.0515,0.00520325,-0.013839751,0.003769,1742093951.2629619
0.18075,-0.04725,0.08625,0.0064850003,-0.014038,0.003891,1742093951.277405
0.16825,-0.02225,0.0905,0.00691225,-0.014358499,0.00267025,1742093951.291803
0.12625,0.01575,0.083,0.0059510004,-0.0169525,0.0023497501,1742093951.306134
0.1095,0.03425,0.08075,0.0060425,-0.01805125,0.00334175,1742093951.3205068
0.10625,0.07325,0.08125,0.0028229998,-0.0213165,0.00334175,1742093951.334887
0.184,0.1845,0.12425,-0.0034942501,-0.02510075,0.0031127501,1742093951.3494248
0.26025,0.22725,0.16575,-0.017974751,-0.025665252,-0.004074,1742093951.3652291
0.4285,0.24225,0.2085,-0.024047751,-0.01976025,-0.013382,1742093951.378658
0.49275,0.20325,0.202,-0.038971,-0.0059205,-0.037155252,1742093951.3947341
0.63625,0.116,0.20525,-0.045868002,-0.001068,-0.047287,1742093951.407706
0.6815,0.04875,0.21375,-0.0523225,-0.0029145,-0.050766,1742093951.422153
0.72975,-0.17725,0.23975,-0.0631715,0.0015105,-0.043289248,1742093951.436665
0.7425,-0.3175,0.244,-0.06602475,0.01419075,-0.0345155,1742093951.451133
0.74075,-0.4635,0.24125,-0.061950747,0.0464325,-0.017455999,1742093951.4656372
0.6375,-0.711,0.18,-0.05422975,0.05947875,-0.013351499,1742093951.480156
0.569,-0.78775,0.15075,-0.031723,0.075531,-0.006546,1742093951.495618
0.40775,-0.872,0.14,-0.01930225,0.073028505,-0.00029,1742093951.509204
0.30325,-0.83625,0.13,-0.00154125,0.06967175,0.018463248,1742093951.52503
0.10275,-0.65375,0.14225,0.0061339997,0.0717315,0.025665252,1742093951.537874
0.00275,-0.60525,0.16775,0.01622,0.073501505,0.02601625,1742093951.5521998
-0.117,-0.603,0.19725,0.042282,0.0684815,0.01937875,1742093951.5666509
-0.4285,-0.6265,0.22525,0.052368253,0.0604095,0.02275075,1742093951.58114
-0.5735,-0.57975,0.233,0.062255748,0.03663625,0.035431,1742093951.595604
-0.73225,-0.3045,0.265,0.0664215,0.020691,0.035736,1742093951.610186
-0.75775,-0.13925,0.263,0.07681275,-0.0143737495,0.0219115,1742093951.625102
-0.7205,0.18175,0.194,0.077865504,-0.03250125,0.0135345,1742093951.639052
-0.67675,0.32525,0.1545,0.07878125,-0.062912,0.00279225,1742093951.6546078
-0.5455,0.52925,0.14275,0.07572925,-0.07162475,-0.00061025,1742093951.667895
-0.4475,0.605,0.13775,0.066574,-0.07814025,-0.00331125,1742093951.6822689
-0.30275,0.70325,0.171,0.0366515,-0.09768675,-0.00137325,1742093951.696872
0.117,0.8555,0.3965,0.01646425,-0.105728246,-0.0020295,1742093951.7114189
0.37125,0.86175,0.5595,-0.01705925,-0.089126505,-0.030181998,1742093951.727128
0.7505,0.66025,0.7255,-0.026550248,-0.081390254,-0.0451965,1742093951.740507
0.899,0.51025,0.76875,-0.045776248,-0.0574645,-0.05703725,1742093951.754974
1.0,0.17725,0.75075,-0.056762747,-0.04093925,-0.05821225,1742093951.77118
1.0,0.0025,0.66825,-0.0680085,-0.0042572496,-0.0581055,1742093951.7850182
0.98925,-0.423,0.44875,-0.068847746,0.0088805,-0.054123,1742093951.7983842
0.954,-0.62575,0.373,-0.066864,0.02159125,-0.04606625,1742093951.812914
0.8775,-0.7785,0.323,-0.056991503,0.051941004,-0.02265925,1742093951.827917
0.65625,-0.863,0.2305,-0.051056,0.06871025,-0.013503999,1742093951.842328
0.5365,-0.83925,0.1945,-0.031356752,0.087509245,-0.00137325,1742093951.857905
0.218,-0.7775,0.14275,-0.01794425,0.0872955,0.000534,1742093951.8729541
0.06775,-0.71925,0.1135,0.0089875,0.084854,0.0088805,1742093951.8859708
-0.15675,-0.628,0.0945,0.02029425,0.0820465,0.013839751,1742093951.908834
-0.24925,-0.6075,0.11425,0.04090875,0.06871025,0.018615749,1742093951.9393039
-0.42,-0.5785,0.17275,0.048995998,0.057724,0.020934999,1742093951.9395
-0.4975,-0.517,0.20275,0.056045502,0.0456695,0.022934001,1742093951.942778
-0.566,-0.405,0.23275,0.067016505,0.01918025,0.02516175,1742093951.960628
-0.61875,-0.0885,0.26725,0.07070925,0.005249,0.024047751,1742093951.972706
-0.60575,0.07675,0.249,0.07598875,-0.0270385,0.013626001,1742093951.9872708
-0.5125,0.34,0.2115,0.077911496,-0.043518003,0.0081025,1742093952.000404
-0.41325,0.463,0.232,0.06643675,-0.070449755,0.00320425,1742093952.015786
-0.13675,0.706,0.23425,0.055770747,-0.08450325,0.00570675,1742093952.0294101
0.0055,0.79,0.2415,0.014389,-0.07440175,-6.1000002e-05,1742093952.0457048
0.2935,0.81725,0.28975,-0.00119025,-0.06558225,-0.0129700005,1742093952.0582578
0.4725,0.753,0.3795,-0.0068207504,-0.06451425,-0.02955625,1742093952.0726779
0.65975,0.66175,0.4795,-0.021179251,-0.06982425,-0.052948,1742093952.087224
0.9155,0.39975,0.5055,-0.03421025,-0.06378175,-0.05331425,1742093952.10169
0.9815,0.23025,0.47175,-0.060165502,-0.0278015,-0.039199747,1742093952.116189
1.0,-0.0855,0.35525,-0.06773375,-0.01330575,-0.03227225,1742093952.1307762
0.968,-0.26525,0.30725,-0.06764225,0.01115425,-0.029022248,1742093952.145487
0.867,-0.57225,0.267,-0.063705504,0.027587999,-0.02760325,1742093952.159701
0.79775,-0.68775,0.26525,-0.051056,0.054443248,-0.01634225,1742093952.175188
0.56925,-0.7735,0.224,-0.04031375,0.0628205,-0.01148975,1742093952.188813
0.424,-0.7435,0.18975,-0.027282748,0.0688935,-0.00694275,1742093952.203203
0.2785,-0.70025,0.1565,-0.00105275,0.07952875,0.0024872501,1742093952.2176142
0.0215,-0.63225,0.125,0.010009751,0.08218375,0.0076599997,1742093952.231877
-0.095,-0.61425,0.13175,0.026275748,0.07572925,0.017700251,1742093952.246318
-0.28975,-0.5495,0.202,0.03259275,0.06793225,0.019195499,1742093952.2607071
-0.37725,-0.4675,0.26075,0.0472565,0.047287,0.0125275,1742093952.2752771
-0.6065,-0.243,0.30875,0.054565497,0.03781125,0.009369001,1742093952.289406
-0.6995,-0.1025,0.2555,0.06065375,0.027099501,0.00811775,1742093952.305095
-0.72675,0.07425,0.184,0.063034,-0.008606,0.0055085,1742093952.318103
-0.6225,0.43225,0.083,0.05874625,-0.0310975,0.0013580001,1742093952.332577
-0.526,0.539,0.08725,0.052047748,-0.0715485,-0.010727,1742093952.347098
-0.3,0.62575,0.1235,0.04550175,-0.09078975,-0.01339725,1742093952.361706
-0.14,0.6225,0.18075,0.0124665005,-0.094863996,-0.019638,1742093952.376338
0.3215,0.59925,0.4305,0.000824,-0.090469256,-0.02851875,1742093952.3908129
0.574,0.59225,0.54425,-0.0057677496,-0.07389825,-0.05021675,1742093952.40519
0.9515,0.48125,0.61075,-0.0197295,-0.064682,-0.049209498,1742093952.4196548
1.0,0.36775,0.54575,-0.03778075,-0.052673247,-0.044189498,1742093952.4351628
1.0,0.03725,0.39675,-0.05802925,-0.01693725,-0.0471345,1742093952.448881
0.998,-0.15525,0.3205,-0.060714748,-0.006546,-0.049881,1742093952.465652
0.99625,-0.34875,0.28525,-0.0581665,0.0137635,-0.0404815,1742093952.478027
0.9485,-0.67025,0.325,-0.05270375,0.032608002,-0.031158501,1742093952.4924748
0.83925,-0.778,0.33025,-0.03793325,0.074844256,-0.0102235,1742093952.506851
0.4935,-0.79625,0.23425,-0.028839001,0.089508004,-0.00148,1742093952.521408
0.34325,-0.73225,0.18925,-0.0073547503,0.0984345,0.013000499,1742093952.535896
0.0825,-0.604,0.1435,0.00254825,0.0908965,0.01474,1742093952.550206
-0.03425,-0.53025,0.12125,0.01115425,0.0822295,0.012557999,1742093952.565145
-0.14725,-0.496,0.121,0.031066999,0.0658265,0.01019275,1742093952.579089
-0.39075,-0.50825,0.191,0.035049498,0.0619355,0.01083375,1742093952.594933
-0.5135,-0.51375,0.23525,0.044754002,0.051178,0.016128499,1742093952.6080132
-0.72975,-0.42025,0.2595,0.054183997,0.037979253,0.018859752,1742093952.622324
-0.7835,-0.277,0.23425,0.067214996,-0.0017242499,0.019333,1742093952.636771
-0.69625,0.09425,0.21675,0.06855775,-0.02534475,0.0158845,1742093952.6511092
-0.57425,0.27275,0.236,0.059524503,-0.067047,0.0043182503,1742093952.665622
-0.27225,0.61575,0.25175,0.05340575,-0.084838755,0.0050812503,1742093952.680083
-0.15275,0.7075,0.2265,0.04853825,-0.098587,0.01194775,1742093952.695704
-0.03175,0.75875,0.22775,0.018753,-0.083496004,0.0112305,1742093952.7088609
0.288,0.80425,0.32675,0.00460825,-0.070755,-0.0020905002,1742093952.7253702
0.46325,0.79375,0.373,-0.008026,-0.057724,-0.03768925,1742093952.737876
0.79025,0.57475,0.4695,-0.0178985,-0.054977503,-0.0470885,1742093952.752479
0.91375,0.39525,0.4625,-0.04296875,-0.04438775,-0.05125425,1742093952.767138
1.0,0.03775,0.41475,-0.05163575,-0.02879325,-0.05172725,1742093952.781663
1.0,-0.10675,0.362,-0.062439,-0.00177,-0.042328,1742093952.796331
0.9655,-0.43025,0.24375,-0.06274425,0.009369001,-0.035141,1742093952.811102
0.9045,-0.57425,0.209,-0.053100497,0.039199747,-0.0229035,1742093952.825668
0.7005,-0.725,0.1905,-0.04774475,0.05618275,-0.016235251,1742093952.840001
0.56675,-0.688,0.177,-0.0414275,0.0716095,-0.00941475,1742093952.855458
0.43275,-0.624,0.1615,-0.02082825,0.0829925,0.00579825,1742093952.8689
0.182,-0.52725,0.09525,-0.00935375,0.077911496,0.008026,1742093952.883283
0.0775,-0.5005,0.08775,0.01879875,0.0610505,0.00263975,1742093952.897661
-0.1145,-0.53725,0.15625,0.02503975,0.05764775,-6.1000002e-05,1742093952.912221
-0.20375,-0.5525,0.2165,0.0298005,0.061676,0.0021819999,1742093952.926599
-0.3865,-0.60075,0.326,0.039978,0.05824275,0.0055695,1742093952.9410062
-0.4935,-0.5725,0.32625,0.053833,0.05062875,0.008788999,1742093952.955499
-0.58925,-0.468,0.28875,0.07489025,0.022461,0.017455999,1742093952.969855
-0.63425,-0.0555,0.2135,0.078415,0.00279225,0.0204315,1742093952.9854422
-0.56625,0.19325,0.20825,0.072403,-0.039245497,0.013061499,1742093952.998673
-0.34625,0.639,0.1545,0.065780744,-0.0599365,0.00852975,1742093953.013064
-0.24225,0.7785,0.1125,0.045776248,-0.08341975,0.009491,1742093953.02756
0.04425,0.9365,0.142,0.029541,-0.08300775,0.00637825,1742093953.041909
0.2215,0.9755,0.1945,0.00067150005,-0.07437125,-0.017807,1742093953.056181
0.56925,0.873,0.35625,-0.008727999,-0.06567375,-0.03114325,1742093953.070633
0.7235,0.71125,0.455,-0.0183715,-0.058730997,-0.0381775,1742093953.085366
0.8265,0.54575,0.5155,-0.0434875,-0.048706003,-0.04055775,1742093953.099573
0.88975,0.24675,0.4905,-0.053542998,-0.0359955,-0.0391235,1742093953.115455
0.85475,0.10825,0.403,-0.06561275,-0.009781,-0.032516498,1742093953.128673
0.748,-0.18875,0.196,-0.06823725,0.0003815,-0.02734375,1742093953.143168
0.7155,-0.36525,0.173,-0.0628815,0.01779175,-0.028411752,1742093953.157673
0.6825,-0.66975,0.194,-0.0549165,0.0274505,-0.03302,1742093953.172095
0.644,-0.79,0.228,-0.0346985,0.043945253,-0.0301665,1742093953.1867268
0.4545,-0.87025,0.2405,-0.02503975,0.051712003,-0.02247625,1742093953.2011368
0.31775,-0.82575,0.22725,-0.014938249,0.059249748,-0.013000499,1742093953.2155678
0.171,-0.763,0.20225,0.0078735,0.06887825,0.00367725,1742093953.229874
-0.12125,-0.6065,0.1575,0.0186615,0.07073975,0.00874325,1742093953.2452202
-0.26,-0.54925,0.14875,0.037674,0.061782748,0.0115815,1742093953.258695
-0.45725,-0.4815,0.19325,0.047485247,0.050109748,0.00962825,1742093953.275376
-0.49025,-0.401,0.24875,0.06581125,0.02171325,0.00621025,1742093953.2874749
-0.4855,-0.088,0.2865,0.07121275,0.00897225,0.00741575,1742093953.302081
-0.463,0.11625,0.268,0.071884245,-0.0035095,0.01013175,1742093953.3165052
-0.37175,0.459,0.19575,0.06675725,-0.03309625,0.01295475,1742093953.33089
-0.3025,0.576,0.1495,0.065445,-0.046768248,0.008133001,1742093953.345432
-0.20725,0.65625,0.11925,0.04556275,-0.060897753,-0.008651749,1742093953.359672
0.051,0.76875,0.11025,0.027771,-0.06150825,-0.0166625,1742093953.375322
0.1965,0.77775,0.121,0.00204475,-0.0608215,-0.02658075,1742093953.388674
0.5685,0.61475,0.31075,-0.009002751,-0.06330875,-0.029022248,1742093953.40317
0.75725,0.504,0.42075,-0.030655,-0.062027,-0.03819275,1742093953.4176462
0.97675,0.2185,0.44375,-0.040237498,-0.04707325,-0.038269002,1742093953.432181
1.0,0.078,0.3645,-0.05007925,-0.03038025,-0.03244025,1742093953.446623
0.975,-0.17425,0.211,-0.06242375,-0.0050202496,-0.0211945,1742093953.4612322
0.90075,-0.31425,0.16525,-0.06198125,0.0075072497,-0.0223235,1742093953.475768
0.814,-0.45,0.1505,-0.054596,0.0325775,-0.02462775,1742093953.490196
0.65375,-0.636,0.17075,-0.04898075,0.044754002,-0.020691,1742093953.505086
0.5495,-0.65925,0.171,-0.0344695,0.06245425,-0.0056304997,1742093953.5191948
0.30825,-0.629,0.1325,-0.0272065,0.065414496,0.00149525,1742093953.536172
0.19375,-0.57375,0.11375,-0.0091705,0.06723025,0.011901749,1742093953.5480692
0.01175,-0.4905,0.0945,-9.15e-05,0.0667115,0.012542751,1742093953.562488
-0.0645,-0.4665,0.10475,0.007843,0.0644225,0.010604749,1742093953.576896
-0.1465,-0.463,0.12575,0.020752002,0.053680502,0.009872501,1742093953.591198
-0.32825,-0.473,0.202,0.026840251,0.04695125,0.0119934995,1742093953.6055732
-0.4215,-0.45375,0.226,0.04319775,0.029831,0.01794425,1742093953.619966
-0.53075,-0.31675,0.23325,0.051391497,0.018097,0.021514999,1742093953.63523
-0.50525,-0.16725,0.23075,0.063675,-0.0119934995,0.02388,1742093953.648854
-0.323,0.2295,0.23375,0.0639495,-0.027404752,0.020477248,1742093953.663268
-0.23675,0.374,0.221,0.0634155,-0.0522765,0.014846751,1742093953.678056
-0.14175,0.498,0.17075,0.0541535,-0.0531615,0.011917,1742093953.692619
-0.08725,0.54425,0.14075,0.04119875,-0.050277747,0.00640875,1742093953.707071
-0.006,0.604,0.10675,0.0156555,-0.05055225,-0.006302,1742093953.721577
0.2695,0.7385,0.12575,0.0054015,-0.05137625,-0.010940501,1742093953.735841
0.43325,0.76025,0.175,-0.012680001,-0.055618253,-0.016128499,1742093953.750347
0.707,0.6665,0.24475,-0.02297975,-0.0539245,-0.019867001,1742093953.765742
0.81375,0.562,0.2835,-0.045287997,-0.03668225,-0.028061,1742093953.779457
0.9065,0.305,0.291,-0.05464175,-0.028015248,-0.030609248,1742093953.7951622
0.89775,0.136,0.26275,-0.065094,-0.009094249,-0.03179925,1742093953.808581
0.84625,-0.279,0.19525,-0.06555175,0.0012207499,-0.03167725,1742093953.82545
0.82725,-0.486,0.192,-0.06378175,0.011825499,-0.028854249,1742093953.837576
0.7565,-0.741,0.2575,-0.05140675,0.035461497,-0.017273001,1742093953.852065
0.6545,-0.7965,0.27125,-0.041092,0.04568475,-0.011825499,1742093953.8665621
0.50175,-0.796,0.24375,-0.0168305,0.060135,-0.00242625,1742093953.881071
0.20625,-0.6855,0.1745,-0.005066,0.06425475,0.0034790002,1742093953.895623
0.0805,-0.62275,0.18075,0.020324752,0.061889753,0.01036075,1742093953.9097002
-0.18025,-0.56975,0.22,0.02970875,0.0595855,0.0094604995,1742093953.925449
-0.29125,-0.546,0.24025,0.042663503,0.048568748,0.01187125,1742093953.9384372
-0.439,-0.3715,0.262,0.05015575,0.0384675,0.01460275,1742093953.95277
-0.48625,-0.22625,0.25125,0.058258,0.026764,0.015594499,1742093953.9671922
-0.515,-0.08475,0.2125,0.071792506,-0.0035704998,0.0075682504,1742093953.981691
-0.476,0.14525,0.1475,0.075790495,-0.02265925,0.0015105,1742093953.996073
-0.4045,0.2825,0.14125,0.0701295,-0.055191003,-0.00048825,1742093954.010567
-0.1775,0.61675,0.13,0.059768748,-0.059570253,0.0016175,1742093954.025352
-0.07,0.75775,0.09075,0.02534475,-0.05093375,0.00051875,1742093954.03936
0.15625,0.82,0.10025,0.013717749,-0.0471345,-0.00466925,1742093954.0554821
0.3135,0.77175,0.19525,0.007782,-0.04939275,-0.01136775,1742093954.068096
0.58875,0.6235,0.38575,-0.00852975,-0.059021,-0.023040751,1742093954.082567
0.67575,0.52725,0.4355,-0.0197295,-0.051422,-0.025238002,1742093954.0972009
0.7235,0.43975,0.42925,-0.044143748,-0.0317535,-0.021408001,1742093954.1116621
0.746,0.29575,0.319,-0.05293275,-0.02409375,-0.0204315,1742093954.126272
0.75325,0.18475,0.24725,-0.0622405,-0.013290499,-0.02819825,1742093954.140758
0.795,-0.16475,0.1495,-0.06333925,-0.0080872495,-0.03256225,1742093954.1553311
0.8175,-0.37375,0.15725,-0.059265252,0.0128785,-0.029419001,1742093954.169843
0.798,-0.67675,0.228,-0.0542145,0.02787775,-0.024261499,1742093954.185426
0.749,-0.71125,0.248,-0.04043575,0.05970775,-0.011306751,1742093954.19874
0.52125,-0.68075,0.23575,-0.03173825,0.06785575,-0.0074004997,1742093954.2156448
0.36625,-0.63825,0.19825,-0.022186251,0.07115175,-0.0075377496,1742093954.2278779
0.2245,-0.59375,0.172,0.0007935,0.072403,-0.00334175,1742093954.242246
0.00775,-0.54,0.196,0.013488751,0.0700225,0.00030525,1742093954.256554
-0.0915,-0.50225,0.24025,0.02268975,0.07106025,0.0033570002,1742093954.2709498
-0.30825,-0.40475,0.2925,0.02804575,0.069122255,0.004486,1742093954.285266
-0.41725,-0.32775,0.28825,0.04293825,0.0529175,0.00378425,1742093954.299615
-0.56525,-0.11525,0.224,0.05084225,0.039032,0.0011445,1742093954.315109
-0.5745,-0.00775,0.1935,0.057617247,0.022064252,-0.0022277501,1742093954.328469
-0.53575,0.1205,0.1785,0.06181325,-0.0152435,-0.00535575,1742093954.345057
-0.38825,0.3775,0.14425,0.05783075,-0.0312805,-0.0020905002,1742093954.357399
-0.294,0.499,0.11025,0.0365295,-0.04850775,0.0076905,1742093954.371756
-0.031,0.711,0.049,0.022873,-0.051117,0.010101249,1742093954.386178
0.13825,0.77,0.0575,0.000885,-0.053009,-0.0053405,1742093954.400547
0.5425,0.75875,0.1105,-0.00723275,-0.053588748,-0.016632,1742093954.415777
0.73275,0.693,0.1455,-0.025833251,-0.051757753,-0.02268975,1742093954.429472
0.9925,0.48525,0.1565,-0.035553,-0.0405885,-0.020034749,1742093954.4451892
1.0,0.3355,0.128,-0.044632,-0.0251465,-0.018448,1742093954.4583821
1.0,0.15925,0.0765,-0.0591125,-0.0025634998,-0.01914975,1742093954.472838
0.99,-0.24675,0.059,-0.0588685,0.008850001,-0.0204315,1742093954.4873412
0.973,-0.395,0.09525,-0.04618825,0.042297248,-0.0158385,1742093954.501842
0.813,-0.57625,0.12875,-0.03710925,0.06015025,-0.00924675,1742093954.516337
0.6585,-0.5965,0.10475,-0.012130749,0.07466125,-0.0025787498,1742093954.530945
0.35625,-0.55575,0.06975,-0.0012207499,0.074829005,0.001175,1742093954.5460322
0.23725,-0.522,0.07375,0.00064075,0.081665,0.00672925,1742093954.559714
0.01075,-0.47925,0.10125,0.0039825,0.08085625,0.00794975,1742093954.575556
-0.112,-0.48175,0.1365,0.01054375,0.074585,0.0072175004,1742093954.588465
-0.2395,-0.49175,0.1855,0.0275115,0.050918497,0.0033264998,1742093954.602754
-0.489,-0.54125,0.31075,0.0346985,0.03816225,0.003296,1742093954.617186
-0.5725,-0.5185,0.3575,0.04724125,0.012680001,0.004242,1742093954.631551
-0.60175,-0.254,0.32875,0.056717,-0.0065765,0.0062407497,1742093954.646071
-0.56375,-0.04375,0.29425,0.0653535,-0.04562375,0.0065612504,1742093954.660581
-0.4385,0.27275,0.2515,0.064941496,-0.060379002,0.0002595,1742093954.675404
-0.36075,0.357,0.2395,0.061325002,-0.07206725,-0.0085755,1742093954.689446
-0.14,0.46325,0.17525,0.0484315,-0.102951,-0.00437925,1742093954.705101
0.016,0.5635,0.21475,0.0427705,-0.109985255,0.0042267498,1742093954.718192
0.203,0.66775,0.27175,0.01368725,-0.08786,-0.0065002497,1742093954.732555
0.57475,0.72475,0.30975,0.0030975002,-0.077865504,-0.0217285,1742093954.7469451
0.76325,0.70325,0.33425,-0.01115425,-0.070938006,-0.032043498,1742093954.76146
1.0,0.6195,0.3745,-0.024414,-0.056274503,-0.02737425,1742093954.775933
1.0,0.51775,0.32775,-0.047699,-0.02958675,-0.026062,1742093954.790453
0.98175,0.214,0.17225,-0.054015998,-0.0213775,-0.02996825,1742093954.805032
0.92675,0.0095,0.12425,-0.057785,-0.014510999,-0.0299835,1742093954.81937
0.85575,-0.1795,0.12675,-0.0602265,0.01098625,-0.017578252,1742093954.835095
0.71325,-0.4105,0.191,-0.059860248,0.028686501,-0.009734999,1742093954.8483431
0.6515,-0.46475,0.20825,-0.0512695,0.0572205,0.00239575,1742093954.862686
0.443,-0.56475,0.161,-0.040741,0.060928248,0.0030975002,1742093954.877078
0.31275,-0.58075,0.13325,-0.01678475,0.0626525,0.001419,1742093954.8914418
0.11,-0.5215,0.1225,-0.0069274995,0.06375125,0.0053709997,1742093954.905764
0.05625,-0.4405,0.121,0.0004425,0.064086996,0.010009751,1742093954.92007
