acc_x,acc_y,acc_z,gyro_x,gyro_y,gyro_z,timestamp
-0.25125,0.01375,-0.01525,-0.00035100002,-0.00027475,0.00039675,1741812238.4155142
-0.251,0.01425,-0.014,-0.0003815,-0.000229,0.00030525,1741812238.4294899
-0.2505,0.0135,-0.01325,-0.000412,1.5250001e-05,7.625e-05,1741812238.4456708
-0.25,0.013,-0.01425,-0.00019825,0.00016775,-1.5250001e-05,1741812238.4588
-0.24975,0.01375,-0.01525,0.0,0.00036625,-1.5250001e-05,1741812238.473335
-0.24875,0.0135,-0.017,0.0001525,0.00039675,-1.5250001e-05,1741812238.487933
-0.24875,0.01375,-0.0185,0.000183,0.00019825,9.15e-05,1741812238.502454
-0.25,0.016,-0.01925,0.0,-3.0500001e-05,9.15e-05,1741812238.517078
-0.25,0.0165,-0.01825,0.0002135,-0.00039675,-0.0003205,1741812238.531724
-0.24925,0.0155,-0.01475,0.0003205,-0.00042725,-0.00051875,1741812238.546477
-0.249,0.014,-0.01325,0.00010675,-0.000183,-0.000534,1741812238.561225
-0.249,0.01125,-0.0135,-6.1000002e-05,6.1000002e-05,-0.00042725,1741812238.5759418
-0.2495,0.011,-0.015,6.1000002e-05,0.000412,-0.0002595,1741812238.590823
-0.25,0.01275,-0.01825,0.00024425,0.0004425,-0.00019825,1741812238.6053839
-0.25025,0.01375,-0.019,0.0005645,0.00029,-0.00030525,1741812238.620123
-0.25,0.0145,-0.019,0.00059500005,0.000183,-0.000412,1741812238.635494
-0.25075,0.01475,-0.019,0.00035100002,4.575e-05,-0.00048825,1741812238.649483
-0.25025,0.01275,-0.018,-0.0002595,-0.00029,-0.000534,1741812238.6654458
-0.24925,0.01075,-0.01725,-0.00035100002,-0.0003815,-0.00048825,1741812238.6790311
-0.2485,0.00675,-0.01425,-1.5250001e-05,-0.00030525,-0.000183,1741812238.693815
-0.249,0.0065,-0.01375,0.00036625,-0.00013725001,4.575e-05,1741812238.708698
-0.2505,0.009,-0.01475,0.001007,0.00024425,0.0004425,1741812238.723198
-0.2545,0.0175,-0.01975,0.001114,0.00027475,0.00045775,1741812238.737798
-0.255,0.0195,-0.02225,0.000534,-0.000122000005,3.0500001e-05,1741812238.7525141
-0.2525,0.01625,-0.0205,6.1000002e-05,-0.00045775,-0.000229,1741812238.767134
-0.2505,0.013,-0.01675,-0.0005035,-0.00080875,-0.00051875,1741812238.781932
-0.2475,0.00925,-0.0105,-0.00057975,-0.00067150005,-0.00045775,1741812238.796696
-0.247,0.0085,-0.00925,-0.00067150005,0.0,-1.5250001e-05,1741812238.811341
-0.2485,0.0095,-0.0105,-0.00051875,0.000412,0.0002135,1741812238.8260748
-0.2505,0.012,-0.01375,0.0002135,0.00086975005,0.00045775,1741812238.840578
-0.25325,0.01875,-0.02125,0.00035100002,0.000763,0.00036625,1741812238.855419
-0.25325,0.01975,-0.02225,9.15e-05,0.00019825,-0.000183,1741812238.869696
-0.2505,0.01475,-0.019,-0.00013725001,-6.1000002e-05,-0.00042725,1741812238.8854358
-0.249,0.01175,-0.01625,-0.00057975,-0.000183,-0.0003815,1741812238.8994071
-0.248,0.00925,-0.01375,-0.00054925,-3.0500001e-05,-0.000183,1741812238.9154549
-0.248,0.01,-0.01325,-0.00042725,0.0004425,0.00029,1741812238.9287481
-0.2505,0.01475,-0.0165,-0.000412,0.00064075,0.000412,1741812238.943433
-0.252,0.0175,-0.0195,-0.0003205,0.00070200005,4.575e-05,1741812238.958092
-0.25175,0.0185,-0.022,-0.00051875,0.0005645,-0.00030525,1741812238.9728498
-0.25125,0.017,-0.02125,-0.00074775,0.0003815,-0.00059500005,1741812238.987675
-0.2505,0.0115,-0.01875,-0.0008545,9.15e-05,-0.00080875,1741812239.002374
-0.25075,0.0095,-0.0175,-0.0007325,1.5250001e-05,-0.00068675,1741812239.0170722
-0.251,0.00875,-0.01575,-0.00019825,-3.0500001e-05,-0.00024425,1741812239.0319202
-0.25075,0.01,-0.0125,6.1000002e-05,-1.5250001e-05,1.5250001e-05,1741812239.046508
-0.251,0.012,-0.012,0.000534,0.00013725001,0.00033575002,1741812239.0610712
-0.2515,0.01525,-0.01525,0.00054925,0.000229,0.00036625,1741812239.075615
-0.25125,0.016,-0.01625,-0.00027475,0.0002595,0.00035100002,1741812239.090189
-0.24975,0.01375,-0.01525,-0.0007325,0.00029,0.00029,1741812239.105265
-0.249,0.0125,-0.01475,-0.0005645,0.000473,6.1000002e-05,1741812239.119375
-0.24825,0.01,-0.01425,-0.00029,0.00054925,7.625e-05,1741812239.135534
-0.24875,0.0105,-0.015,0.00016775,0.00057975,0.00030525,1741812239.149158
-0.25025,0.01375,-0.017,0.00036625,0.00051875,0.00033575002,1741812239.1637251
-0.2505,0.01575,-0.0175,7.625e-05,0.00030525,0.0003205,1741812239.178144
-0.25175,0.01825,-0.018,-0.00024425,0.00019825,0.0002135,1741812239.1927419
-0.2515,0.017,-0.017,-0.00059500005,9.15e-05,-0.0001525,1741812239.207424
-0.2495,0.012,-0.01425,-0.00054925,0.00013725001,-0.00024425,1741812239.222163
-0.2485,0.00975,-0.01275,-0.000122000005,0.00042725,-0.00010675,1741812239.236866
-0.24875,0.01,-0.01225,0.00013725001,0.00061025,0.00010675,1741812239.2514062
-0.25,0.01275,-0.013,0.00027475,0.0007325,0.00035100002,1741812239.26585
-0.25275,0.02025,-0.01775,0.00027475,0.00067150005,0.0004425,1741812239.280469
-0.2525,0.02025,-0.018,0.00010675,0.000473,0.00019825,1741812239.2955441
-0.251,0.01725,-0.01625,-0.000183,0.00010675,-0.00033575002,1741812239.309673
-0.24875,0.0115,-0.01225,-0.00010675,4.575e-05,-0.00039675,1741812239.3253279
-0.249,0.0095,-0.01125,0.00036625,0.0002135,-0.0001525,1741812239.339199
-0.24875,0.00775,-0.011,0.00065625,0.0003815,4.575e-05,1741812239.355257
-0.2475,0.0075,-0.0115,0.0012817499,0.0007935,0.000534,1741812239.368166
-0.247,0.01025,-0.014,0.0017242499,0.000946,0.00080875,1741812239.382705
-0.24875,0.01225,-0.01575,0.001953,0.00086975005,0.001114,1741812239.3972049
-0.25275,0.01625,-0.01725,0.0016785001,0.00067150005,0.00096125,1741812239.411676
-0.25275,0.01675,-0.01575,0.00090025004,0.00035100002,0.0002135,1741812239.426201
-0.25,0.01475,-0.01075,0.000534,0.000412,-0.0001525,1741812239.440783
-0.2485,0.01325,-0.00925,9.15e-05,0.00096125,-0.00064075,1741812239.45538
-0.249,0.0115,-0.01075,-0.00013725001,0.00125125,-0.00067150005,1741812239.470222
-0.2505,0.01225,-0.01375,-0.00035100002,0.0014037499,-0.00065625,1741812239.485086
-0.25225,0.0115,-0.01775,-0.00051875,0.0012055,-0.00074775,1741812239.499685
-0.253,0.01025,-0.01775,-0.00067150005,0.000885,-0.00070200005,1741812239.515231
-0.25325,0.00725,-0.016,-0.00071725,4.575e-05,-0.00036625,1741812239.529151
-0.25225,0.00725,-0.01425,-0.00059500005,-0.00027475,-0.0001525,1741812239.5452611
-0.251,0.00875,-0.0125,-0.00051875,-0.00048825,0.00029,1741812239.558599
-0.24875,0.01275,-0.0105,-0.00039675,-0.000412,0.000473,1741812239.57331
-0.2485,0.01475,-0.011,6.1000002e-05,-0.000183,0.000473,1741812239.5879009
-0.24925,0.0145,-0.01175,0.00019825,-0.00010675,0.0003205,1741812239.602516
-0.25125,0.01275,-0.012,0.0003815,-1.5250001e-05,7.625e-05,1741812239.617059
-0.25625,0.01225,-0.0145,0.0005035,-7.625e-05,0.0,1741812239.631692
-0.2575,0.01075,-0.01475,-0.00029,-0.00016775,9.15e-05,1741812239.646392
-0.255,0.00375,-0.0105,-0.000824,-0.0001525,0.00029,1741812239.6610491
-0.25275,0.00125,-0.008,-0.00059500005,9.15e-05,0.00099175,1741812239.675831
-0.25,0.00625,-0.00775,-4.575e-05,0.00029,0.0013580001,1741812239.690284
-0.25,0.011,-0.01025,0.0003205,0.0003205,0.00181575,1741812239.7048068
-0.24925,0.01425,-0.01375,7.625e-05,0.00013725001,0.0017852499,1741812239.719337
-0.249,0.013,-0.014,-4.575e-05,-0.00010675,0.0013275,1741812239.7356281
-0.25,0.01275,-0.0115,-6.1000002e-05,-0.00016775,0.00119025,1741812239.748801
-0.2505,0.014,-0.0105,-6.1000002e-05,-0.0001525,0.00099175,1741812239.763457
-0.24975,0.014,-0.01,-7.625e-05,-3.0500001e-05,0.00083925005,1741812239.778176
-0.249,0.01325,-0.01025,-4.575e-05,0.00010675,0.00070200005,1741812239.792759
-0.248,0.0125,-0.01225,0.0002135,0.00024425,0.00061025,1741812239.8074582
-0.248,0.01225,-0.01325,0.0003815,0.0002135,0.00057975,1741812239.822
-0.24825,0.01225,-0.014,0.00071725,6.1000002e-05,0.00042725,1741812239.836596
-0.24875,0.01425,-0.0145,0.0007325,-4.575e-05,0.00030525,1741812239.851278
-0.24825,0.01475,-0.014,0.00064075,-0.00024425,-1.5250001e-05,1741812239.865938
-0.2485,0.01675,-0.01425,0.00064075,-0.00035100002,-0.000183,1741812239.880638
-0.24875,0.017,-0.014,0.00059500005,-0.00062550005,-0.00071725,1741812239.8954701
-0.24775,0.012,-0.0115,0.00059500005,-0.00071725,-0.00096125,1741812239.910143
-0.2485,0.00875,-0.01175,0.0010375,-0.00065625,-0.00102225,1741812239.9252632
-0.25025,0.0065,-0.01425,0.0012970001,-0.00057975,-0.00086975005,1741812239.939751
-0.251,0.0075,-0.0155,0.00112925,-0.00067150005,-0.0003815,1741812239.9552882
-0.2525,0.0115,-0.016,0.00096125,-0.000824,-0.00035100002,1741812239.9691782
-0.25175,0.013,-0.01475,0.00064075,-0.00105275,-0.00071725,1741812239.9853199
-0.25025,0.01275,-0.01175,0.0003815,-0.001007,-0.000885,1741812239.998544
-0.25025,0.01125,-0.01125,0.0001525,-0.00065625,-0.00115975,1741812240.0132532
-0.249,0.00825,-0.01175,0.000183,-0.000473,-0.001175,1741812240.028148
-0.24875,0.00775,-0.0125,0.00030525,-0.00024425,-0.00086975005,1741812240.042849
-0.24975,0.0085,-0.01375,0.000412,-0.00016775,-0.00068675,1741812240.057575
-0.251,0.01,-0.015,0.00045775,-0.000122000005,-0.0005035,1741812240.0724218
-0.252,0.01025,-0.01625,0.0003205,-0.00016775,-0.00048825,1741812240.08719
-0.2515,0.0085,-0.0145,-9.15e-05,-0.000183,-0.000412,1741812240.101944
-0.25075,0.0085,-0.01175,-7.625e-05,-7.625e-05,-0.00030525,1741812240.116731
-0.25175,0.01125,-0.01275,0.00039675,0.000183,-0.00019825,1741812240.131382
-0.25275,0.01525,-0.016,0.000473,0.0001525,-0.0003205,1741812240.145958
-0.251,0.01375,-0.01575,0.00036625,4.575e-05,-0.000473,1741812240.16062
-0.2495,0.01125,-0.01525,3.0500001e-05,-6.1000002e-05,-0.00048825,1741812240.175477
-0.25,0.0095,-0.01475,-0.0002135,-0.000122000005,-0.00027475,1741812240.190319
-0.25025,0.00975,-0.0135,-0.00057975,-0.00019825,0.00016775,1741812240.205203
-0.24925,0.0095,-0.01175,-0.00061025,-0.00010675,0.00029,1741812240.219788
-0.24875,0.00925,-0.01175,-0.000763,0.00019825,0.000534,1741812240.2355058
-0.25,0.011,-0.01325,-0.00074775,0.00030525,0.00064075,1741812240.2489972
-0.25125,0.0125,-0.0145,-0.0003815,0.00033575002,0.00074775,1741812240.2654028
-0.25525,0.01575,-0.0205,7.625e-05,0.00016775,0.00070200005,1741812240.278045
-0.25575,0.017,-0.022,0.00074775,-0.00062550005,0.00013725001,1741812240.2927701
-0.25025,0.01425,-0.015,0.00068675,-0.00102225,-0.00013725001,1741812240.3074849
-0.24825,0.0125,-0.01125,0.00071725,-0.001068,-0.00029,1741812240.322168
-0.248,0.01125,-0.01025,0.00077825,-0.00080875,-0.00027475,1741812240.336844
-0.24875,0.011,-0.01075,0.00057975,-0.000183,-0.00016775,1741812240.351528
-0.25025,0.01125,-0.01325,0.0004425,4.575e-05,-9.15e-05,1741812240.366192
-0.25075,0.01175,-0.01425,0.0002595,0.000122000005,1.5250001e-05,1741812240.3806982
-0.25,0.01175,-0.01375,0.0002135,7.625e-05,6.1000002e-05,1741812240.3952131
-0.25,0.01225,-0.01425,0.00016775,-1.5250001e-05,7.625e-05,1741812240.40977
-0.2515,0.0145,-0.01725,0.0002135,-9.15e-05,-1.5250001e-05,1741812240.4252532
-0.2505,0.014,-0.017,0.0002135,-0.0002135,-0.00016775,1741812240.439138
-0.24875,0.01275,-0.01525,0.0002135,-0.0003205,-0.0003205,1741812240.455241
-0.24925,0.01325,-0.015,0.0003205,-0.00027475,-0.00033575002,1741812240.46874
-0.2495,0.0135,-0.0145,0.000229,-0.000122000005,-0.00039675,1741812240.483474
-0.24925,0.01075,-0.0125,9.15e-05,0.0,-0.000412,1741812240.498189
-0.24925,0.00975,-0.01175,7.625e-05,0.00029,-0.000183,1741812240.512745
-0.25125,0.0115,-0.01475,0.0002595,0.00035100002,-3.0500001e-05,1741812240.527422
-0.252,0.01275,-0.016,0.00036625,0.000183,-4.575e-05,1741812240.54218
-0.252,0.012,-0.0165,0.0001525,3.0500001e-05,-6.1000002e-05,1741812240.5567832
-0.2525,0.0115,-0.017,1.5250001e-05,-0.00024425,-0.0001525,1741812240.571455
-0.25025,0.01075,-0.01375,-3.0500001e-05,-0.00030525,-0.00019825,1741812240.586283
-0.24925,0.0115,-0.012,-6.1000002e-05,-9.15e-05,-3.0500001e-05,1741812240.601171
-0.251,0.01375,-0.01375,0.000122000005,4.575e-05,1.5250001e-05,1741812240.6157591
-0.2515,0.0135,-0.0145,0.000183,0.0002135,-0.0001525,1741812240.630338
-0.2515,0.01075,-0.01475,0.00016775,0.00030525,-0.00019825,1741812240.645204
-0.2515,0.01,-0.0155,0.00030525,0.00029,-6.1000002e-05,1741812240.6596758
-0.2495,0.01075,-0.0165,0.00059500005,0.00016775,4.575e-05,1741812240.675446
-0.249,0.01275,-0.01675,0.00080875,-7.625e-05,0.00010675,1741812240.688952
-0.24975,0.01725,-0.01825,0.0004425,-0.00016775,3.0500001e-05,1741812240.703671
-0.2505,0.01775,-0.01875,-0.00045775,-0.00036625,-0.00039675,1741812240.718487
-0.25025,0.012,-0.01625,-0.00086975005,-0.00045775,-0.0005645,1741812240.73317
-0.2495,0.00825,-0.01475,-0.00112925,-0.000473,-0.00059500005,1741812240.74795
-0.2495,0.00625,-0.01425,-0.00080875,-0.00035100002,-0.00027475,1741812240.7627468
-0.24975,0.00825,-0.0145,-0.00048825,-0.00029,-3.0500001e-05,1741812240.7774642
-0.25,0.01275,-0.0155,-0.0002135,-0.00027475,0.00027475,1741812240.792075
-0.24975,0.014,-0.01575,-0.00033575002,-0.0003205,0.0003205,1741812240.8067589
-0.24975,0.0145,-0.0165,-0.000473,-0.0004425,0.00019825,1741812240.82148
-0.25025,0.014,-0.01675,-0.000473,-0.000473,4.575e-05,1741812240.836031
-0.2505,0.0135,-0.0165,-0.0005035,-0.00048825,-0.000122000005,1741812240.8508859
-0.24975,0.01275,-0.0165,-0.00033575002,-0.0005035,-0.000183,1741812240.865904
-0.24925,0.0125,-0.0155,-7.625e-05,-0.000473,-0.00016775,1741812240.88048
-0.24875,0.01275,-0.01425,-0.00016775,-0.00039675,-9.15e-05,1741812240.895489
-0.24925,0.0135,-0.01475,-0.00024425,-0.0002135,-7.625e-05,1741812240.909918
-0.25025,0.013,-0.01575,-0.0003205,-0.000183,-9.15e-05,1741812240.9253361
-0.25,0.01175,-0.0155,-0.00039675,-0.000183,-0.00010675,1741812240.939449
-0.24975,0.0115,-0.01575,-0.00029,-0.00013725001,-4.575e-05,1741812240.955277
-0.25075,0.01275,-0.0165,4.575e-05,-0.0001525,-0.000122000005,1741812240.968813
-0.25175,0.015,-0.0165,1.5250001e-05,-0.000229,-0.00024425,1741812240.98352
-0.252,0.0145,-0.0165,-0.0002595,-0.00036625,-0.00045775,1741812240.998338
-0.2515,0.01175,-0.0155,-0.0004425,-0.0003815,-0.00048825,1741812241.013199
-0.2505,0.00975,-0.01475,-0.000473,-0.000229,-0.00029,1741812241.0278971
-0.24875,0.008,-0.01425,-0.00036625,-7.625e-05,-3.0500001e-05,1741812241.0426502
-0.25,0.01025,-0.016,0.00010675,7.625e-05,0.00030525,1741812241.057157
-0.2525,0.016,-0.01975,0.0002135,-1.5250001e-05,0.0002135,1741812241.071753
-0.2515,0.0155,-0.0195,-0.00027475,-0.00024425,-0.000183,1741812241.08653
-0.24875,0.00975,-0.018,-0.00054925,-0.00029,-0.00024425,1741812241.1013749
-0.2475,0.0075,-0.01675,-0.00054925,-0.000183,3.0500001e-05,1741812241.1164758
-0.248,0.00875,-0.015,-0.00030525,-1.5250001e-05,0.0002595,1741812241.1307719
-0.25025,0.0125,-0.017,-9.15e-05,0.00016775,0.0004425,1741812241.145515
-0.25325,0.016,-0.021,-6.1000002e-05,6.1000002e-05,0.00033575002,1741812241.1599271
-0.252,0.014,-0.02,-0.00029,-0.000183,0.00013725001,1741812241.1755571
-0.24925,0.01075,-0.017,-0.0004425,-0.00048825,0.0,1741812241.18946
-0.2475,0.01,-0.0145,-0.00019825,-0.00042725,0.0001525,1741812241.205235
-0.2495,0.01325,-0.01625,0.00010675,-0.00027475,0.00030525,1741812241.218772
-0.25175,0.01625,-0.01725,-4.575e-05,-0.00027475,0.0001525,1741812241.2334201
-0.25075,0.0145,-0.01575,-0.00024425,-0.00019825,-0.0002595,1741812241.2481291
-0.249,0.01125,-0.0145,-0.00019825,-9.15e-05,-0.00029,1741812241.2629209
-0.24925,0.01075,-0.015,-6.1000002e-05,0.00010675,-0.000122000005,1741812241.277619
-0.25025,0.01275,-0.01775,1.5250001e-05,0.0001525,-9.15e-05,1741812241.292316
-0.25,0.014,-0.01825,0.00013725001,0.00016775,-0.000122000005,1741812241.307061
-0.2505,0.0145,-0.01825,-1.5250001e-05,0.0002135,-9.15e-05,1741812241.3217468
-0.2515,0.013,-0.019,-0.00016775,0.00019825,-1.5250001e-05,1741812241.336525
-0.2515,0.01025,-0.01975,-1.5250001e-05,0.00013725001,1.5250001e-05,1741812241.351255
-0.25025,0.01025,-0.01875,4.575e-05,-7.625e-05,0.00030525,1741812241.366025
-0.24675,0.00975,-0.0125,4.575e-05,-9.15e-05,0.00045775,1741812241.380764
-0.24575,0.00975,-0.01025,0.0002595,0.00035100002,0.00071725,1741812241.3954282
-0.247,0.01175,-0.0125,0.00042725,0.00062550005,0.00083925005,1741812241.4098518
-0.24925,0.014,-0.0155,0.000763,0.00083925005,0.0007935,1741812241.425401
-0.254,0.01775,-0.023,0.000824,0.00071725,0.0005035,1741812241.43888
-0.25425,0.017,-0.024,0.00065625,0.000412,0.00013725001,1741812241.4533849
-0.2535,0.0145,-0.02275,0.00010675,-0.0002595,-0.00042725,1741812241.468054
-0.25125,0.00975,-0.018,4.575e-05,-0.0004425,-0.00048825,1741812241.482771
-0.2505,0.00825,-0.01575,-3.0500001e-05,-0.0004425,-0.0001525,1741812241.497504
-0.25125,0.0105,-0.0155,7.625e-05,-0.00033575002,6.1000002e-05,1741812241.512147
-0.25225,0.013,-0.0175,0.00036625,-0.00033575002,0.000122000005,1741812241.5267231
-0.25075,0.014,-0.0165,0.00027475,-0.0004425,1.5250001e-05,1741812241.541373
-0.24925,0.01275,-0.01525,0.00029,-0.0003815,-0.00016775,1741812241.556036
-0.24975,0.0115,-0.0155,0.00030525,-0.000229,-0.000183,1741812241.570734
-0.2505,0.011,-0.0155,0.000229,4.575e-05,-6.1000002e-05,1741812241.585632
-0.251,0.0095,-0.01575,0.0001525,0.00013725001,7.625e-05,1741812241.599978
-0.25075,0.009,-0.0165,-1.5250001e-05,0.0002135,0.000473,1741812241.61536
-0.25025,0.011,-0.0185,-1.5250001e-05,0.000183,0.00062550005,1741812241.629262
-0.2505,0.0135,-0.02025,0.0001525,-0.0001525,0.00071725,1741812241.645238
-0.25075,0.016,-0.02125,0.0003205,-0.0003815,0.00054925,1741812241.658559
-0.25,0.0145,-0.02075,0.000473,-0.000763,0.00010675,1741812241.673343
-0.24825,0.01075,-0.01775,0.000412,-0.000824,1.5250001e-05,1741812241.687951
-0.24875,0.01,-0.017,0.0005645,-0.0007325,6.1000002e-05,1741812241.702667
-0.25075,0.011,-0.017,0.00071725,-0.00068675,0.00010675,1741812241.717364
-0.251,0.011,-0.01675,0.0008545,-0.00062550005,0.000122000005,1741812241.731912
-0.251,0.01075,-0.01775,0.00083925005,-0.000412,0.00013725001,1741812241.7467551
-0.25075,0.01125,-0.01825,0.00074775,-0.0003205,0.00013725001,1741812241.761454
-0.25025,0.01175,-0.0185,0.000534,-0.000183,3.0500001e-05,1741812241.776098
-0.2505,0.0125,-0.019,0.00045775,-0.00013725001,-6.1000002e-05,1741812241.790743
-0.25075,0.01225,-0.0195,0.000412,-0.00010675,-0.00027475,1741812241.8054988
-0.24975,0.00925,-0.019,0.0003205,-0.00013725001,-0.00030525,1741812241.8203
-0.2495,0.0085,-0.01875,0.00030525,-0.0002135,-0.000183,1741812241.835297
-0.25025,0.00875,-0.018,0.00033575002,-0.000229,-0.00010675,1741812241.849739
-0.25075,0.0095,-0.0175,0.000183,-0.0002135,6.1000002e-05,1741812241.865359
-0.2515,0.01125,-0.0185,0.00013725001,-0.000183,6.1000002e-05,1741812241.878904
-0.25075,0.01075,-0.0175,-0.0001525,1.5250001e-05,-9.15e-05,1741812241.893568
-0.25125,0.012,-0.019,-0.00024425,0.000122000005,-0.00010675,1741812241.908235
-0.2525,0.0135,-0.0215,-0.0003205,4.575e-05,-0.0003205,1741812241.923017
-0.24925,0.009,-0.01825,-0.0005645,-0.00010675,-0.000412,1741812241.937841
-0.24775,0.006,-0.01525,-0.00067150005,-7.625e-05,-0.00010675,1741812241.9526038
-0.251,0.01075,-0.01775,-0.00039675,0.0,0.000122000005,1741812241.967235
-0.25225,0.01425,-0.01975,-0.0002595,-0.00016775,0.000122000005,1741812241.981976
-0.2485,0.011,-0.0155,-0.00061025,-0.0002135,3.0500001e-05,1741812241.9967139
-0.246,0.0065,-0.0115,-0.0013427499,0.00030525,0.00024425,1741812242.011415
-0.24375,0.00325,-0.00975,-0.00154125,0.00083925005,0.00064075,1741812242.025985
-0.24575,0.00725,-0.014,-0.00149525,0.0013885,0.0010375,1741812242.040707
-0.253,0.019,-0.02875,-0.0007325,0.001648,0.0011445,1741812242.055423
-0.25425,0.02075,-0.03225,-0.0005645,0.0012207499,0.00068675,1741812242.069928
-0.254,0.01875,-0.03175,-0.00086975005,-6.1000002e-05,-0.0005035,1741812242.085393
-0.2505,0.009,-0.023,-0.00096125,-0.00059500005,-0.0008545,1741812242.0996962
-0.24875,0.00425,-0.01775,-0.00059500005,-0.001007,-0.00064075,1741812242.1153731
-0.24775,0.00275,-0.01275,-0.000229,-0.0008545,-0.0002135,1741812242.129318
-0.24825,0.006,-0.0135,0.0003815,-0.0003205,0.00054925,1741812242.14563
-0.2505,0.01525,-0.01875,0.00045775,-0.000122000005,0.00064075,1741812242.158612
-0.252,0.01825,-0.0215,3.0500001e-05,-0.00013725001,0.0002135,1741812242.1732302
-0.252,0.01625,-0.0225,-0.00030525,-0.00029,-0.0001525,1741812242.188107
-0.25125,0.013,-0.0215,-0.00030525,-0.0005645,-0.00057975,1741812242.202892
-0.25075,0.00725,-0.018,-0.000122000005,-0.00064075,-0.0005645,1741812242.2177432
-0.2505,0.00425,-0.01625,1.5250001e-05,-0.00071725,0.0,1741812242.232407
-0.24975,0.00225,-0.0125,0.00010675,-0.00064075,0.0004425,1741812242.247137
-0.2495,0.00525,-0.012,0.00036625,-0.000183,0.00115975,1741812242.261705
-0.25125,0.0155,-0.01425,0.00036625,6.1000002e-05,0.001175,1741812242.276372
-0.251,0.018,-0.015,-0.00027475,0.0004425,0.00048825,1741812242.290879
-0.24975,0.0155,-0.01575,-0.00068675,0.00061025,3.0500001e-05,1741812242.3055282
-0.2495,0.012,-0.01625,-0.00090025004,0.00096125,-0.00070200005,1741812242.320223
-0.25025,0.007,-0.01925,-0.0008545,0.0010375,-0.0007935,1741812242.335469
-0.251,0.00575,-0.02075,-0.00062550005,0.00096125,-0.00059500005,1741812242.349752
-0.25225,0.006,-0.02175,-0.0003815,0.000824,-0.00042725,1741812242.3654919
-0.25225,0.0065,-0.02175,3.0500001e-05,0.00039675,-0.0001525,1741812242.3789198
-0.2505,0.00775,-0.02025,0.00010675,0.0002135,0.0,1741812242.393588
-0.25025,0.01,-0.02,0.000183,6.1000002e-05,0.00013725001,1741812242.408001
-0.25,0.01175,-0.0195,-4.575e-05,-6.1000002e-05,0.000229,1741812242.422739
-0.2495,0.01325,-0.01975,-0.000229,-4.575e-05,0.0001525,1741812242.4374359
-0.24975,0.0125,-0.02075,-0.00045775,-3.0500001e-05,-0.00013725001,1741812242.452321
-0.24875,0.0085,-0.01875,-0.00059500005,-7.625e-05,-0.00019825,1741812242.467133
-0.24875,0.008,-0.0185,-0.00030525,-6.1000002e-05,-6.1000002e-05,1741812242.4819672
-0.24825,0.0095,-0.01825,-9.15e-05,-6.1000002e-05,-1.5250001e-05,1741812242.496825
-0.2475,0.00925,-0.01675,-1.5250001e-05,-3.0500001e-05,0.00013725001,1741812242.511507
-0.2505,0.01425,-0.01925,0.000122000005,-1.5250001e-05,0.00016775,1741812242.526164
-0.2515,0.016,-0.0205,4.575e-05,-0.00016775,-0.00030525,1741812242.540812
-0.2495,0.0105,-0.01725,-0.000183,-0.000183,-0.00054925,1741812242.555637
-0.249,0.008,-0.01675,-0.000122000005,-7.625e-05,-0.0004425,1741812242.57091
-0.24875,0.0075,-0.01825,3.0500001e-05,-1.5250001e-05,-0.00019825,1741812242.5854259
-0.2495,0.00825,-0.019,0.00035100002,3.0500001e-05,0.00016775,1741812242.599703
-0.25175,0.0085,-0.0175,0.00045775,0.0,0.00029,1741812242.615935
-0.25225,0.00925,-0.0165,0.0007935,-0.000183,0.000473,1741812242.628892
-0.25225,0.015,-0.0175,0.00093075,-0.00027475,0.00039675,1741812242.64353
-0.2505,0.0165,-0.017,0.00035100002,-0.0003815,-0.000122000005,1741812242.65825
-0.2485,0.013,-0.01475,-4.575e-05,-0.00027475,-0.000412,1741812242.673121
-0.24975,0.01075,-0.01525,-0.000229,9.15e-05,-0.0007935,1741812242.687822
-0.2525,0.007,-0.017,-0.00019825,0.000183,-0.0007935,1741812242.702464
-0.25325,0.00575,-0.01725,-7.625e-05,0.0001525,-0.000473,1741812242.717122
-0.25275,0.0075,-0.01725,-1.5250001e-05,0.00010675,-0.00027475,1741812242.731725
-0.25175,0.0085,-0.01625,-7.625e-05,0.00010675,-0.00010675,1741812242.7465
-0.2505,0.01025,-0.0165,-0.00016775,0.000183,0.0002135,1741812242.76111
-0.2505,0.0115,-0.01725,-0.0001525,0.0002135,0.0002595,1741812242.775855
-0.25075,0.01325,-0.01875,0.0,0.000122000005,6.1000002e-05,1741812242.790381
-0.25075,0.0135,-0.019,-3.0500001e-05,1.5250001e-05,-0.00013725001,1741812242.805284
-0.25025,0.012,-0.01725,-0.00019825,-6.1000002e-05,-0.0003815,1741812242.81984
-0.25,0.01,-0.0155,-0.00016775,0.0,-0.00033575002,1741812242.835277
-0.25025,0.00975,-0.01575,-0.00013725001,0.00019825,-9.15e-05,1741812242.8492181
-0.2505,0.0115,-0.0175,-7.625e-05,0.000229,-1.5250001e-05,1741812242.8654451
-0.25025,0.012,-0.01825,0.00013725001,0.00013725001,1.5250001e-05,1741812242.8785121
-0.24875,0.0115,-0.01825,0.000183,7.625e-05,1.5250001e-05,1741812242.893074
-0.2485,0.0105,-0.018,9.15e-05,7.625e-05,7.625e-05,1741812242.907518
-0.24975,0.01,-0.01725,0.0001525,0.00010675,0.00016775,1741812242.9220731
-0.25025,0.01075,-0.01675,0.00035100002,7.625e-05,0.00036625,1741812242.936623
-0.24875,0.013,-0.01475,0.0003205,0.00010675,0.0004425,1741812242.951296
-0.248,0.01475,-0.01525,0.00051875,0.00036625,0.00030525,1741812242.9657788
-0.2485,0.018,-0.0195,0.0005645,0.00048825,7.625e-05,1741812242.980302
-0.249,0.01825,-0.02125,0.0004425,0.00054925,-0.0002595,1741812242.995208
-0.24925,0.013,-0.02125,-0.00010675,0.0005645,-0.0009155,1741812243.009513
-0.24975,0.0105,-0.02075,-0.00035100002,0.00057975,-0.001114,1741812243.0251782
-0.2505,0.0085,-0.02075,-0.00039675,0.000534,-0.0011445,1741812243.0390332
-0.25125,0.0055,-0.02025,-0.0002595,0.000412,-0.0009765,1741812243.0555892
-0.2505,0.00525,-0.01975,0.00019825,-1.5250001e-05,-0.000412,1741812243.06861
-0.25025,0.00825,-0.01925,0.0005035,-0.0002595,-0.0001525,1741812243.0833158
-0.25025,0.01,-0.018,0.00071725,-0.00057975,1.5250001e-05,1741812243.097866
-0.2495,0.01075,-0.01425,0.00061025,-0.00059500005,0.0,1741812243.112413
-0.24925,0.011,-0.01375,0.000473,-0.00033575002,-9.15e-05,1741812243.127133
-0.25025,0.0115,-0.016,0.0004425,-0.0002135,-0.0001525,1741812243.141835
-0.25075,0.01075,-0.01675,6.1000002e-05,-0.000122000005,-0.00024425,1741812243.156657
-0.251,0.007,-0.01575,-6.1000002e-05,-6.1000002e-05,-0.0002135,1741812243.171314
-0.2515,0.0065,-0.01525,3.0500001e-05,9.15e-05,9.15e-05,1741812243.1858208
-0.25425,0.0115,-0.01725,0.000122000005,0.00010675,0.00024425,1741812243.200392
-0.25425,0.01325,-0.018,-7.625e-05,-9.15e-05,0.000229,1741812243.215326
-0.251,0.013,-0.0175,-0.0002135,-0.000183,0.000122000005,1741812243.229719
-0.25,0.0125,-0.01725,-0.00019825,-0.00030525,4.575e-05,1741812243.2452
-0.25025,0.013,-0.0175,-0.00019825,-0.00033575002,3.0500001e-05,1741812243.259389
-0.25075,0.01325,-0.01675,-0.00045775,-0.00036625,-3.0500001e-05,1741812243.275224
-0.249,0.01175,-0.01425,-0.00045775,-0.0002595,-9.15e-05,1741812243.288893
-0.2485,0.011,-0.0145,-0.00033575002,-6.1000002e-05,-0.00010675,1741812243.3052511
-0.25075,0.01225,-0.0195,-7.625e-05,0.00029,-1.5250001e-05,1741812243.31852
-0.25125,0.01275,-0.0215,-9.15e-05,0.0002135,0.0,1741812243.334635
-0.2505,0.0125,-0.01975,0.0,-0.000183,-9.15e-05,1741812243.347988
-0.2495,0.01275,-0.01775,0.0002135,-0.00029,-0.000183,1741812243.362682
-0.2485,0.0125,-0.016,0.00016775,-0.0001525,-0.0002595,1741812243.377488
-0.249,0.011,-0.0175,-4.575e-05,6.1000002e-05,-0.00030525,1741812243.392242
-0.24975,0.0095,-0.019,-0.000229,0.0003205,-0.0003205,1741812243.407233
-0.2505,0.00825,-0.02075,-0.00019825,0.00027475,-0.0002135,1741812243.421897
-0.25025,0.00875,-0.0205,0.0,0.0,3.0500001e-05,1741812243.436406
-0.2495,0.0115,-0.02,4.575e-05,-0.000122000005,9.15e-05,1741812243.451057
-0.24975,0.013,-0.02,-6.1000002e-05,-0.00036625,-1.5250001e-05,1741812243.465821
-0.25,0.0135,-0.0185,-0.00016775,-0.00045775,-0.0001525,1741812243.4807281
-0.24975,0.01175,-0.017,-0.00035100002,-0.00039675,-0.00039675,1741812243.495512
-0.2495,0.0075,-0.0145,-0.000473,-0.000229,-0.0003815,1741812243.5102699
-0.24975,0.007,-0.015,-0.0003815,0.0002135,-6.1000002e-05,1741812243.5256221
-0.25075,0.00975,-0.0195,-0.00024425,0.00033575002,0.00013725001,1741812243.5397062
-0.25175,0.01175,-0.02175,-4.575e-05,0.00010675,0.0002595,1741812243.555497
-0.25025,0.0115,-0.02075,-0.000122000005,-0.0001525,0.00024425,1741812243.568985
-0.249,0.0105,-0.019,-0.00030525,-0.00045775,0.0003205,1741812243.5854511
-0.2485,0.01,-0.016,-0.0003815,-0.000412,0.00036625,1741812243.5983949
-0.2495,0.011,-0.015,-0.000473,-0.000183,0.000473,1741812243.613045
-0.2525,0.01375,-0.01575,-0.0004425,-9.15e-05,0.000473,1741812243.6277199
-0.25275,0.014,-0.017,-0.000473,-4.575e-05,0.00030525,1741812243.642517
-0.25225,0.0125,-0.01725,-0.0004425,0.0,0.0001525,1741812243.6572502
-0.25175,0.01125,-0.017,-0.00036625,0.00013725001,1.5250001e-05,1741812243.671712
-0.252,0.0115,-0.017,-0.0003205,0.0002135,1.5250001e-05,1741812243.686346
-0.252,0.01225,-0.0175,-0.00024425,0.00024425,3.0500001e-05,1741812243.700934
-0.25075,0.012,-0.01725,-0.00010675,0.00016775,0.000122000005,1741812243.715672
-0.25,0.012,-0.017,-3.0500001e-05,0.00013725001,0.00016775,1741812243.730166
-0.25,0.01225,-0.01725,-1.5250001e-05,0.000183,0.00016775,1741812243.745325
-0.251,0.01375,-0.019,0.0,0.00013725001,0.00010675,1741812243.759316
-0.251,0.01425,-0.01875,1.5250001e-05,-0.000122000005,-0.00016775,1741812243.775543
-0.249,0.01225,-0.0155,-6.1000002e-05,-0.00016775,-0.00030525,1741812243.788845
-0.2485,0.01125,-0.01475,-0.0001525,3.0500001e-05,-0.0003205,1741812243.805155
-0.24875,0.01125,-0.0155,-0.000122000005,0.000183,-0.00029,1741812243.818322
-0.24925,0.012,-0.017,-1.5250001e-05,0.00042725,-0.0003205,1741812243.832981
-0.25025,0.0115,-0.01975,3.0500001e-05,0.000473,-0.00039675,1741812243.847739
-0.2495,0.00925,-0.01925,-0.00010675,0.00048825,-0.00030525,1741812243.8624299
-0.25,0.00825,-0.01975,-0.000122000005,0.00051875,-7.625e-05,1741812243.877314
-0.25175,0.01,-0.02225,-0.00010675,0.00030525,0.0003815,1741812243.891977
-0.25275,0.01175,-0.024,-0.0002135,0.0,0.00042725,1741812243.9066932
-0.25075,0.011,-0.022,-0.0003815,-0.00059500005,0.0003815,1741812243.9214442
-0.2475,0.01075,-0.017,-0.0002135,-0.00074775,0.0003815,1741812243.936256
-0.247,0.012,-0.01575,3.0500001e-05,-0.00067150005,0.00016775,1741812243.950933
-0.24625,0.01225,-0.0145,-6.1000002e-05,-0.0005035,-7.625e-05,1741812243.965796
-0.24625,0.011,-0.01425,-0.00029,-6.1000002e-05,-0.00039675,1741812243.980597
-0.24925,0.00875,-0.01725,-0.00019825,9.15e-05,-0.000412,1741812243.99532
-0.25125,0.009,-0.0195,-3.0500001e-05,9.15e-05,-0.00035100002,1741812244.0099
-0.2525,0.0095,-0.0215,-4.575e-05,-1.5250001e-05,-0.00033575002,1741812244.025541
-0.25225,0.009,-0.02125,-0.0001525,-0.00010675,-0.0003205,1741812244.0395179
-0.25125,0.00875,-0.01975,-0.000412,-0.00027475,-0.00019825,1741812244.055284
-0.2505,0.0095,-0.01875,-0.00036625,-0.00033575002,-0.000122000005,1741812244.0691352
-0.2495,0.01125,-0.017,-0.000229,-0.00027475,-6.1000002e-05,1741812244.0853078
-0.24975,0.01075,-0.01725,-0.00027475,-0.0001525,-7.625e-05,1741812244.098591
-0.25025,0.01,-0.01825,-0.00039675,6.1000002e-05,-1.5250001e-05,1741812244.113236
-0.25025,0.0095,-0.02075,-0.00039675,4.575e-05,6.1000002e-05,1741812244.1278322
-0.24975,0.01025,-0.02125,-0.00035100002,-0.00024425,0.00024425,1741812244.142462
-0.25,0.01175,-0.02125,-0.0003205,-0.00045775,0.00029,1741812244.157181
-0.25,0.01275,-0.02025,-0.00039675,-0.00070200005,0.000183,1741812244.1718552
-0.24825,0.01225,-0.01775,-0.00045775,-0.00062550005,3.0500001e-05,1741812244.186504
-0.24825,0.0115,-0.017,-0.00051875,-0.0002135,-0.000183,1741812244.201333
-0.25025,0.0115,-0.01825,-0.000534,-4.575e-05,-0.0002135,1741812244.2161548
-0.2515,0.01175,-0.0195,-0.00054925,4.575e-05,-0.00027475,1741812244.230832
-0.252,0.0105,-0.01925,-0.0005035,0.0,-0.00029,1741812244.245478
-0.251,0.0095,-0.0185,-0.00036625,-6.1000002e-05,-0.000183,1741812244.260294
-0.2505,0.01,-0.01875,-0.00024425,-0.00010675,-7.625e-05,1741812244.275537
-0.251,0.011,-0.019,-0.00013725001,-0.000183,7.625e-05,1741812244.2898188
-0.2505,0.01175,-0.01825,-0.00013725001,-0.00016775,7.625e-05,1741812244.305171
-0.25025,0.01225,-0.018,-0.000229,-7.625e-05,-3.0500001e-05,1741812244.319368
-0.25125,0.0125,-0.018,-0.00029,-1.5250001e-05,-0.000122000005,1741812244.3354938
-0.25125,0.01175,-0.01825,-0.00033575002,1.5250001e-05,-0.0002595,1741812244.348735
-0.25,0.0105,-0.017,-0.0003205,-1.5250001e-05,-0.00024425,1741812244.363481
-0.25,0.0105,-0.01725,-6.1000002e-05,-0.00010675,-6.1000002e-05,1741812244.3782752
-0.251,0.01225,-0.018,6.1000002e-05,-0.00013725001,-3.0500001e-05,1741812244.393019
-0.25075,0.01175,-0.01725,-0.00010675,-0.00013725001,-3.0500001e-05,1741812244.407787
-0.25025,0.01075,-0.01525,-0.000229,-1.5250001e-05,0.0,1741812244.4225569
-0.25125,0.01175,-0.01575,-0.000183,0.0001525,6.1000002e-05,1741812244.4373
-0.2525,0.01275,-0.01875,9.15e-05,0.00030525,9.15e-05,1741812244.45189
-0.2525,0.01275,-0.01975,0.00013725001,0.00029,6.1000002e-05,1741812244.4664278
-0.25225,0.012,-0.02,0.00024425,0.00019825,3.0500001e-05,1741812244.480905
-0.251,0.01175,-0.01975,0.00035100002,0.0001525,7.625e-05,1741812244.495678
-0.251,0.012,-0.01975,0.00051875,0.00013725001,0.00016775,1741812244.510143
-0.24975,0.01325,-0.021,0.00071725,0.0001525,0.00010675,1741812244.5250182
-0.24875,0.0135,-0.02075,0.00108325,3.0500001e-05,3.0500001e-05,1741812244.5391831
-0.24875,0.01325,-0.018,0.001007,-9.15e-05,-4.575e-05,1741812244.555233
-0.24825,0.012,-0.0165,0.00086975005,-1.5250001e-05,-0.000412,1741812244.568733
-0.249,0.01025,-0.0155,0.00074775,0.000183,-0.0005035,1741812244.583429
-0.24975,0.00925,-0.017,0.00036625,0.00045775,-0.000473,1741812244.598094
-0.251,0.00875,-0.0205,0.00024425,0.00042725,-0.00033575002,1741812244.6127338
-0.251,0.0095,-0.022,0.00035100002,4.575e-05,-7.625e-05,1741812244.62733
-0.24925,0.011,-0.02125,0.000412,-0.00016775,-3.0500001e-05,1741812244.642026
-0.2485,0.01125,-0.0205,0.00027475,-0.00033575002,-3.0500001e-05,1741812244.6567528
-0.248,0.01075,-0.0185,4.575e-05,-0.0002595,-3.0500001e-05,1741812244.671508
-0.249,0.01125,-0.01825,-0.00013725001,0.00010675,-1.5250001e-05,1741812244.686232
-0.2515,0.01175,-0.02,-6.1000002e-05,0.00024425,-7.625e-05,1741812244.700906
-0.25175,0.01125,-0.02075,-3.0500001e-05,0.0002595,-0.00013725001,1741812244.715708
-0.25025,0.009,-0.01975,-0.00010675,4.575e-05,-4.575e-05,1741812244.730409
-0.24925,0.008,-0.01925,-3.0500001e-05,-6.1000002e-05,6.1000002e-05,1741812244.745334
-0.24725,0.008,-0.018,0.00024425,-0.000183,0.00024425,1741812244.759813
-0.2475,0.0095,-0.01825,0.0003205,-0.0002135,0.00035100002,1741812244.775352
-0.2485,0.01125,-0.019,0.000229,-0.000229,0.000412,1741812244.789137
-0.2505,0.011,-0.02075,7.625e-05,-0.00027475,0.0003205,1741812244.805216
-0.2505,0.00925,-0.0205,3.0500001e-05,-0.00042725,0.00024425,1741812244.818333
-0.25,0.00825,-0.01825,0.00010675,-0.00042725,0.00030525,1741812244.8330328
-0.25075,0.00975,-0.01875,3.0500001e-05,-0.0002135,0.00045775,1741812244.84759
-0.253,0.01225,-0.02075,-0.00013725001,-0.00013725001,0.000412,1741812244.862386
-0.25325,0.01225,-0.0205,-0.000534,-0.00016775,0.0002595,1741812244.8770418
-0.25225,0.011,-0.01925,-0.00054925,-0.00024425,0.0002135,1741812244.891728
-0.2505,0.01,-0.018,-0.00036625,-0.00036625,0.00024425,1741812244.906524
-0.24775,0.0105,-0.0175,-0.0002595,-0.00033575002,0.00030525,1741812244.921222
-0.248,0.0125,-0.0185,-0.00013725001,-0.00019825,0.00027475,1741812244.935898
-0.2505,0.014,-0.01925,-0.000122000005,-0.0001525,0.000122000005,1741812244.950615
-0.25125,0.01275,-0.01825,-0.000229,-4.575e-05,-0.00013725001,1741812244.965495
-0.25125,0.01025,-0.018,-0.00016775,7.625e-05,-0.0001525,1741812244.9802291
-0.25125,0.01025,-0.0195,-7.625e-05,0.0001525,-1.5250001e-05,1741812244.995162
-0.25025,0.011,-0.022,-3.0500001e-05,9.15e-05,0.0,1741812245.00971
-0.2495,0.01075,-0.022,3.0500001e-05,-6.1000002e-05,-3.0500001e-05,1741812245.025253
-0.24975,0.011,-0.02125,-1.5250001e-05,-0.00010675,-1.5250001e-05,1741812245.039291
-0.25025,0.0115,-0.02175,0.0,-0.000183,-7.625e-05,1741812245.055354
-0.25025,0.011,-0.021,-0.000122000005,-0.00027475,-0.0001525,1741812245.0690298
-0.249,0.00925,-0.01925,-0.00027475,-0.0002595,-0.0002595,1741812245.084557
-0.248,0.00725,-0.01825,-0.000183,-0.000122000005,-0.000183,1741812245.098478
-0.249,0.00875,-0.0195,-1.5250001e-05,3.0500001e-05,-6.1000002e-05,1741812245.1132128
-0.25075,0.01275,-0.02175,0.00019825,4.575e-05,1.5250001e-05,1741812245.127703
-0.25075,0.01325,-0.022,0.000183,-3.0500001e-05,-6.1000002e-05,1741812245.142373
-0.2505,0.013,-0.02175,1.5250001e-05,-0.000183,-0.00030525,1741812245.157228
-0.24975,0.0105,-0.019,-0.00013725001,-0.00019825,-0.000412,1741812245.1720052
-0.24925,0.0095,-0.017,-0.0003205,0.0,-0.0004425,1741812245.1866639
-0.2485,0.00975,-0.01475,-0.00029,0.0002135,-0.00036625,1741812245.201393
-0.249,0.01075,-0.01525,-0.000122000005,0.00057975,-0.00024425,1741812245.216316
-0.252,0.0145,-0.02025,-9.15e-05,0.00064075,-0.00030525,1741812245.2309818
-0.25275,0.01525,-0.022,-0.0002595,0.00036625,-0.00068675,1741812245.2458072
-0.251,0.00975,-0.0215,-0.00030525,0.00016775,-0.000824,1741812245.2604969
-0.24975,0.007,-0.021,-0.0001525,-7.625e-05,-0.000534,1741812245.275606
-0.25025,0.00675,-0.02075,6.1000002e-05,-0.0001525,-0.00019825,1741812245.2902348
-0.25075,0.0085,-0.0205,0.00051875,-0.0003205,0.00029,1741812245.3052318
-0.25075,0.0115,-0.0195,0.00061025,-0.0003815,0.0003815,1741812245.319545
-0.251,0.01325,-0.01975,0.00045775,-0.00033575002,0.0002595,1741812245.335405
-0.251,0.01425,-0.02,0.00027475,-0.00027475,3.0500001e-05,1741812245.34869
-0.2505,0.01225,-0.01875,-0.0002135,-0.00010675,-0.0002595,1741812245.363502
-0.25,0.00825,-0.01725,-0.00024425,-1.5250001e-05,-0.000183,1741812245.378197
-0.25025,0.00875,-0.018,0.00010675,3.0500001e-05,9.15e-05,1741812245.3927062
-0.2495,0.012,-0.01925,0.0002595,3.0500001e-05,0.0001525,1741812245.407226
-0.249,0.014,-0.02,0.00016775,4.575e-05,0.0,1741812245.421694
-0.249,0.0145,-0.021,-4.575e-05,4.575e-05,-0.000183,1741812245.436419
-0.2495,0.01175,-0.02075,-0.0002595,6.1000002e-05,-0.0003815,1741812245.451308
-0.25,0.0065,-0.01875,-0.00029,4.575e-05,-0.0003815,1741812245.465865
-0.25025,0.0065,-0.01875,-0.0001525,6.1000002e-05,-0.00016775,1741812245.480567
-0.2505,0.00875,-0.02,0.0002595,0.000183,0.000229,1741812245.4952161
-0.25025,0.01325,-0.02325,0.00036625,0.00019825,0.000229,1741812245.509713
-0.25,0.01425,-0.0245,0.000122000005,3.0500001e-05,-3.0500001e-05,1741812245.525169
-0.2505,0.0125,-0.02475,-3.0500001e-05,-0.000122000005,-0.00016775,1741812245.538993
-0.2505,0.0105,-0.0235,-0.000183,-0.0005035,-0.000229,1741812245.555192
-0.249,0.0075,-0.0175,-0.000183,-0.00057975,-0.000122000005,1741812245.5685928
-0.2485,0.00775,-0.015,0.00010675,-0.00030525,0.000229,1741812245.583346
-0.25,0.01225,-0.01525,0.00027475,-6.1000002e-05,0.0003205,1741812245.597919
-0.2515,0.01475,-0.0175,0.00024425,0.000183,0.00013725001,1741812245.612401
-0.25175,0.01325,-0.0205,0.0,0.00013725001,-7.625e-05,1741812245.6270561
-0.25075,0.0105,-0.02025,-0.00036625,1.5250001e-05,-0.00019825,1741812245.641841
-0.25,0.0085,-0.021,-0.0002135,-6.1000002e-05,-7.625e-05,1741812245.656584
-0.25,0.01025,-0.0215,0.0001525,-0.0002595,0.00013725001,1741812245.671094
-0.24925,0.0125,-0.0195,0.00013725001,-0.00029,0.00013725001,1741812245.685718
-0.2485,0.01275,-0.01825,-4.575e-05,-6.1000002e-05,1.5250001e-05,1741812245.700416
-0.25,0.01175,-0.0185,-0.00010675,0.00013725001,-6.1000002e-05,1741812245.7154582
-0.2515,0.01125,-0.01975,-0.00016775,0.00029,-0.00010675,1741812245.730069
-0.25275,0.01,-0.0215,-0.000229,0.00030525,-0.000122000005,1741812245.744802
-0.25175,0.009,-0.021,-0.000183,0.0001525,-6.1000002e-05,1741812245.75951
-0.24975,0.011,-0.021,9.15e-05,-0.00013725001,0.0002135,1741812245.775171
-0.2495,0.01375,-0.02225,0.00027475,-0.0002135,0.00027475,1741812245.788703
-0.249,0.01525,-0.022,3.0500001e-05,-0.00024425,-3.0500001e-05,1741812245.805094
-0.248,0.01125,-0.019,-0.00024425,-0.00016775,-0.0002135,1741812245.8183072
-0.248,0.00825,-0.01825,-0.00033575002,7.625e-05,-0.0002135,1741812245.832835
-0.24925,0.006,-0.02,-0.000183,0.0002135,-3.0500001e-05,1741812245.8475661
-0.24975,0.0065,-0.02175,4.575e-05,0.000229,0.000412,1741812245.8620548
-0.249,0.00825,-0.02275,3.0500001e-05,0.000122000005,0.00059500005,1741812245.876605
-0.24875,0.00925,-0.023,-1.5250001e-05,-0.00013725001,0.00077825,1741812245.891291
-0.24975,0.0115,-0.0245,1.5250001e-05,-0.0003205,0.000763,1741812245.905828
-0.25025,0.0125,-0.02425,0.00019825,-0.00070200005,0.00051875,1741812245.9204018
-0.25075,0.01225,-0.021,0.000122000005,-0.00083925005,0.00033575002,1741812245.935348
-0.25025,0.01125,-0.0185,-7.625e-05,-0.00083925005,6.1000002e-05,1741812245.9496782
-0.24975,0.00975,-0.0165,-0.0001525,-0.00067150005,3.0500001e-05,1741812245.965767
-0.25,0.00975,-0.01725,-0.00024425,-0.00016775,4.575e-05,1741812245.979124
-0.2515,0.01075,-0.02075,-0.00019825,-1.5250001e-05,3.0500001e-05,1741812245.995122
-0.2525,0.011,-0.02175,-0.0003205,-6.1000002e-05,-7.625e-05,1741812246.0087261
-0.2525,0.0105,-0.02125,-0.00030525,-0.00019825,-0.00010675,1741812246.023495
-0.25225,0.0105,-0.021,-0.0002595,-0.00030525,-0.000122000005,1741812246.0382872
-0.25075,0.01075,-0.01875,-0.00030525,-0.0004425,-0.000122000005,1741812246.053077
-0.25,0.0105,-0.0175,-0.00024425,-0.00039675,-9.15e-05,1741812246.067916
-0.24975,0.01075,-0.017,-0.000229,-0.000122000005,3.0500001e-05,1741812246.082623
-0.25,0.01175,-0.018,-0.00019825,6.1000002e-05,3.0500001e-05,1741812246.0971038
-0.25,0.01225,-0.0195,-9.15e-05,0.00036625,-0.00010675,1741812246.111892
-0.25075,0.01125,-0.02225,-9.15e-05,0.00045775,-0.00016775,1741812246.1265862
-0.251,0.01075,-0.0235,-0.0002595,0.0003205,-0.00013725001,1741812246.141207
-0.2505,0.01025,-0.024,-0.0003205,0.00010675,-9.15e-05,1741812246.15589
-0.24975,0.01025,-0.02275,0.0,-0.000183,-9.15e-05,1741812246.1705651
-0.24825,0.01,-0.0185,0.0,-0.00016775,-9.15e-05,1741812246.18533
-0.248,0.01,-0.01725,-6.1000002e-05,0.00024425,-0.000122000005,1741812246.199858
-0.24925,0.01075,-0.02025,-1.5250001e-05,0.000473,-0.00013725001,1741812246.215432
-0.25075,0.012,-0.0235,0.0001525,0.000473,-0.00027475,1741812246.229311
-0.25225,0.01225,-0.0265,4.575e-05,0.00019825,-0.00042725,1741812246.245352
-0.25075,0.0105,-0.02475,-0.00030525,-0.00035100002,-0.00059500005,1741812246.258699
-0.248,0.006,-0.02,-0.00029,-0.00042725,-0.00051875,1741812246.27351
-0.24825,0.00575,-0.01925,-3.0500001e-05,-0.000229,-0.00013725001,1741812246.288437
-0.25,0.00825,-0.02,3.0500001e-05,-7.625e-05,3.0500001e-05,1741812246.303106
-0.25025,0.01,-0.02,0.0,0.00013725001,0.00013725001,1741812246.317701
-0.25075,0.012,-0.022,-7.625e-05,0.00019825,0.00010675,1741812246.332284
-0.2515,0.01225,-0.0235,-0.00010675,6.1000002e-05,-0.00010675,1741812246.3469281
-0.25025,0.01,-0.0225,-0.0001525,-0.00010675,-0.00019825,1741812246.361675
-0.249,0.0085,-0.021,-0.0002135,-0.00019825,-0.00019825,1741812246.3765068
-0.24825,0.00975,-0.022,-7.625e-05,-0.00019825,-1.5250001e-05,1741812246.3912902
-0.24825,0.011,-0.02275,0.0,-0.000183,6.1000002e-05,1741812246.405797
-0.24775,0.01275,-0.0215,-3.0500001e-05,-0.0001525,4.575e-05,1741812246.420496
-0.24825,0.01375,-0.02125,-6.1000002e-05,-9.15e-05,-6.1000002e-05,1741812246.4354932
-0.2495,0.01425,-0.02175,-0.00016775,-4.575e-05,-0.00035100002,1741812246.449995
-0.25125,0.011,-0.02175,-0.00019825,-9.15e-05,-0.00045775,1741812246.465717
-0.25125,0.009,-0.02125,-9.15e-05,-0.00029,-0.0003815,1741812246.479604
-0.2505,0.008,-0.01975,4.575e-05,-0.00033575002,-0.0002595,1741812246.495142
-0.25,0.00825,-0.01825,0.00016775,-0.0002135,0.0,1741812246.509086
-0.25025,0.01075,-0.0185,9.15e-05,-6.1000002e-05,0.00010675,1741812246.524965
-0.2505,0.0115,-0.01975,-9.15e-05,0.0001525,0.00010675,1741812246.538592
-0.25075,0.01175,-0.02175,-0.00010675,0.00016775,4.575e-05,1741812246.5547788
-0.25075,0.011,-0.0215,-0.000122000005,7.625e-05,-4.575e-05,1741812246.567839
-0.25025,0.0105,-0.021,3.0500001e-05,6.1000002e-05,-3.0500001e-05,1741812246.582711
-0.2505,0.01175,-0.022,0.0002595,0.00013725001,0.0,1741812246.597302
-0.25125,0.01325,-0.02475,9.15e-05,0.0001525,-7.625e-05,1741812246.6119082
-0.2505,0.0115,-0.02475,-0.00036625,4.575e-05,-0.000229,1741812246.626698
-0.24925,0.007,-0.02275,-0.00033575002,-6.1000002e-05,-0.0001525,1741812246.6415098
-0.2495,0.00775,-0.0225,7.625e-05,-0.00019825,0.00019825,1741812246.6561291
-0.24975,0.01375,-0.02175,0.000183,-0.00019825,0.00024425,1741812246.670958
-0.2495,0.01475,-0.0205,-0.00016775,-1.5250001e-05,1.5250001e-05,1741812246.6856918
-0.25,0.011,-0.019,-0.0003205,0.0001525,-0.00010675,1741812246.700373
-0.25075,0.00975,-0.02,-9.15e-05,0.0003205,-3.0500001e-05,1741812246.715344
-0.25225,0.01075,-0.02375,0.0001525,0.00019825,7.625e-05,1741812246.729706
-0.25125,0.0115,-0.0235,0.00045775,-0.00027475,0.00016775,1741812246.745167
-0.24925,0.01225,-0.02075,0.0005035,-0.00042725,0.000183,1741812246.759094
-0.2485,0.013,-0.01925,0.000473,-0.0004425,0.00013725001,1741812246.773769
-0.248,0.01225,-0.0185,0.0002135,-0.00013725001,-6.1000002e-05,1741812246.7884932
-0.248,0.01125,-0.0195,9.15e-05,0.00010675,-0.00019825,1741812246.803211
-0.2485,0.01075,-0.02075,-6.1000002e-05,0.000412,-0.00035100002,1741812246.817869
