acc_x,acc_y,acc_z,gyro_x,gyro_y,gyro_z,timestamp
0.0055,-0.0005,0.25075,0.0,-0.00013725001,-4.575e-05,1741812282.867764
0.00575,-0.0,0.2505,-0.00029,-6.1000002e-05,-4.575e-05,1741812282.882179
0.00575,0.0005,0.25025,-0.000229,-4.575e-05,-6.1000002e-05,1741812282.896693
0.00525,0.00025,0.25025,-0.00013725001,-1.5250001e-05,-6.1000002e-05,1741812282.9112551
0.00525,0.00025,0.2505,4.575e-05,0.0,-6.1000002e-05,1741812282.925664
0.00575,0.00025,0.25075,0.00019825,-3.0500001e-05,-6.1000002e-05,1741812282.9414332
0.00575,-0.00025,0.2505,0.00030525,-4.575e-05,-4.575e-05,1741812282.955682
0.0055,-0.00025,0.25075,0.000229,-1.5250001e-05,-6.1000002e-05,1741812282.9696698
0.0055,-0.0005,0.2505,-3.0500001e-05,3.0500001e-05,-7.625e-05,1741812282.985646
0.00575,-0.00025,0.2505,-0.000122000005,1.5250001e-05,-9.15e-05,1741812282.9989781
0.00575,-0.0,0.2505,-0.000122000005,1.5250001e-05,-7.625e-05,1741812283.015799
0.00525,-0.00025,0.25025,-6.1000002e-05,1.5250001e-05,-7.625e-05,1741812283.028172
0.0055,-0.0,0.25,0.00033575002,1.5250001e-05,-0.00013725001,1741812283.0426261
0.006,-0.0005,0.25075,0.0004425,4.575e-05,-0.0001525,1741812283.057176
0.006,-0.00075,0.2505,0.00013725001,9.15e-05,-0.00010675,1741812283.0716538
0.00575,-0.0005,0.2505,7.625e-05,7.625e-05,-0.00010675,1741812283.086263
0.00575,-0.00025,0.25075,9.15e-05,4.575e-05,-0.00016775,1741812283.1007512
0.0055,-0.00025,0.2505,0.000183,1.5250001e-05,-0.00029,1741812283.115309
0.00575,-0.001,0.25025,0.0002135,0.0,-0.00042725,1741812283.129662
0.00575,-0.00125,0.25025,-0.000183,4.575e-05,-0.000473,1741812283.1453938
0.00575,-0.00075,0.2505,-0.0002595,1.5250001e-05,-0.000412,1741812283.158792
0.00625,-0.0005,0.25075,-0.000122000005,-4.575e-05,-0.00035100002,1741812283.173507
0.006,-0.0005,0.2505,-4.575e-05,-6.1000002e-05,-0.00029,1741812283.188176
0.006,-0.0005,0.2505,0.00013725001,-7.625e-05,-0.000229,1741812283.202803
0.0055,-0.0005,0.2505,0.0,-4.575e-05,-0.0001525,1741812283.217377
0.00575,-0.0005,0.2505,-0.00016775,-1.5250001e-05,-1.5250001e-05,1741812283.23208
0.00575,-0.00075,0.25025,-0.0001525,-1.5250001e-05,0.0,1741812283.246656
0.00575,-0.0005,0.25025,-0.0001525,1.5250001e-05,-1.5250001e-05,1741812283.261208
0.00575,-0.00025,0.25075,-7.625e-05,3.0500001e-05,-4.575e-05,1741812283.2759721
0.00575,-0.00075,0.251,-1.5250001e-05,0.0,-3.0500001e-05,1741812283.290535
0.0055,-0.00025,0.2505,-0.00010675,-1.5250001e-05,-1.5250001e-05,1741812283.305279
0.0055,-0.00025,0.2505,-0.000122000005,-7.625e-05,1.5250001e-05,1741812283.319675
0.0055,-0.00025,0.2505,-0.00010675,-7.625e-05,0.0,1741812283.3356092
0.00575,-0.0005,0.2505,-0.00010675,-7.625e-05,0.0,1741812283.3488462
0.00575,-0.0005,0.2505,-0.000122000005,-3.0500001e-05,1.5250001e-05,1741812283.365141
0.0055,-0.00025,0.25075,-0.000122000005,-1.5250001e-05,0.0,1741812283.377957
0.0055,-0.0005,0.25075,-0.00024425,1.5250001e-05,-4.575e-05,1741812283.392589
0.00575,-0.0005,0.2505,-0.0003205,1.5250001e-05,-6.1000002e-05,1741812283.4093912
0.006,-0.0,0.25075,-0.00029,0.0,-6.1000002e-05,1741812283.423913
0.00575,0.0,0.25075,-0.00024425,0.0,-3.0500001e-05,1741812283.438331
0.0055,0.0,0.25025,-0.0002135,-1.5250001e-05,-3.0500001e-05,1741812283.453008
0.0055,0.00025,0.25025,-0.000183,-1.5250001e-05,-4.575e-05,1741812283.467641
0.00575,0.0,0.2505,-0.0001525,-1.5250001e-05,-4.575e-05,1741812283.482309
0.0055,-0.0,0.25025,-0.00013725001,-1.5250001e-05,-4.575e-05,1741812283.497045
0.0055,-0.0,0.25025,-0.00013725001,-4.575e-05,-6.1000002e-05,1741812283.511541
0.0055,-0.00025,0.2505,-0.0001525,-3.0500001e-05,-4.575e-05,1741812283.5263429
0.0055,-0.0,0.25075,-0.00019825,0.0,-1.5250001e-05,1741812283.541116
0.0055,0.0,0.2505,-0.00016775,0.0,-1.5250001e-05,1741812283.5555599
0.00575,0.0,0.2505,-9.15e-05,-1.5250001e-05,-1.5250001e-05,1741812283.5702631
0.00575,0.0,0.2505,-6.1000002e-05,-1.5250001e-05,0.0,1741812283.585602
0.00575,0.0,0.2505,0.0,0.0,0.0,1741812283.599211
0.00575,0.0,0.25025,1.5250001e-05,0.0,0.0,1741812283.6133661
0.0055,0.0,0.25025,-1.5250001e-05,0.0,0.0,1741812283.627776
0.0055,0.00025,0.2505,-1.5250001e-05,0.0,0.0,1741812283.642184
0.00575,0.0,0.25025,0.0,-1.5250001e-05,1.5250001e-05,1741812283.656567
0.0055,0.00025,0.25025,7.625e-05,-1.5250001e-05,3.0500001e-05,1741812283.670965
0.00575,-0.0,0.2505,0.00019825,-1.5250001e-05,1.5250001e-05,1741812283.6856918
0.0055,-0.00025,0.2505,9.15e-05,1.5250001e-05,-1.5250001e-05,1741812283.700096
0.0055,-0.00025,0.2505,1.5250001e-05,3.0500001e-05,-1.5250001e-05,1741812283.715722
0.00575,-0.00025,0.25025,-4.575e-05,4.575e-05,-4.575e-05,1741812283.729488
0.0055,0.0,0.25025,-4.575e-05,4.575e-05,-3.0500001e-05,1741812283.743983
0.0055,0.0,0.25025,3.0500001e-05,3.0500001e-05,-3.0500001e-05,1741812283.758414
0.006,-0.0005,0.2505,7.625e-05,4.575e-05,-3.0500001e-05,1741812283.772903
0.006,-0.0005,0.2505,4.575e-05,3.0500001e-05,-4.575e-05,1741812283.787387
0.0055,-0.00025,0.25025,3.0500001e-05,3.0500001e-05,-4.575e-05,1741812283.801991
0.00575,-0.00025,0.2505,-4.575e-05,3.0500001e-05,-6.1000002e-05,1741812283.816691
0.006,-0.00025,0.25075,-0.00024425,1.5250001e-05,-6.1000002e-05,1741812283.831203
0.006,-0.00025,0.25075,-0.00033575002,1.5250001e-05,-6.1000002e-05,1741812283.8458529
0.00575,0.0,0.2505,-0.00036625,-3.0500001e-05,-4.575e-05,1741812283.8604748
0.00575,0.0005,0.2505,-0.0002595,-6.1000002e-05,-3.0500001e-05,1741812283.875633
0.00575,0.0005,0.25075,-3.0500001e-05,-9.15e-05,-1.5250001e-05,1741812283.8896792
0.0055,-0.0,0.25025,3.0500001e-05,-6.1000002e-05,-3.0500001e-05,1741812283.9051452
0.0055,-0.00025,0.25,0.0,3.0500001e-05,-3.0500001e-05,1741812283.9187698
0.00575,-0.00025,0.2505,0.0,7.625e-05,-3.0500001e-05,1741812283.933578
0.006,-0.0,0.25075,-3.0500001e-05,0.00010675,-1.5250001e-05,1741812283.948155
0.0055,0.0,0.25025,-3.0500001e-05,7.625e-05,-1.5250001e-05,1741812283.962529
0.00525,0.0,0.25025,-4.575e-05,4.575e-05,-1.5250001e-05,1741812283.9770591
0.0055,-0.00025,0.2505,-1.5250001e-05,6.1000002e-05,0.0,1741812283.99155
0.0055,-0.00025,0.25025,-1.5250001e-05,6.1000002e-05,0.0001525,1741812284.0062149
0.0045,-0.0005,0.25025,-4.575e-05,4.575e-05,0.00027475,1741812284.020689
0.00525,-0.0005,0.25025,-7.625e-05,1.5250001e-05,0.00042725,1741812284.0352461
0.006,0.00025,0.25075,-0.00010675,-4.575e-05,0.00030525,1741812284.049855
0.0055,0.00025,0.25075,-1.5250001e-05,-6.1000002e-05,0.0001525,1741812284.065265
0.0055,0.0,0.25075,0.00010675,-4.575e-05,9.15e-05,1741812284.078793
0.00575,-0.0,0.2505,4.575e-05,-4.575e-05,0.00010675,1741812284.093367
0.0055,-0.00025,0.25025,9.15e-05,-4.575e-05,0.00019825,1741812284.107892
0.0045,-0.00125,0.2505,0.00016775,-3.0500001e-05,0.0003205,1741812284.122422
0.0045,-0.00125,0.25025,0.000229,-1.5250001e-05,0.00077825,1741812284.136883
0.00575,-0.0,0.2505,0.00029,0.0,0.001007,1741812284.1512918
0.006,0.0,0.2505,0.00027475,-4.575e-05,0.00096125,1741812284.165678
0.00525,0.0005,0.25075,0.0001525,-6.1000002e-05,0.00061025,1741812284.180187
0.0055,0.0,0.25075,-1.5250001e-05,-1.5250001e-05,1.5250001e-05,1741812284.195704
0.006,-0.0,0.25025,-0.00013725001,0.0,-7.625e-05,1741812284.209452
0.00625,-0.0,0.25025,-0.000183,-1.5250001e-05,-0.00010675,1741812284.225352
0.00625,0.0,0.2505,-0.00019825,-3.0500001e-05,-6.1000002e-05,1741812284.238627
0.00475,-0.00025,0.25075,-0.00019825,-1.5250001e-05,3.0500001e-05,1741812284.253242
0.005,-0.00075,0.25075,-7.625e-05,-3.0500001e-05,0.00013725001,1741812284.267862
0.005,-0.0015,0.25075,-4.575e-05,-3.0500001e-05,0.0002135,1741812284.2824771
0.005,-0.0015,0.25075,7.625e-05,-4.575e-05,0.00039675,1741812284.2969768
0.006,-0.00225,0.251,0.00010675,-7.625e-05,0.00042725,1741812284.311629
0.00575,-0.0035,0.25075,-0.00010675,-7.625e-05,0.0005645,1741812284.326236
0.0045,-0.00525,0.25025,-0.00010675,-6.1000002e-05,0.00077825,1741812284.340886
0.0045,-0.0055,0.2505,-7.625e-05,-3.0500001e-05,0.001175,1741812284.3554392
0.005,-0.0065,0.2505,-0.000229,-3.0500001e-05,0.00131225,1741812284.370085
0.00525,-0.00575,0.2505,-0.00036625,-6.1000002e-05,0.0015565,1741812284.38554
0.007,-0.0035,0.2505,-0.00029,-6.1000002e-05,0.001709,1741812284.399272
0.0075,-0.001,0.25025,-0.00029,-6.1000002e-05,0.002121,1741812284.4149811
0.006,0.0045,0.2505,-0.00030525,-6.1000002e-05,0.0021819999,1741812284.428349
0.0055,0.00375,0.2505,-0.00029,-6.1000002e-05,0.002121,1741812284.442837
0.0055,0.00325,0.25025,3.0500001e-05,-7.625e-05,0.00163275,1741812284.4572768
0.00625,0.00825,0.25025,0.0002595,-6.1000002e-05,0.001114,1741812284.4719622
0.00625,0.0085,0.25075,0.0002135,-3.0500001e-05,0.000122000005,1741812284.486447
0.00675,0.00675,0.2505,0.000122000005,-1.5250001e-05,-1.5250001e-05,1741812284.500959
0.0065,0.0065,0.25025,0.0001525,-4.575e-05,-0.0003815,1741812284.515444
0.0055,0.00225,0.2505,0.000229,-4.575e-05,-0.00051875,1741812284.530015
0.00525,0.00125,0.25075,0.00029,-1.5250001e-05,-0.00024425,1741812284.5451572
0.00525,0.00025,0.2505,0.0002135,-1.5250001e-05,-0.000122000005,1741812284.5590432
0.00525,-0.0,0.2505,0.0001525,-1.5250001e-05,-4.575e-05,1741812284.573627
0.00525,-0.0,0.25075,0.000183,0.0,-7.625e-05,1741812284.58828
0.0055,0.0,0.25075,0.00019825,0.0,-6.1000002e-05,1741812284.602895
0.00525,-0.00025,0.25075,0.0002135,-1.5250001e-05,-4.575e-05,1741812284.617412
0.00525,-0.0005,0.25075,0.0002135,-1.5250001e-05,-3.0500001e-05,1741812284.631962
0.00525,-0.0005,0.25075,0.00019825,0.0,-7.625e-05,1741812284.646312
0.0055,-0.00075,0.25075,0.00030525,-1.5250001e-05,-0.00016775,1741812284.661021
0.00575,-0.00125,0.251,0.0005645,-4.575e-05,-0.000412,1741812284.675662
0.0085,-0.0015,0.2505,0.00070200005,-4.575e-05,-0.00045775,1741812284.6902888
0.01025,-0.00225,0.25025,0.00105275,7.625e-05,0.0002595,1741812284.70523
0.0045,0.00075,0.25075,0.00115975,0.00016775,0.00074775,1741812284.719172
0.00025,0.0015,0.25075,0.001236,0.0002595,0.00051875,1741812284.7334049
0.00375,-0.0025,0.25025,0.00119025,0.000229,0.0001525,1741812284.747869
0.00575,-0.003,0.25025,0.00077825,0.000122000005,-4.575e-05,1741812284.762363
0.006,-0.00175,0.25075,0.00068675,9.15e-05,-1.5250001e-05,1741812284.776845
0.00575,-0.00125,0.25075,0.00119025,9.15e-05,0.00016775,1741812284.791287
0.00575,-0.00275,0.25,0.0011445,4.575e-05,0.0003815,1741812284.8056479
0.00575,-0.003,0.25025,0.000824,-3.0500001e-05,0.0005645,1741812284.820207
0.00575,-0.00325,0.2505,0.00054925,-7.625e-05,0.000534,1741812284.8349319
0.00575,-0.0025,0.251,0.0007325,-3.0500001e-05,0.00039675,1741812284.849161
0.006,-0.0025,0.251,0.00108325,3.0500001e-05,0.00035100002,1741812284.8634791
0.0055,-0.00275,0.25075,0.00112925,6.1000002e-05,0.0004425,1741812284.877907
0.008,-0.0,0.2515,0.001587,9.15e-05,0.0007935,1741812284.892241
0.0095,-0.00025,0.2515,0.0020752498,7.625e-05,0.00096125,1741812284.906786
0.00825,-0.00325,0.251,0.0029449998,0.0001525,0.00102225,1741812284.921468
0.00525,-0.007,0.25,0.00289925,0.0001525,0.0009155,1741812284.9364018
0.005,-0.0075,0.25025,0.00228875,6.1000002e-05,0.000824,1741812284.9507551
0.0025,-0.00975,0.25025,0.0020905002,4.575e-05,0.00077825,1741812284.9652119
0.00275,-0.01125,0.24975,0.00193775,4.575e-05,0.0007325,1741812284.979681
0.0045,-0.0115,0.24975,0.0012817499,-1.5250001e-05,0.0005035,1741812284.995122
0.00425,-0.0115,0.25075,0.00083925005,-9.15e-05,0.00035100002,1741812285.008683
0.00675,-0.0105,0.252,-1.5250001e-05,-0.00067150005,0.00027475,1741812285.0232708
0.01025,-0.01125,0.253,-0.0004425,-0.00119025,0.000412,1741812285.037903
0.01,-0.00925,0.25325,-0.000885,-0.002365,0.000885,1741812285.052407
0.00825,-0.0035,0.25075,-0.00042725,-0.0024414998,0.00080875,1741812285.066972
0.007,-0.0045,0.24975,-0.0002135,-0.0020905002,0.00054925,1741812285.081422
0.0035,-0.00525,0.251,-0.000763,-0.0020752498,0.00064075,1741812285.095943
0.005,-0.00275,0.252,-0.00099175,-0.00190725,0.00030525,1741812285.110464
-0.00125,-0.00625,0.2485,-0.001236,-0.00157175,-9.15e-05,1741812285.125411
-0.0015,-0.0095,0.248,-0.0013580001,-0.0009765,-0.000412,1741812285.14023
0.00075,-0.008,0.25325,-0.0012970001,-0.00086975005,-0.00027475,1741812285.155374
0.002,-0.00625,0.257,-0.0022125002,-0.00042725,6.1000002e-05,1741812285.169565
0.00175,-0.0075,0.262,-0.00245675,1.5250001e-05,0.00024425,1741812285.185194
0.00075,-0.007,0.26025,-0.0021819999,0.0005035,0.000412,1741812285.198573
0.00025,-0.00675,0.258,-0.00245675,0.0011445,0.0007325,1741812285.2130518
-0.00025,-0.00675,0.25325,-0.002884,0.0012207499,0.00080875,1741812285.2276428
0.0005,-0.00525,0.2525,-0.00245675,0.00112925,0.00065625,1741812285.242178
0.001,-0.004,0.252,-0.00184625,0.00102225,0.000534,1741812285.256781
0.00125,-0.004,0.252,-0.001007,0.00061025,0.0003815,1741812285.271242
0.003,-0.00525,0.25275,-0.000885,0.00042725,0.00039675,1741812285.285833
0.00375,-0.0045,0.254,-0.00074775,0.00036625,0.0005035,1741812285.300363
0.00325,-0.00225,0.25625,-0.00068675,0.0004425,0.00048825,1741812285.315218
0.004,-0.002,0.25875,-0.000183,0.000824,0.00039675,1741812285.329346
0.004,-0.00025,0.2585,0.00035100002,0.001114,0.0003205,1741812285.343885
0.00275,0.002,0.25475,0.0013580001,0.0012665,-3.0500001e-05,1741812285.3582542
0.001,0.00025,0.24775,0.00137325,0.00105275,-0.0002595,1741812285.3728058
0.0015,-0.00275,0.248,0.00099175,0.0007325,-0.00039675,1741812285.3873842
0.0025,-0.00475,0.25,0.00013725001,0.00016775,-0.00033575002,1741812285.401869
0.004,-0.0075,0.2515,1.5250001e-05,0.000122000005,-0.0001525,1741812285.416419
0.00375,-0.0075,0.2495,0.00033575002,0.0002135,0.000412,1741812285.430882
0.003,-0.003,0.24375,0.0004425,0.000229,0.00057975,1741812285.445368
0.0025,0.00025,0.241,0.0002135,-3.0500001e-05,0.00030525,1741812285.459764
0.00375,0.0005,0.24,-9.15e-05,-0.00029,6.1000002e-05,1741812285.474853
0.005,-0.0015,0.2425,-0.00067150005,-0.00064075,-0.00013725001,1741812285.489066
0.00475,-0.0025,0.245,-0.000763,-0.0005645,-0.00013725001,1741812285.505219
0.003,-0.00275,0.24175,-0.00096125,-0.00059500005,-6.1000002e-05,1741812285.518492
-0.0005,-0.00525,0.235,-0.00115975,-0.00105275,0.0,1741812285.5332181
0.0,-0.0065,0.23825,-0.00109875,-0.002411,0.000412,1741812285.547744
0.00225,-0.00625,0.25025,-0.0009155,-0.00270075,0.00074775,1741812285.562561
0.003,-0.00325,0.254,-0.0009765,-0.0020752498,0.00112925,1741812285.577131
0.003,0.003,0.25375,-0.0012817499,-0.001419,0.00105275,1741812285.591584
0.0015,0.00225,0.25075,-0.00163275,-0.00080875,0.00090025004,1741812285.606022
0.0,0.00125,0.2475,-0.00175475,-0.00039675,0.00080875,1741812285.620573
-0.00025,-0.00025,0.24425,-0.001419,-0.00057975,0.00077825,1741812285.635214
-0.0,-0.00025,0.2435,-0.000122000005,-0.0011445,0.00048825,1741812285.6500359
-0.00075,0.001,0.24375,0.000229,-0.0014495,0.00036625,1741812285.665388
0.00025,0.00075,0.24675,0.00067150005,-0.00187675,0.000229,1741812285.6790621
0.00175,0.00375,0.25325,0.00074775,-0.0017395001,0.000229,1741812285.693442
0.0005,0.00625,0.25175,-0.00029,-0.0010375,0.0002135,1741812285.70794
-0.00125,0.00325,0.24825,-0.00096125,-0.0009155,0.000122000005,1741812285.722686
-0.00075,0.0005,0.24975,-0.000824,-0.00109875,-6.1000002e-05,1741812285.737319
-0.00125,-0.00025,0.25225,-0.00027475,-0.0012055,-0.00010675,1741812285.7521229
-0.00175,-0.00025,0.2515,0.00048825,-0.0012817499,-0.00013725001,1741812285.7667682
-0.00325,-0.00275,0.24975,0.00077825,-0.0013885,-0.00016775,1741812285.781753
-0.00325,-0.00325,0.25125,0.00093075,-0.00160225,-0.000229,1741812285.796748
-0.00125,-0.0025,0.256,0.00059500005,-0.001419,-0.0001525,1741812285.811638
-0.00025,-0.00225,0.2575,0.00027475,-0.0005645,6.1000002e-05,1741812285.826155
-0.00075,-0.0005,0.2545,0.000473,-0.000122000005,0.0001525,1741812285.840653
-0.002,0.00175,0.25075,0.0007325,0.0001525,0.00013725001,1741812285.8555079
-0.00375,0.002,0.246,0.0012055,-0.0001525,-0.00016775,1741812285.869644
-0.00325,0.00025,0.24725,0.0012665,-0.00057975,-0.00029,1741812285.885121
-0.002,-0.00175,0.2505,0.00061025,-0.00093075,-0.00016775,1741812285.898916
-0.00125,-0.003,0.255,0.0003205,-0.00071725,-9.15e-05,1741812285.913569
-0.00175,-0.0025,0.2555,0.00059500005,-0.00013725001,-0.000122000005,1741812285.9282382
-0.003,-0.0005,0.25275,0.0007325,0.00010675,-0.00016775,1741812285.9429572
-0.00425,0.0,0.24975,0.0003205,0.0002135,-0.00019825,1741812285.957589
-0.004,-0.00125,0.24825,0.0002595,0.0,-0.000229,1741812285.9721842
-0.0025,-0.0025,0.2505,0.00051875,-0.00027475,-0.00027475,1741812285.9867709
-0.0025,-0.003,0.25325,0.00048825,-0.0001525,-0.0002595,1741812286.001625
-0.00325,-0.003,0.25175,0.000412,0.00016775,-0.00030525,1741812286.016117
-0.00475,-0.00375,0.2485,0.000412,0.000122000005,-0.0003205,1741812286.030648
-0.00475,-0.0045,0.2495,0.00042725,-0.00013725001,-0.0002135,1741812286.045414
-0.00425,-0.00375,0.25075,0.00042725,-0.00019825,-0.0001525,1741812286.0602539
-0.00475,-0.00225,0.25025,6.1000002e-05,-0.0002135,-1.5250001e-05,1741812286.075979
-0.00575,-0.00175,0.25025,-0.00010675,-0.0002595,0.0,1741812286.089637
-0.0055,-0.00275,0.251,-6.1000002e-05,-0.00045775,-3.0500001e-05,1741812286.105303
-0.00425,-0.005,0.2535,0.0,-0.00042725,-1.5250001e-05,1741812286.1192122
-0.0035,-0.0055,0.25425,0.000122000005,-3.0500001e-05,7.625e-05,1741812286.134953
-0.0025,-0.003,0.2535,0.0001525,0.0002135,0.000122000005,1741812286.148472
-0.003,-0.002,0.25225,0.00010675,0.00039675,0.00013725001,1741812286.163119
-0.0035,-0.00175,0.25025,0.00019825,0.00045775,6.1000002e-05,1741812286.177599
-0.00475,-0.00275,0.24575,0.00035100002,0.0003205,-1.5250001e-05,1741812286.192134
-0.00475,-0.0045,0.24475,0.00010675,-0.000229,-7.625e-05,1741812286.206933
-0.0025,-0.00675,0.24925,-3.0500001e-05,-0.000473,0.0,1741812286.221836
-0.0015,-0.006,0.253,0.0,-0.00029,0.000122000005,1741812286.236547
-0.0025,-0.00325,0.2545,-1.5250001e-05,9.15e-05,0.000122000005,1741812286.251221
-0.00425,-0.003,0.25125,7.625e-05,0.00042725,7.625e-05,1741812286.265717
-0.00675,-0.00175,0.24575,0.00016775,0.0001525,4.575e-05,1741812286.2802188
-0.00575,-0.00225,0.2465,-0.0002595,-0.00054925,3.0500001e-05,1741812286.295348
-0.00275,-0.005,0.25175,-0.00035100002,-0.00065625,3.0500001e-05,1741812286.30953
-0.00225,-0.0045,0.254,-0.0002595,-3.0500001e-05,9.15e-05,1741812286.325414
-0.00325,-0.00175,0.25125,-0.00013725001,0.0004425,4.575e-05,1741812286.3388019
-0.004,-0.002,0.2485,1.5250001e-05,0.000824,-7.625e-05,1741812286.3555
-0.004,-0.0025,0.24775,-3.0500001e-05,0.00074775,-7.625e-05,1741812286.3684669
-0.00325,-0.00225,0.24975,-0.0002595,0.00059500005,-0.00010675,1741812286.383221
-0.00225,-0.0025,0.2525,-0.00054925,0.00065625,-6.1000002e-05,1741812286.3979409
-0.003,-0.0025,0.252,-0.00090025004,0.0008545,0.00013725001,1741812286.412714
-0.004,-0.0025,0.2485,-0.00059500005,0.00083925005,9.15e-05,1741812286.4273212
-0.0035,-0.0035,0.2475,-0.00013725001,0.0007325,-3.0500001e-05,1741812286.442164
-0.0045,-0.00275,0.24675,0.00035100002,0.000412,-9.15e-05,1741812286.4568498
-0.00525,-0.00225,0.247,0.00045775,0.0001525,-9.15e-05,1741812286.4714198
-0.0055,-0.00275,0.24825,0.0004425,-0.00045775,-0.00010675,1741812286.4862158
-0.0035,-0.0045,0.2525,0.0003205,-0.00057975,-7.625e-05,1741812286.50101
-0.0025,-0.00525,0.25425,0.0002135,-0.00036625,0.0,1741812286.515774
-0.002,-0.00525,0.2555,0.00024425,-7.625e-05,7.625e-05,1741812286.530304
-0.003,-0.00375,0.25375,0.0003815,0.00039675,0.0002135,1741812286.545386
-0.004,-0.00325,0.25,0.00045775,0.00039675,0.000229,1741812286.5595572
-0.004,-0.004,0.24975,0.00048825,0.00013725001,0.000183,1741812286.575488
-0.0045,-0.00575,0.2505,0.00027475,7.625e-05,0.000229,1741812286.588639
-0.00475,-0.00525,0.2515,-0.0003205,3.0500001e-05,0.0004425,1741812286.603168
-0.00325,-0.00225,0.25375,-0.00061025,9.15e-05,0.00045775,1741812286.617759
-0.00175,-0.00125,0.255,-0.0014037499,0.00054925,0.00039675,1741812286.632558
-0.00175,-0.0015,0.253,-0.00177,0.00080875,0.00045775,1741812286.6471128
-0.00225,-0.003,0.2505,-0.00157175,0.00090025004,0.00048825,1741812286.661668
-0.00175,-0.00275,0.2495,-0.00070200005,0.00067150005,0.00035100002,1741812286.676237
-0.0015,-0.002,0.25025,0.00010675,0.00036625,0.00024425,1741812286.690758
-0.0035,-0.0005,0.24525,-0.000122000005,0.0002595,0.00027475,1741812286.705334
-0.00375,-0.00025,0.24275,-0.0002595,-4.575e-05,0.00019825,1741812286.720043
-0.0025,-0.00075,0.24375,-0.00030525,-0.0009155,-1.5250001e-05,1741812286.735414
0.0005,-0.00125,0.251,-0.00029,-0.0010375,-6.1000002e-05,1741812286.7495208
0.00025,-0.0005,0.253,-0.0004425,-0.00057975,-7.625e-05,1741812286.765362
-0.0015,0.00025,0.25275,-0.00065625,-0.000229,-0.000122000005,1741812286.778833
-0.0025,-0.00025,0.25175,-0.00096125,0.00010675,-0.0002135,1741812286.793567
-0.00375,-0.0035,0.2515,-0.0007935,0.00010675,-0.00029,1741812286.808208
-0.004,-0.00475,0.25075,0.0,-3.0500001e-05,-0.00027475,1741812286.822935
-0.00325,-0.00375,0.2505,0.0001525,-0.00013725001,-0.000122000005,1741812286.837715
-0.0025,-0.003,0.251,-1.5250001e-05,-0.00019825,3.0500001e-05,1741812286.852297
-0.00175,-0.00025,0.25225,-0.00013725001,-0.00013725001,0.0,1741812286.8669062
-0.002,0.00025,0.2525,-0.00030525,3.0500001e-05,-0.00027475,1741812286.881611
-0.00325,-0.00175,0.25075,-0.0002135,6.1000002e-05,-0.0003815,1741812286.896333
-0.00325,-0.003,0.25025,-3.0500001e-05,-6.1000002e-05,-0.0003205,1741812286.911081
-0.003,-0.00425,0.251,-7.625e-05,-3.0500001e-05,-0.0002135,1741812286.9258099
-0.00375,-0.004,0.24975,-0.0001525,7.625e-05,-1.5250001e-05,1741812286.940394
-0.005,-0.00275,0.2465,-0.0002135,-4.575e-05,9.15e-05,1741812286.955235
-0.0045,-0.001,0.247,-0.00019825,-0.00048825,0.00016775,1741812286.9699788
-0.002,0.0005,0.25075,-0.0002595,-0.00064075,9.15e-05,1741812286.985547
-0.0005,-0.0,0.253,-0.00054925,-0.000534,-1.5250001e-05,1741812286.999391
-0.002,-0.0005,0.25275,-0.0005035,-0.00039675,-3.0500001e-05,1741812287.015372
-0.00375,-0.0005,0.25075,-0.000412,-0.00036625,-1.5250001e-05,1741812287.028784
-0.00525,-0.002,0.24825,-0.00029,-0.00061025,1.5250001e-05,1741812287.043832
-0.006,-0.002,0.2475,-0.00013725001,-0.00080875,1.5250001e-05,1741812287.058523
-0.006,-0.00125,0.249,-0.0002135,-0.0012055,6.1000002e-05,1741812287.073235
-0.00475,-0.00125,0.2515,-0.00048825,-0.001236,6.1000002e-05,1741812287.0879412
-0.00425,-0.0005,0.253,-0.00093075,-0.00086975005,0.00010675,1741812287.102741
-0.00325,0.00025,0.253,-0.0012207499,-0.00059500005,0.000183,1741812287.117328
-0.00275,-0.00125,0.25275,-0.0009155,-0.0001525,0.00013725001,1741812287.131954
-0.003,-0.00025,0.25125,-0.00057975,-3.0500001e-05,0.0001525,1741812287.146809
-0.0035,0.00075,0.25075,-0.000473,9.15e-05,0.00019825,1741812287.1612449
-0.005,0.0015,0.25025,-0.00033575002,6.1000002e-05,0.00016775,1741812287.175746
-0.00525,0.00125,0.25025,1.5250001e-05,-9.15e-05,0.000122000005,1741812287.1902459
-0.005,0.00375,0.2515,-4.575e-05,-6.1000002e-05,0.00010675,1741812287.205308
-0.0045,0.00525,0.2515,-0.000229,0.000122000005,-6.1000002e-05,1741812287.2194529
-0.004,0.00475,0.25,-0.000183,0.00016775,-0.00024425,1741812287.2345831
-0.0035,0.00475,0.24975,0.00016775,0.000122000005,-0.00048825,1741812287.248843
-0.004,0.0045,0.25025,0.00029,0.00010675,-0.00054925,1741812287.2652721
-0.00375,0.002,0.25025,0.00042725,0.000122000005,-0.00071725,1741812287.277925
-0.00475,-0.00425,0.25075,0.00061025,0.000183,-0.00077825,1741812287.292619
-0.006,-0.00575,0.25,0.00077825,0.000229,-0.00074775,1741812287.307217
-0.0075,-0.0015,0.24875,0.0010375,-0.000122000005,-0.00045775,1741812287.321942
-0.00675,0.00025,0.249,0.000946,-0.0003815,-0.00033575002,1741812287.33674
-0.004,-0.00125,0.251,0.00042725,-0.0005645,-0.00033575002,1741812287.351406
-0.003,-0.001,0.252,0.0004425,-0.000534,-0.00036625,1741812287.3660831
-0.0025,-0.001,0.252,-0.0002135,-0.0001525,-0.00030525,1741812287.380793
-0.004,-0.00475,0.24875,-0.00070200005,1.5250001e-05,-0.00024425,1741812287.395408
-0.00525,-0.00625,0.24775,-0.00051875,-0.00030525,-1.5250001e-05,1741812287.4101949
-0.00525,-0.00575,0.252,-0.00035100002,-0.000534,0.000183,1741812287.425484
-0.00475,-0.004,0.25525,-0.00019825,-0.00045775,0.00048825,1741812287.439749
-0.00525,0.00175,0.25725,-3.0500001e-05,-0.0002135,0.00045775,1741812287.455147
-0.005,0.00375,0.256,-0.00036625,0.00029,0.00019825,1741812287.4688761
-0.00425,0.00275,0.25225,-0.000824,0.00051875,0.00010675,1741812287.483289
-0.0045,0.0015,0.2505,-0.00086975005,0.00057975,-6.1000002e-05,1741812287.497947
-0.00575,-0.00025,0.24725,-0.00051875,0.00039675,-0.00010675,1741812287.512736
-0.00625,-0.00075,0.2465,-0.00010675,-0.000183,-3.0500001e-05,1741812287.527532
-0.0055,-0.00075,0.249,-0.00016775,-0.000412,3.0500001e-05,1741812287.542229
-0.005,-0.001,0.25125,0.0,-0.0004425,7.625e-05,1741812287.556842
-0.00475,-0.0,0.25425,3.0500001e-05,-0.00027475,6.1000002e-05,1741812287.571315
-0.005,0.00175,0.2545,-0.00039675,0.0002135,0.0,1741812287.585835
-0.00575,0.002,0.25025,-0.00054925,0.00036625,-7.625e-05,1741812287.6003368
-0.00575,-0.001,0.24775,-0.00048825,0.00035100002,-0.0001525,1741812287.6155689
-0.0055,-0.00325,0.24675,0.0002595,-6.1000002e-05,-0.00013725001,1741812287.629737
-0.0055,-0.00225,0.2485,0.00068675,-0.00024425,-4.575e-05,1741812287.6454551
-0.00575,-0.001,0.24975,0.00071725,-0.0003205,9.15e-05,1741812287.6591308
-0.00625,0.002,0.25075,0.0004425,-0.0002595,9.15e-05,1741812287.673742
-0.006,0.00225,0.2505,9.15e-05,-0.0003205,3.0500001e-05,1741812287.688221
-0.00525,0.00125,0.2505,0.00019825,-0.0003815,1.5250001e-05,1741812287.702734
-0.0055,0.00125,0.25,0.0003815,-0.00027475,0.0,1741812287.7172039
-0.00675,-0.0005,0.24875,0.0002135,-0.00019825,4.575e-05,1741812287.731829
-0.007,-0.00025,0.2485,7.625e-05,-0.000229,9.15e-05,1741812287.74631
-0.007,-0.00025,0.24775,4.575e-05,-0.00029,4.575e-05,1741812287.760903
-0.0075,-0.00025,0.24725,3.0500001e-05,-0.00054925,0.0,1741812287.7756422
-0.00725,0.0005,0.24825,0.00019825,-0.00071725,-6.1000002e-05,1741812287.7902899
-0.00625,0.00075,0.24925,0.0003205,-0.00080875,-0.000229,1741812287.8054621
-0.005,0.0,0.2505,0.00027475,-0.00070200005,-0.000229,1741812287.8197389
-0.00525,0.00025,0.25025,0.0005645,-0.00054925,-0.000229,1741812287.835422
-0.0055,0.00075,0.25,0.00059500005,-0.00048825,-0.0002135,1741812287.84891
-0.00525,0.00025,0.25025,0.0002595,-0.00035100002,-0.0001525,1741812287.86352
-0.00575,-0.0005,0.25025,-0.0002595,-0.00013725001,-0.000122000005,1741812287.878198
-0.00725,-0.001,0.25,-0.000183,-0.00016775,-0.000183,1741812287.8930109
-0.0075,-0.00125,0.25075,0.0002595,-0.0003815,-0.00027475,1741812287.907614
-0.007,0.00125,0.2545,0.0003205,-0.00036625,-0.00027475,1741812287.9222841
-0.00725,0.002,0.254,-0.00029,0.00016775,-0.00036625,1741812287.936996
-0.00825,-0.00175,0.24825,-0.0004425,0.00033575002,-0.0004425,1741812287.951832
-0.00775,-0.004,0.24725,0.00042725,0.000122000005,-0.00048825,1741812287.9664252
-0.0065,-0.0045,0.24925,0.000946,0.0,-0.000412,1741812287.981015
-0.006,-0.003,0.25025,0.00067150005,3.0500001e-05,-0.00019825,1741812287.995564
-0.0055,-0.001,0.251,9.15e-05,9.15e-05,-0.0001525,1741812288.0102232
-0.00575,-0.00225,0.25225,-0.000183,0.000183,-0.00019825,1741812288.0254788
-0.00725,-0.0025,0.255,-1.5250001e-05,0.000183,-0.00016775,1741812288.039702
-0.00825,-0.00175,0.25475,-0.00039675,0.00029,-1.5250001e-05,1741812288.055351
-0.00875,-0.00125,0.2535,-0.00071725,0.0002595,3.0500001e-05,1741812288.069176
-0.0075,-0.001,0.2545,-0.00074775,6.1000002e-05,3.0500001e-05,1741812288.0854
-0.00525,0.0,0.257,-0.00068675,0.0002135,-1.5250001e-05,1741812288.098289
-0.005,-0.00025,0.25625,-0.00074775,0.00070200005,0.0,1741812288.112822
-0.005,-0.00125,0.2515,-0.00065625,0.00080875,4.575e-05,1741812288.127297
-0.0055,-0.001,0.249,-0.00051875,0.00080875,3.0500001e-05,1741812288.1418219
-0.00625,-0.0015,0.2475,-0.00048825,0.00062550005,0.0,1741812288.1563241
-0.00675,-0.00075,0.2475,-0.00036625,0.000473,-1.5250001e-05,1741812288.1709068
-0.0055,0.00025,0.25025,-0.00010675,0.00030525,-9.15e-05,1741812288.1857338
-0.005,-0.00075,0.25125,-0.00013725001,0.000412,-0.000122000005,1741812288.2004118
-0.00575,-0.0015,0.2485,-0.000229,0.00045775,-4.575e-05,1741812288.215358
-0.0065,-0.00125,0.24475,-0.0002135,0.00024425,0.0,1741812288.229825
-0.00575,0.0,0.24575,-0.00035100002,-0.0002135,6.1000002e-05,1741812288.245277
-0.004,-0.00025,0.249,-0.0007325,-0.00016775,6.1000002e-05,1741812288.25919
-0.00425,-0.002,0.24825,-0.00083925005,-1.5250001e-05,6.1000002e-05,1741812288.2738822
-0.006,-0.002,0.24575,-0.000534,-0.00013725001,0.00010675,1741812288.2886322
-0.006,-0.0005,0.24725,-0.00035100002,-0.00045775,0.000183,1741812288.303233
-0.00575,0.00275,0.253,-0.00033575002,-0.000473,0.0001525,1741812288.3178308
-0.00525,0.005,0.25525,-0.00070200005,-9.15e-05,4.575e-05,1741812288.332303
-0.00525,0.00525,0.25325,-0.00108325,0.00024425,-6.1000002e-05,1741812288.346875
-0.006,0.00175,0.24875,-0.00115975,0.00035100002,-0.00027475,1741812288.361411
-0.0065,-0.00275,0.245,-0.00077825,1.5250001e-05,-0.0002135,1741812288.376114
-0.00625,-0.002,0.24825,-0.00042725,-0.00030525,-6.1000002e-05,1741812288.390819
-0.007,0.00175,0.253,-0.00027475,-0.00027475,0.000122000005,1741812288.405281
-0.00775,0.003,0.25275,-0.0003205,-6.1000002e-05,6.1000002e-05,1741812288.4198542
-0.00725,0.00275,0.2525,-0.00042725,9.15e-05,-9.15e-05,1741812288.434675
-0.005,0.00325,0.2545,-0.000473,0.00013725001,-0.000122000005,1741812288.449038
-0.005,0.00375,0.25375,-0.00061025,0.0003815,-0.000183,1741812288.465357
-0.0055,0.003,0.25175,-0.00057975,0.0003815,-0.0002135,1741812288.478105
-0.00475,0.00225,0.252,-0.0010375,0.00016775,-6.1000002e-05,1741812288.492855
-0.003,0.004,0.2505,-0.0012970001,0.0001525,4.575e-05,1741812288.507322
-0.00325,0.00425,0.24875,-0.0012055,0.00035100002,-3.0500001e-05,1741812288.521918
-0.004,0.00175,0.2475,-0.0013275,0.0004425,-7.625e-05,1741812288.5366058
-0.0045,0.0015,0.2465,-0.00137325,0.00039675,-0.000122000005,1741812288.55121
-0.00525,0.0,0.245,-0.001175,0.0002595,-0.00013725001,1741812288.56581
-0.00475,-0.00125,0.2465,-0.00137325,3.0500001e-05,6.1000002e-05,1741812288.580302
-0.004,-0.0015,0.24975,-0.001587,-3.0500001e-05,0.0002595,1741812288.595554
-0.00375,0.00075,0.2505,-0.0016632499,-6.1000002e-05,0.00042725,1741812288.609758
-0.0045,0.00725,0.2495,-0.0018005001,-0.000122000005,0.00057975,1741812288.625437
-0.00525,0.00825,0.24825,-0.00187675,-0.000183,0.000534,1741812288.638991
-0.00575,0.0075,0.248,-0.0019685,-0.00048825,0.00048825,1741812288.654934
-0.00675,0.008,0.251,-0.0017852499,-0.00065625,0.00048825,1741812288.668297
-0.00675,0.0085,0.25325,-0.00175475,-0.00057975,0.000473,1741812288.6830232
-0.00775,0.0085,0.25325,-0.0018615,-0.000473,0.000473,1741812288.697849
-0.00825,0.00875,0.25175,-0.001648,-0.00064075,0.00051875,1741812288.712372
-0.008,0.011,0.251,-0.0017242499,-0.00083925005,0.00061025,1741812288.726996
-0.00675,0.012,0.25225,-0.0017395001,-0.001114,0.00067150005,1741812288.741624
-0.00525,0.01375,0.2535,-0.0012817499,-0.001175,0.000534,1741812288.756214
-0.00575,0.01425,0.253,-0.00059500005,-0.00112925,9.15e-05,1741812288.770802
-0.008,0.01275,0.25175,-0.0008545,-0.0010375,-1.5250001e-05,1741812288.78548
-0.009,0.00975,0.25025,-0.002243,-0.00090025004,9.15e-05,1741812288.800003
-0.01075,0.0085,0.2485,-0.0028074998,-0.001068,0.00029,1741812288.8154109
-0.01075,0.011,0.25025,-0.0020905002,-0.0013275,0.000412,1741812288.82912
-0.00975,0.01175,0.2505,-0.00108325,-0.0013580001,0.0002135,1741812288.843694
-0.00925,0.01175,0.25275,-0.0005645,-0.0013275,9.15e-05,1741812288.8583272
-0.0075,0.01325,0.2585,-0.0005035,-0.00065625,4.575e-05,1741812288.872853
-0.00725,0.01425,0.25875,-0.0002595,-7.625e-05,-6.1000002e-05,1741812288.887625
-0.00725,0.01425,0.256,0.0003815,0.00102225,-0.0003815,1741812288.9021308
-0.009,0.009,0.2465,0.00039675,0.0012055,-0.0003815,1741812288.9165819
-0.00975,0.00825,0.24225,0.00080875,0.00067150005,-0.00019825,1741812288.931207
-0.009,0.01125,0.24275,0.00090025004,0.00016775,-0.000122000005,1741812288.945698
-0.00775,0.01175,0.2455,0.00016775,-0.00033575002,-1.5250001e-05,1741812288.960277
-0.0055,0.01175,0.2505,-7.625e-05,-0.0002135,-3.0500001e-05,1741812288.975434
-0.00575,0.0135,0.25025,-1.5250001e-05,3.0500001e-05,-0.00016775,1741812288.9896
-0.0085,0.01375,0.24925,0.00013725001,-6.1000002e-05,-0.00030525,1741812289.004919
-0.00925,0.0115,0.24975,0.00061025,-0.00029,-0.000473,1741812289.018928
-0.0095,0.01,0.251,0.000824,-0.00033575002,-0.00045775,1741812289.03373
-0.00975,0.00975,0.25125,0.00051875,-0.00033575002,-0.00024425,1741812289.0482528
-0.00875,0.009,0.25375,0.00024425,-0.00029,-7.625e-05,1741812289.0628119
-0.009,0.01075,0.25425,1.5250001e-05,6.1000002e-05,0.0,1741812289.0772212
-0.00925,0.01175,0.252,7.625e-05,0.00024425,-9.15e-05,1741812289.091722
-0.0095,0.01125,0.24925,0.00027475,0.00027475,-0.00016775,1741812289.106184
-0.0095,0.01075,0.2475,0.0003205,-0.000183,-0.00010675,1741812289.120826
-0.0085,0.01025,0.25075,0.000229,-0.00042725,-6.1000002e-05,1741812289.135564
-0.00825,0.0105,0.252,-0.00013725001,-0.00039675,1.5250001e-05,1741812289.149812
-0.0085,0.00925,0.249,-0.0003205,-0.0002595,6.1000002e-05,1741812289.165438
-0.00875,0.009,0.24725,-0.00061025,-0.0003815,0.000229,1741812289.1788821
-0.0085,0.0105,0.24825,-0.00067150005,-0.0005645,0.0003205,1741812289.193548
-0.0085,0.0125,0.24975,-0.000473,-0.00077825,0.00029,1741812289.2081091
-0.009,0.012,0.25,-0.00033575002,-0.00077825,0.000183,1741812289.222728
-0.00925,0.0105,0.25,-0.000412,-0.00074775,7.625e-05,1741812289.23734
-0.0095,0.01025,0.2515,-0.00048825,-0.00067150005,9.15e-05,1741812289.251928
-0.01025,0.01025,0.2505,-0.00045775,-0.00048825,3.0500001e-05,1741812289.266526
-0.011,0.011,0.24925,-0.0004425,-0.00054925,7.625e-05,1741812289.2810838
-0.0105,0.01225,0.25025,-0.00035100002,-0.00068675,0.0001525,1741812289.295607
-0.00975,0.013,0.25175,-9.15e-05,-0.00083925005,0.000183,1741812289.310307
-0.0105,0.014,0.25125,-1.5250001e-05,-0.0007935,0.00010675,1741812289.325265
-0.011,0.0135,0.25025,-0.000183,-0.00059500005,-6.1000002e-05,1741812289.339592
-0.0125,0.0105,0.248,-0.00016775,-0.00061025,-4.575e-05,1741812289.3554502
-0.0125,0.01025,0.24825,-0.000229,-0.0008545,0.0002135,1741812289.369008
-0.01175,0.0115,0.25125,-0.00029,-0.000946,0.0003205,1741812289.3848572
-0.01125,0.013,0.2525,-0.0003205,-0.00083925005,0.0002595,1741812289.398415
-0.0105,0.013,0.25325,-0.00030525,-0.00057975,0.000122000005,1741812289.413006
-0.011,0.01125,0.2525,-0.00010675,-1.5250001e-05,-6.1000002e-05,1741812289.4278872
-0.012,0.0115,0.2505,4.575e-05,0.0001525,-7.625e-05,1741812289.4424388
-0.01175,0.012,0.2495,0.00019825,9.15e-05,-7.625e-05,1741812289.456915
-0.0115,0.01325,0.25175,0.000473,-6.1000002e-05,-0.00010675,1741812289.47162
-0.0115,0.013,0.25375,0.00131225,4.575e-05,-0.00030525,1741812289.4862158
-0.0125,0.013,0.2535,0.00169375,0.00036625,-0.0004425,1741812289.500694
-0.013,0.0115,0.25075,0.0017395001,0.00086975005,-0.00062550005,1741812289.515253
-0.013,0.00825,0.2465,0.0014037499,0.0008545,-0.00054925,1741812289.529707
-0.0125,0.0085,0.247,0.001068,0.0007935,-0.000412,1741812289.54528
-0.01225,0.00925,0.2475,0.00067150005,0.0007935,-0.000183,1741812289.5587142
-0.0115,0.00875,0.24625,0.00036625,0.0007325,-7.625e-05,1741812289.573161
-0.00975,0.0085,0.24725,-0.00027475,0.0005035,9.15e-05,1741812289.587729
-0.0085,0.00925,0.24975,-0.00039675,0.00048825,0.0001525,1741812289.6022122
-0.009,0.01025,0.2515,-0.0001525,0.00057975,0.00010675,1741812289.6168268
-0.0105,0.01,0.252,0.00010675,0.00064075,3.0500001e-05,1741812289.6312902
-0.011,0.00875,0.25025,0.00035100002,0.000534,-6.1000002e-05,1741812289.6458828
-0.0105,0.00875,0.25025,0.00035100002,0.0003815,-1.5250001e-05,1741812289.660406
-0.01025,0.0095,0.25075,0.000229,0.0001525,6.1000002e-05,1741812289.675403
-0.00975,0.0095,0.25,0.0001525,3.0500001e-05,7.625e-05,1741812289.689315
-0.009,0.00975,0.251,0.00019825,-9.15e-05,6.1000002e-05,1741812289.705348
-0.00875,0.00875,0.2515,0.00039675,-1.5250001e-05,-9.15e-05,1741812289.718525
-0.00975,0.00825,0.249,0.0003205,9.15e-05,-0.00010675,1741812289.7331939
-0.01,0.008,0.247,-6.1000002e-05,-0.00033575002,0.000122000005,1741812289.747783
-0.0105,0.008,0.2485,-0.000229,-0.00065625,0.00027475,1741812289.762563
-0.01025,0.009,0.25025,-0.00029,-0.0008545,0.00039675,1741812289.777077
-0.01025,0.01075,0.25275,-0.00016775,-0.0007935,0.0003815,1741812289.7917309
-0.011,0.011,0.252,-3.0500001e-05,-0.0005645,0.00024425,1741812289.8062358
-0.0115,0.00975,0.25,-0.0002135,-0.00051875,0.000229,1741812289.8207948
-0.01125,0.00925,0.2505,-0.00010675,-0.0005645,0.00029,1741812289.83536
-0.01075,0.011,0.251,0.00010675,-0.000534,0.00029,1741812289.849789
-0.0105,0.0115,0.25,0.0003205,-0.000473,0.00010675,1741812289.865315
-0.011,0.0105,0.25025,0.00036625,-0.000473,-3.0500001e-05,1741812289.878895
-0.011,0.0095,0.25175,0.00064075,-0.00013725001,-0.00027475,1741812289.893486
-0.01275,0.008,0.249,0.0009765,6.1000002e-05,-0.0003815,1741812289.907897
-0.01325,0.008,0.24675,0.001114,7.625e-05,-0.00036625,1741812289.922442
-0.01275,0.009,0.25,0.00035100002,-7.625e-05,-0.000122000005,1741812289.937176
-0.01225,0.0095,0.2515,0.000122000005,0.0,-4.575e-05,1741812289.951759
-0.01175,0.0095,0.251,0.00035100002,9.15e-05,-0.00010675,1741812289.9663098
-0.01125,0.00825,0.25025,0.00036625,6.1000002e-05,-0.00010675,1741812289.980989
-0.01125,0.00775,0.25075,0.000122000005,4.575e-05,-0.0001525,1741812289.9955142
-0.01225,0.00625,0.25075,-3.0500001e-05,6.1000002e-05,-0.00013725001,1741812290.010197
-0.0125,0.00675,0.24975,-0.0002595,-9.15e-05,0.00010675,1741812290.025474
-0.011,0.0095,0.24975,-0.00030525,-0.00029,0.000183,1741812290.039253
-0.01,0.00975,0.2515,-4.575e-05,-0.0004425,9.15e-05,1741812290.055379
-0.01075,0.009,0.2515,0.00019825,-0.00035100002,1.5250001e-05,1741812290.068512
-0.01175,0.008,0.24975,0.000229,-0.00024425,1.5250001e-05,1741812290.0830069
-0.01175,0.00725,0.24975,9.15e-05,-0.00027475,7.625e-05,1741812290.097482
-0.012,0.00775,0.25125,-0.0001525,-0.00010675,7.625e-05,1741812290.1120698
-0.013,0.008,0.251,-0.0002135,3.0500001e-05,4.575e-05,1741812290.1268108
-0.01325,0.0075,0.24925,-0.0002135,9.15e-05,4.575e-05,1741812290.141282
-0.0125,0.0075,0.24875,-0.00036625,-9.15e-05,0.00016775,1741812290.155864
-0.01175,0.00825,0.25025,-0.00036625,-0.000229,0.00024425,1741812290.170484
-0.01175,0.0085,0.2515,-1.5250001e-05,-0.00016775,0.00016775,1741812290.185676
-0.012,0.00875,0.251,0.00027475,0.0,0.000122000005,1741812290.199572
-0.0125,0.00925,0.25,0.00077825,9.15e-05,0.00013725001,1741812290.214977
-0.013,0.00975,0.2485,0.00080875,3.0500001e-05,0.00016775,1741812290.228478
-0.01225,0.0095,0.24825,0.0005645,-0.00016775,0.0002135,1741812290.243056
-0.01125,0.00775,0.25075,0.00045775,-0.0002135,0.0002135,1741812290.257513
-0.01125,0.00725,0.2515,0.0004425,-0.00010675,0.00013725001,1741812290.271969
-0.0115,0.00725,0.2515,0.00048825,-6.1000002e-05,0.000122000005,1741812290.286502
-0.0115,0.0065,0.25125,0.00074775,-7.625e-05,7.625e-05,1741812290.30096
-0.01175,0.006,0.251,0.000824,-7.625e-05,3.0500001e-05,1741812290.315616
-0.01175,0.00575,0.25,0.00074775,-0.00010675,0.0,1741812290.3301818
-0.0115,0.00525,0.2495,0.00030525,-0.000183,3.0500001e-05,1741812290.3453991
-0.01175,0.00575,0.24925,9.15e-05,-0.000122000005,4.575e-05,1741812290.359363
-0.0125,0.00575,0.2485,-0.00016775,-4.575e-05,6.1000002e-05,1741812290.3755069
-0.01325,0.007,0.2495,-0.00030525,-7.625e-05,9.15e-05,1741812290.388577
-0.0135,0.00675,0.24975,-0.0004425,-4.575e-05,1.5250001e-05,1741812290.403156
-0.01375,0.005,0.2495,-0.00035100002,-4.575e-05,1.5250001e-05,1741812290.417783
-0.01325,0.00525,0.2495,-0.00013725001,-0.0001525,0.00013725001,1741812290.432362
-0.01225,0.00825,0.25025,-0.000122000005,-0.000183,0.000183,1741812290.446995
-0.01175,0.0095,0.251,-0.00033575002,-0.00024425,0.000183,1741812290.4615622
-0.01175,0.009,0.2515,-0.00036625,-0.00027475,9.15e-05,1741812290.476147
-0.01175,0.00825,0.252,-0.00029,-0.00019825,-9.15e-05,1741812290.490897
-0.01275,0.00675,0.2505,-0.000229,-6.1000002e-05,-0.00016775,1741812290.5055501
-0.0135,0.00625,0.24875,-0.00059500005,6.1000002e-05,-0.00010675,1741812290.520173
-0.014,0.00675,0.24625,-0.001068,-3.0500001e-05,0.0,1741812290.535517
-0.01325,0.0075,0.24725,-0.0022735,-0.00030525,0.0003815,1741812290.549313
-0.0115,0.0105,0.2535,-0.0023039998,-0.00019825,0.000412,1741812290.565336
-0.01175,0.01075,0.2535,-0.0016632499,9.15e-05,0.00030525,1741812290.5784168
-0.01275,0.01075,0.251,-0.00029,0.000473,0.0,1741812290.592872
-0.013,0.01075,0.2495,-0.00019825,0.00042725,-4.575e-05,1741812290.6074722
-0.0125,0.0105,0.2505,-0.000534,0.00030525,-7.625e-05,1741812290.622093
-0.01225,0.01025,0.25175,-0.00033575002,0.00033575002,-0.00013725001,1741812290.636797
-0.01325,0.01,0.25175,0.0004425,0.00033575002,-0.00019825,1741812290.651296
-0.013,0.00925,0.2505,0.00051875,0.00024425,-0.000122000005,1741812290.665792
-0.01225,0.009,0.25,0.0005645,4.575e-05,-9.15e-05,1741812290.680278
-0.01175,0.009,0.2505,0.00051875,-1.5250001e-05,-9.15e-05,1741812290.695253
-0.01175,0.009,0.25125,0.00033575002,-0.00013725001,-3.0500001e-05,1741812290.709485
-0.01125,0.0095,0.25175,0.00024425,-0.00016775,-1.5250001e-05,1741812290.7253098
-0.011,0.00975,0.252,0.000412,-0.0002135,-0.00010675,1741812290.738678
-0.012,0.0085,0.25175,0.0005645,-0.000183,-0.00019825,1741812290.753194
-0.0125,0.008,0.25075,0.00068675,-0.00013725001,-0.00030525,1741812290.767753
-0.01375,0.0055,0.247,0.0007325,-0.00013725001,-0.0003815,1741812290.7823842
-0.01375,0.0055,0.24725,0.00051875,-0.0002135,-0.0002595,1741812290.796931
-0.0135,0.00675,0.2485,6.1000002e-05,-0.00029,1.5250001e-05,1741812290.8116128
-0.01225,0.008,0.25125,4.575e-05,-0.00029,4.575e-05,1741812290.8262222
-0.012,0.0085,0.25175,0.00027475,-0.0002135,-7.625e-05,1741812290.84081
-0.01225,0.00825,0.2495,0.00029,-0.00019825,-0.000122000005,1741812290.85552
-0.012,0.00825,0.2495,0.0,-0.0002595,-0.0001525,1741812290.8701282
-0.01275,0.00775,0.25125,-6.1000002e-05,-0.00027475,-0.00019825,1741812290.885532
-0.01325,0.007,0.25125,0.00010675,-0.0002135,-0.0002595,1741812290.899217
-0.01425,0.0065,0.24925,0.00013725001,-0.00019825,-0.0002135,1741812290.915647
-0.01375,0.007,0.24925,-7.625e-05,-0.000229,3.0500001e-05,1741812290.9282959
-0.01275,0.009,0.24975,-0.0001525,-0.000183,7.625e-05,1741812290.9429278
-0.01275,0.009,0.24975,-0.0001525,0.0,0.0,1741812290.957441
-0.013,0.00925,0.2495,-6.1000002e-05,7.625e-05,-4.575e-05,1741812290.97193
-0.01275,0.00925,0.24975,6.1000002e-05,0.000122000005,-4.575e-05,1741812290.9865239
-0.0135,0.0085,0.24925,0.00016775,0.00030525,-7.625e-05,1741812291.000997
-0.014,0.0075,0.24875,4.575e-05,0.00036625,-6.1000002e-05,1741812291.0156002
-0.01375,0.00625,0.24875,-0.00036625,0.00029,4.575e-05,1741812291.030186
-0.01325,0.0075,0.2505,-0.0004425,0.00024425,9.15e-05,1741812291.0452638
-0.01325,0.008,0.25075,-0.00036625,0.00016775,6.1000002e-05,1741812291.0592089
-0.01275,0.0075,0.25125,-0.0003815,0.00010675,6.1000002e-05,1741812291.074517
-0.01225,0.0075,0.25225,-0.0002135,3.0500001e-05,4.575e-05,1741812291.088217
-0.012,0.008,0.25075,-1.5250001e-05,4.575e-05,0.0,1741812291.102782
-0.012,0.008,0.2495,0.00010675,-0.000122000005,3.0500001e-05,1741812291.117399
-0.012,0.00775,0.251,6.1000002e-05,-0.0002135,3.0500001e-05,1741812291.131872
-0.0125,0.008,0.25125,7.625e-05,-0.00013725001,-3.0500001e-05,1741812291.146483
-0.013,0.00775,0.25075,0.00013725001,-7.625e-05,-6.1000002e-05,1741812291.161071
-0.013,0.00725,0.2505,0.00035100002,-3.0500001e-05,-6.1000002e-05,1741812291.1756978
-0.01325,0.00825,0.24875,0.0003205,-7.625e-05,1.5250001e-05,1741812291.190176
-0.0125,0.00875,0.24925,0.00013725001,-0.00016775,9.15e-05,1741812291.2052622
-0.01225,0.009,0.25025,-1.5250001e-05,-0.000229,9.15e-05,1741812291.219292
-0.0125,0.0095,0.2525,7.625e-05,-0.00013725001,1.5250001e-05,1741812291.234646
-0.013,0.009,0.252,0.00068675,0.00013725001,-0.000183,1741812291.248311
-0.01425,0.00625,0.2475,0.00083925005,0.0001525,-0.0002135,1741812291.2628858
-0.01425,0.006,0.247,0.0002135,6.1000002e-05,-9.15e-05,1741812291.277385
-0.013,0.007,0.2485,-0.0001525,3.0500001e-05,-4.575e-05,1741812291.291998
-0.01275,0.00725,0.2495,-0.00029,-1.5250001e-05,1.5250001e-05,1741812291.306612
-0.0125,0.0075,0.251,-0.0002135,0.0,3.0500001e-05,1741812291.321093
-0.0125,0.0075,0.25125,-0.00016775,6.1000002e-05,4.575e-05,1741812291.3356779
-0.01225,0.00875,0.252,-0.00010675,6.1000002e-05,1.5250001e-05,1741812291.350175
-0.01225,0.0085,0.25175,0.000183,0.0001525,-0.00013725001,1741812291.365199
-0.01325,0.005,0.249,0.000229,0.00016775,-0.00016775,1741812291.379408
-0.01325,0.00425,0.249,7.625e-05,0.00010675,-0.00010675,1741812291.3939662
-0.01275,0.005,0.25075,-0.00010675,-1.5250001e-05,4.575e-05,1741812291.408583
-0.01175,0.00725,0.2525,0.00016775,4.575e-05,-1.5250001e-05,1741812291.42319
-0.012,0.00775,0.25075,0.000534,0.00016775,-0.0002135,1741812291.4376729
-0.013,0.007,0.248,0.00033575002,7.625e-05,-0.000183,1741812291.452202
-0.013,0.007,0.2485,-0.00019825,-0.000183,3.0500001e-05,1741812291.466773
-0.013,0.007,0.252,-0.0002135,-0.00016775,4.575e-05,1741812291.4812841
-0.013,0.0065,0.252,0.00016775,0.00013725001,-6.1000002e-05,1741812291.495806
-0.0135,0.00625,0.24875,0.00027475,0.000229,-6.1000002e-05,1741812291.510258
-0.01325,0.00725,0.24825,0.000122000005,0.0002135,9.15e-05,1741812291.52525
-0.01275,0.0095,0.2485,-9.15e-05,0.0001525,0.000122000005,1741812291.539262
-0.01225,0.00925,0.24975,-0.00054925,4.575e-05,0.000122000005,1741812291.5552142
-0.0125,0.0075,0.25225,-0.00045775,9.15e-05,9.15e-05,1741812291.568277
-0.01275,0.007,0.2515,-0.000183,0.00013725001,3.0500001e-05,1741812291.582787
-0.0125,0.00725,0.25025,6.1000002e-05,0.00013725001,-3.0500001e-05,1741812291.597266
-0.01225,0.008,0.24925,3.0500001e-05,3.0500001e-05,-3.0500001e-05,1741812291.611878
-0.01225,0.00725,0.25,4.575e-05,-0.000183,-3.0500001e-05,1741812291.626435
-0.0115,0.0065,0.253,0.00013725001,-0.00016775,-3.0500001e-05,1741812291.641032
-0.01175,0.00675,0.2525,0.00039675,4.575e-05,-0.00010675,1741812291.655509
-0.01275,0.007,0.2505,0.000473,6.1000002e-05,-0.0001525,1741812291.669993
-0.01325,0.00725,0.25025,0.00070200005,-0.00010675,-0.000229,1741812291.6852841
-0.01375,0.006,0.2505,0.00071725,-0.00013725001,-0.0002595,1741812291.699132
-0.0135,0.0055,0.25025,0.00048825,-0.00010675,-0.00019825,1741812291.715165
-0.014,0.0045,0.24875,0.00033575002,-7.625e-05,-0.00013725001,1741812291.728399
-0.0135,0.00475,0.248,9.15e-05,-0.00010675,6.1000002e-05,1741812291.742817
-0.0125,0.00725,0.2495,-6.1000002e-05,-0.000122000005,0.00013725001,1741812291.75751
-0.012,0.00775,0.251,-0.0001525,-0.00010675,0.000122000005,1741812291.772059
-0.01225,0.00675,0.2515,0.00016775,3.0500001e-05,0.0,1741812291.786601
-0.01275,0.00575,0.25075,0.00039675,0.00010675,-4.575e-05,1741812291.801037
-0.013,0.00525,0.24975,0.00045775,0.00013725001,-7.625e-05,1741812291.815511
-0.01275,0.00575,0.24875,0.00027475,4.575e-05,-4.575e-05,1741812291.829958
-0.01225,0.00575,0.24925,-4.575e-05,-7.625e-05,1.5250001e-05,1741812291.84531
-0.01275,0.00475,0.25025,-0.00010675,-9.15e-05,4.575e-05,1741812291.85918
-0.01275,0.0055,0.251,-0.0001525,-0.00010675,9.15e-05,1741812291.873868
-0.0125,0.00625,0.25125,-1.5250001e-05,-0.00010675,6.1000002e-05,1741812291.8885062
-0.01225,0.006,0.251,0.00029,-0.000122000005,0.0,1741812291.9029498
-0.01225,0.0055,0.25025,0.00036625,-9.15e-05,-4.575e-05,1741812291.917671
-0.01225,0.005,0.249,7.625e-05,-6.1000002e-05,0.0,1741812291.932064
-0.01325,0.00475,0.248,-0.0002135,-9.15e-05,0.00010675,1741812291.9465861
-0.0135,0.0045,0.249,-0.00051875,-0.00013725001,0.000229,1741812291.961185
-0.0135,0.0065,0.25025,-0.000946,-0.000183,0.00051875,1741812291.975811
-0.0125,0.00775,0.252,-0.00102225,-0.000183,0.0005645,1741812291.9903932
-0.0115,0.008,0.2535,-0.00030525,0.0,0.000183,1741812292.0051079
-0.0135,0.007,0.252,0.00029,0.00016775,-4.575e-05,1741812292.0192661
-0.0145,0.0065,0.25,0.00064075,0.000229,-0.00010675,1741812292.034537
-0.01275,0.00625,0.24925,0.00048825,0.000122000005,-7.625e-05,1741812292.0483682
-0.0125,0.00525,0.24975,0.000412,6.1000002e-05,-0.00016775,1741812292.062885
-0.012,0.00275,0.249,0.000412,0.000122000005,-0.0001525,1741812292.077538
