acc_x,acc_y,acc_z,gyro_x,gyro_y,gyro_z,timestamp
-0.00125,-0.2465,0.01825,0.00024425,-0.000824,-0.000412,1741812254.27703
-0.00325,-0.25,0.0175,0.00016775,-0.000946,-0.0004425,1741812254.291112
-0.00325,-0.2515,0.01725,0.00010675,-0.0012055,-0.0004425,1741812254.305664
-0.003,-0.2555,0.01625,0.00013725001,-0.0013275,-0.000412,1741812254.3215392
0.00275,-0.2545,0.02025,0.00029,-0.00143425,0.0,1741812254.3362062
0.00525,-0.2525,0.0215,0.0003815,-0.00125125,0.0002595,1741812254.350759
0.005,-0.25125,0.0205,0.00048825,-0.00036625,0.00051875,1741812254.3660219
-0.00025,-0.24975,0.0155,0.000534,-7.625e-05,0.00054925,1741812254.379922
-0.00225,-0.24825,0.01475,0.00061025,-0.00013725001,0.00059500005,1741812254.39553
-0.003,-0.24425,0.016,0.00067150005,-0.00029,0.00057975,1741812254.4093351
-0.00275,-0.24225,0.0165,0.000534,-0.0002595,0.00045775,1741812254.425575
-0.003,-0.24125,0.01625,0.00048825,-0.00016775,0.0001525,1741812254.438643
-0.00325,-0.2415,0.016,0.00035100002,-4.575e-05,-0.000412,1741812254.453353
-0.00425,-0.24475,0.015,0.0001525,1.5250001e-05,-0.00042725,1741812254.468043
-0.00525,-0.247,0.01425,-0.00013725001,-4.575e-05,-0.000229,1741812254.4828448
-0.005,-0.24975,0.014,-7.625e-05,-0.00024425,-0.00013725001,1741812254.497671
-0.003,-0.2495,0.01575,0.00010675,-0.000412,-4.575e-05,1741812254.512286
0.00175,-0.24725,0.0185,0.00013725001,-0.00024425,-4.575e-05,1741812254.526999
0.002,-0.24725,0.0175,7.625e-05,0.000229,-0.00016775,1741812254.541544
-0.00075,-0.24825,0.01425,0.0,0.00027475,-0.00024425,1741812254.556128
-0.0015,-0.249,0.01425,-7.625e-05,-6.1000002e-05,-0.00036625,1741812254.570883
-0.00125,-0.25075,0.017,-6.1000002e-05,-0.000183,-0.000473,1741812254.5858738
-0.00225,-0.25175,0.017,-1.5250001e-05,-0.00019825,-0.00045775,1741812254.600737
-0.00275,-0.2525,0.018,0.0,-0.0002135,-0.00024425,1741812254.615666
-0.0015,-0.251,0.01925,0.0002135,-0.00019825,9.15e-05,1741812254.630223
-0.002,-0.24875,0.01825,0.00029,-6.1000002e-05,9.15e-05,1741812254.645687
-0.003,-0.24925,0.0165,0.00035100002,3.0500001e-05,1.5250001e-05,1741812254.65939
-0.00375,-0.24925,0.0155,0.00035100002,-0.000183,-0.0001525,1741812254.6753411
-0.00225,-0.24875,0.01675,0.0003205,-0.00024425,-0.00019825,1741812254.688837
-0.001,-0.24775,0.01725,0.00024425,4.575e-05,-0.00027475,1741812254.705258
-0.00175,-0.24775,0.01425,0.0002135,0.0002135,-0.00029,1741812254.718134
-0.002,-0.24825,0.0135,0.000183,0.00010675,-0.00033575002,1741812254.732951
-0.0015,-0.24825,0.0135,0.00010675,3.0500001e-05,-0.00036625,1741812254.7474828
-0.00175,-0.249,0.01325,3.0500001e-05,-3.0500001e-05,-0.00042725,1741812254.7621272
-0.00025,-0.248,0.01725,4.575e-05,-6.1000002e-05,-0.00048825,1741812254.776808
-0.0005,-0.248,0.01775,1.5250001e-05,0.00013725001,-0.0005645,1741812254.79154
-0.0045,-0.25125,0.01475,0.0,0.000229,-0.00051875,1741812254.806036
-0.006,-0.252,0.01375,0.00019825,1.5250001e-05,-0.00024425,1741812254.82068
-0.00325,-0.24925,0.015,0.00030525,-0.000183,-0.00010675,1741812254.835649
-0.00075,-0.24675,0.01625,0.000229,-9.15e-05,4.575e-05,1741812254.850302
0.002,-0.24575,0.0165,0.0001525,9.15e-05,-1.5250001e-05,1741812254.8651211
0.001,-0.24675,0.0155,4.575e-05,0.000229,-0.00027475,1741812254.8794181
-0.003,-0.25025,0.01325,3.0500001e-05,0.000183,-0.0003205,1741812254.8955069
-0.00375,-0.251,0.01325,4.575e-05,7.625e-05,-0.00029,1741812254.908496
-0.00375,-0.25025,0.01475,0.000122000005,-0.0002135,-0.0003815,1741812254.92451
-0.00475,-0.251,0.01425,0.00010675,-0.00027475,-0.0005035,1741812254.9377768
-0.00575,-0.25175,0.01425,9.15e-05,-0.00033575002,-0.00051875,1741812254.952564
-0.0055,-0.251,0.016,7.625e-05,-0.00036625,-0.000412,1741812254.96735
-0.005,-0.25075,0.01625,0.0,-0.00033575002,-7.625e-05,1741812254.982135
-0.0045,-0.2495,0.01625,-1.5250001e-05,-0.00027475,9.15e-05,1741812254.996898
-0.0045,-0.24925,0.01525,4.575e-05,-0.00027475,0.0002595,1741812255.01148
-0.0025,-0.247,0.01625,0.00010675,-0.00036625,0.00027475,1741812255.026028
0.0,-0.2455,0.0185,0.00010675,-0.0001525,-9.15e-05,1741812255.0406458
-0.001,-0.24825,0.017,0.00010675,0.00010675,-0.0004425,1741812255.055209
-0.003,-0.25075,0.0145,0.00036625,0.000229,-0.00071725,1741812255.0697322
-0.0055,-0.2525,0.011,0.00059500005,7.625e-05,-0.00061025,1741812255.085408
-0.00475,-0.252,0.0115,0.0008545,-0.0002135,1.5250001e-05,1741812255.098968
0.00125,-0.24575,0.017,0.00090025004,-4.575e-05,0.0002595,1741812255.11509
0.0025,-0.24375,0.01675,0.00068675,0.000763,0.0002135,1741812255.127848
0.00025,-0.24525,0.01275,0.00045775,0.00099175,0.00013725001,1741812255.1423051
-0.0015,-0.24625,0.0125,0.00027475,0.000885,-4.575e-05,1741812255.1569989
-0.00625,-0.24875,0.012,-9.15e-05,0.00033575002,-0.000534,1741812255.1716008
-0.00825,-0.2505,0.01175,-0.0002595,0.000122000005,-0.00062550005,1741812255.186246
-0.00875,-0.25125,0.01275,-0.000412,-0.00027475,-0.00051875,1741812255.201031
-0.00625,-0.2505,0.0165,-0.00035100002,-0.00042725,-0.00048825,1741812255.215829
-0.00475,-0.25025,0.01675,-0.00024425,-0.00030525,-0.00035100002,1741812255.23073
-0.002,-0.251,0.01575,-0.00024425,-7.625e-05,-0.000183,1741812255.245604
-0.00175,-0.25075,0.01525,-9.15e-05,0.000229,3.0500001e-05,1741812255.260177
-0.002,-0.24875,0.014,-3.0500001e-05,0.00033575002,-3.0500001e-05,1741812255.274934
-0.00325,-0.249,0.0125,-0.000122000005,0.00042725,-0.000122000005,1741812255.289651
-0.00725,-0.24975,0.011,-0.000122000005,0.00027475,-0.00016775,1741812255.305213
-0.00775,-0.2505,0.0125,-0.0002595,-9.15e-05,-0.00010675,1741812255.319083
-0.0075,-0.2525,0.01475,-0.00024425,-0.00024425,-0.000122000005,1741812255.334879
-0.00625,-0.25225,0.016,-9.15e-05,-0.00036625,-4.575e-05,1741812255.348796
-0.0025,-0.2515,0.017,3.0500001e-05,-0.00030525,0.0,1741812255.365257
-0.0025,-0.2515,0.0155,0.00019825,-0.00010675,0.000122000005,1741812255.378201
-0.004,-0.2505,0.013,0.0002595,-6.1000002e-05,0.000183,1741812255.392844
-0.00375,-0.2495,0.01325,0.00035100002,-9.15e-05,9.15e-05,1741812255.4076731
-0.00125,-0.24725,0.015,0.000412,0.0,-6.1000002e-05,1741812255.4224331
-0.00125,-0.247,0.01475,0.00042725,0.0003205,-0.000473,1741812255.436983
-0.005,-0.24775,0.01225,0.00033575002,0.0003815,-0.00059500005,1741812255.451613
-0.00625,-0.248,0.01175,0.00024425,4.575e-05,-0.00065625,1741812255.466293
-0.00625,-0.24675,0.01325,0.000229,-0.000122000005,-0.0007325,1741812255.4811032
-0.00675,-0.2475,0.013,0.00010675,-0.000122000005,-0.00067150005,1741812255.495842
-0.00725,-0.24925,0.01275,7.625e-05,-0.00013725001,-0.000473,1741812255.510658
-0.0065,-0.2485,0.01425,-4.575e-05,-3.0500001e-05,3.0500001e-05,1741812255.525734
-0.0045,-0.2475,0.01475,-0.00010675,0.0001525,0.000183,1741812255.540137
-0.005,-0.2475,0.0135,-0.00013725001,0.00029,0.00019825,1741812255.555369
-0.00675,-0.24725,0.01225,-0.00016775,0.00019825,4.575e-05,1741812255.569532
-0.007,-0.24675,0.01275,-0.00019825,4.575e-05,-4.575e-05,1741812255.585469
-0.00775,-0.2475,0.01275,-0.00027475,-6.1000002e-05,-0.000183,1741812255.598989
-0.0085,-0.24975,0.0135,-0.000229,-0.000122000005,-0.000183,1741812255.6137018
-0.00725,-0.25025,0.015,-0.000229,-0.000183,0.0,1741812255.628489
-0.005,-0.2515,0.01525,-0.0002135,-0.00016775,6.1000002e-05,1741812255.643084
-0.004,-0.251,0.01475,-9.15e-05,-0.00010675,6.1000002e-05,1741812255.657776
-0.00275,-0.24975,0.0145,-4.575e-05,-0.00010675,1.5250001e-05,1741812255.672477
-0.0015,-0.24925,0.01525,-4.575e-05,-1.5250001e-05,-0.00010675,1741812255.687325
-0.002,-0.25,0.0155,-7.625e-05,0.000122000005,-0.000183,1741812255.7021172
-0.00375,-0.25125,0.014,3.0500001e-05,0.000229,-0.000122000005,1741812255.716744
-0.0025,-0.24925,0.015,7.625e-05,0.00010675,3.0500001e-05,1741812255.7312891
-0.0015,-0.24825,0.0155,-1.5250001e-05,7.625e-05,0.00013725001,1741812255.745933
-0.005,-0.24975,0.01225,-3.0500001e-05,0.00013725001,7.625e-05,1741812255.760488
-0.00675,-0.25025,0.01125,0.00016775,-0.00016775,0.0,1741812255.775517
-0.005,-0.24725,0.01425,0.00016775,-0.00035100002,4.575e-05,1741812255.789618
-0.00375,-0.246,0.0155,-0.00016775,-0.00010675,0.00019825,1741812255.805206
-0.00325,-0.24625,0.01625,-0.0002595,0.0001525,0.00013725001,1741812255.818906
-0.004,-0.24725,0.016,-0.00033575002,0.0003815,-4.575e-05,1741812255.835103
-0.005,-0.249,0.0155,-0.00035100002,0.00035100002,-1.5250001e-05,1741812255.848265
-0.006,-0.24875,0.0145,-0.00030525,0.00030525,0.0,1741812255.86287
-0.0085,-0.24875,0.01175,-0.000229,0.00024425,0.00010675,1741812255.8775911
-0.00775,-0.24775,0.01225,-0.00016775,9.15e-05,0.000122000005,1741812255.892278
-0.006,-0.2465,0.0135,-0.000183,-0.00016775,-0.00013725001,1741812255.9070132
-0.00325,-0.24725,0.01475,-0.0003205,-7.625e-05,-0.000229,1741812255.9218729
-0.00275,-0.24775,0.01475,-0.00042725,0.0001525,-0.00042725,1741812255.936607
-0.0035,-0.24925,0.0155,-0.00045775,0.0002595,-0.00051875,1741812255.951285
-0.00525,-0.25075,0.01475,-0.00039675,0.00024425,-0.00059500005,1741812255.966072
-0.00825,-0.25275,0.0155,-0.0003205,0.00013725001,-0.00051875,1741812255.980792
-0.00875,-0.25275,0.0165,-7.625e-05,-3.0500001e-05,-0.00030525,1741812255.9956229
-0.0085,-0.25175,0.017,1.5250001e-05,0.0,-0.00019825,1741812256.010253
-0.00775,-0.25125,0.017,-3.0500001e-05,0.000229,0.0002135,1741812256.0256672
-0.00675,-0.2495,0.0165,-7.625e-05,0.00036625,0.00035100002,1741812256.039669
-0.007,-0.2495,0.015,0.0,0.00035100002,0.00033575002,1741812256.055006
-0.00675,-0.24975,0.01325,4.575e-05,0.0002135,0.0002595,1741812256.068734
-0.00575,-0.25025,0.01375,7.625e-05,-7.625e-05,0.000122000005,1741812256.083308
-0.00275,-0.25075,0.01575,7.625e-05,-7.625e-05,0.0001525,1741812256.0982778
-0.002,-0.251,0.0155,0.00013725001,0.0002595,0.00033575002,1741812256.112875
-0.00325,-0.25025,0.01275,0.00024425,0.0003815,0.00036625,1741812256.127468
-0.00375,-0.24875,0.0125,0.0003205,0.00035100002,0.00035100002,1741812256.1420228
-0.00475,-0.2475,0.01275,0.00029,0.00029,0.0003205,1741812256.156665
-0.005,-0.24725,0.0135,0.00027475,0.000229,0.000229,1741812256.171169
-0.004,-0.24675,0.0155,0.000183,0.00016775,-1.5250001e-05,1741812256.185924
-0.004,-0.24775,0.01575,7.625e-05,0.000229,-0.00010675,1741812256.200625
-0.005,-0.249,0.015,-7.625e-05,0.0003815,-0.000122000005,1741812256.215369
-0.00575,-0.25025,0.01425,-1.5250001e-05,0.00036625,-6.1000002e-05,1741812256.230082
-0.0065,-0.2505,0.01375,0.000122000005,0.000122000005,-3.0500001e-05,1741812256.24542
-0.007,-0.2515,0.01325,0.000229,-9.15e-05,-1.5250001e-05,1741812256.259373
-0.0045,-0.24925,0.01575,0.0003205,-0.0002595,-0.000122000005,1741812256.275303
-0.0015,-0.2465,0.01675,0.000183,-3.0500001e-05,-0.0003815,1741812256.288773
-0.004,-0.24875,0.014,4.575e-05,7.625e-05,-0.000946,1741812256.303392
-0.0055,-0.25075,0.01275,0.00010675,-0.0002135,-0.00112925,1741812256.3181021
-0.00525,-0.25075,0.0135,6.1000002e-05,-0.00062550005,-0.0012207499,1741812256.332781
-0.004,-0.25175,0.01625,1.5250001e-05,-0.00062550005,-0.001114,1741812256.347445
-0.004,-0.2525,0.01675,3.0500001e-05,-0.00024425,-0.00054925,1741812256.362169
-0.0055,-0.2535,0.01625,0.00010675,0.0,-0.00010675,1741812256.3769321
-0.0055,-0.25125,0.016,0.0003815,0.000412,0.00051875,1741812256.391451
-0.00625,-0.24675,0.014,0.0003815,0.00059500005,0.00064075,1741812256.405956
-0.006,-0.2455,0.01275,0.00019825,0.00067150005,0.00051875,1741812256.4204538
-0.00525,-0.2445,0.011,0.00010675,0.00062550005,0.00030525,1741812256.435502
-0.00525,-0.245,0.01075,-3.0500001e-05,0.00057975,0.0001525,1741812256.449715
-0.00675,-0.2475,0.01125,-0.00030525,0.00051875,7.625e-05,1741812256.465329
-0.00725,-0.24825,0.012,-0.00027475,0.00039675,1.5250001e-05,1741812256.4787998
-0.00625,-0.24775,0.0135,-7.625e-05,0.0002135,-0.00010675,1741812256.493433
-0.0055,-0.248,0.015,-0.000122000005,0.00033575002,-7.625e-05,1741812256.508075
-0.00625,-0.249,0.014,-0.00045775,0.00077825,0.00029,1741812256.522698
-0.008,-0.25025,0.011,-0.00051875,0.00080875,0.00036625,1741812256.5373912
-0.009,-0.251,0.01,-0.00027475,0.00027475,0.00030525,1741812256.551996
-0.0075,-0.24975,0.01225,-0.000122000005,-7.625e-05,0.00027475,1741812256.566903
-0.0055,-0.249,0.014,-3.0500001e-05,-0.00035100002,0.000229,1741812256.581599
-0.00525,-0.25,0.01125,-4.575e-05,-0.00035100002,0.00024425,1741812256.596378
-0.006,-0.25,0.01,-0.00027475,-0.00074775,0.0007325,1741812256.611076
-0.002,-0.246,0.015,-0.00045775,-0.00096125,0.0009155,1741812256.625802
0.0,-0.24575,0.0175,-0.00080875,-0.00051875,0.00071725,1741812256.640482
-0.0015,-0.25025,0.0175,-0.0007325,-0.000122000005,0.00042725,1741812256.6554601
-0.004,-0.252,0.01575,-0.00029,0.0001525,0.00024425,1741812256.669788
-0.0055,-0.25125,0.01425,-0.000183,9.15e-05,0.00048825,1741812256.68453
-0.005,-0.2495,0.014,-0.00016775,0.0,0.00080875,1741812256.699121
-0.004,-0.24725,0.01425,-0.000229,0.0,0.00077825,1741812256.713686
-0.00425,-0.2475,0.014,-0.0002595,-3.0500001e-05,0.00061025,1741812256.728377
-0.00425,-0.24875,0.01375,-0.00010675,-0.000229,0.00027475,1741812256.7430851
-0.0035,-0.24825,0.01475,-3.0500001e-05,-0.00029,0.000229,1741812256.757799
-0.00175,-0.247,0.01675,-6.1000002e-05,-3.0500001e-05,0.000183,1741812256.772457
-0.00225,-0.2465,0.016,-0.00019825,0.000229,0.00013725001,1741812256.7871082
-0.005,-0.248,0.014,-0.00029,0.00033575002,0.00019825,1741812256.801718
-0.00575,-0.2475,0.0135,-0.000183,0.00016775,0.0002595,1741812256.816468
-0.00425,-0.24725,0.01375,-6.1000002e-05,-9.15e-05,0.00024425,1741812256.8313909
-0.00225,-0.24725,0.0145,-9.15e-05,-0.0001525,0.000183,1741812256.846055
-0.0015,-0.24725,0.01575,-0.00016775,-0.00019825,-3.0500001e-05,1741812256.8608692
-0.0005,-0.2475,0.01775,-0.000183,-6.1000002e-05,-0.00024425,1741812256.87569
-0.0035,-0.251,0.0155,-6.1000002e-05,9.15e-05,-0.00051875,1741812256.890636
-0.0065,-0.25325,0.01375,0.00010675,-0.00010675,-0.000473,1741812256.905372
-0.00575,-0.25175,0.01425,0.0002595,-0.00036625,-0.0001525,1741812256.920081
-0.00325,-0.2485,0.014,0.00024425,-0.0003815,0.0,1741812256.9353988
-0.00175,-0.24625,0.0145,0.0002135,-0.00033575002,-0.00010675,1741812256.94945
-0.0025,-0.247,0.01375,0.000183,-0.00029,-0.00036625,1741812256.965444
-0.00325,-0.2485,0.0135,0.00010675,-0.00030525,-0.00057975,1741812256.978901
-0.00575,-0.25075,0.01275,0.00016775,-0.0004425,-0.00054925,1741812256.9936252
-0.006,-0.25025,0.01325,0.00033575002,-0.000885,-0.000412,1741812257.008485
-0.00575,-0.24825,0.014,0.00030525,-0.001068,-0.00036625,1741812257.023293
-0.00475,-0.247,0.01525,0.000183,-0.00115975,-0.000412,1741812257.038183
-0.00125,-0.24675,0.01775,1.5250001e-05,-0.00086975005,-0.00042725,1741812257.0529978
-0.00075,-0.249,0.01675,-9.15e-05,-0.00029,-0.00039675,1741812257.068002
-0.001,-0.25175,0.0135,-4.575e-05,-0.00013725001,-0.00033575002,1741812257.082768
-0.00225,-0.25225,0.0115,7.625e-05,-0.00019825,-3.0500001e-05,1741812257.097452
-0.0045,-0.2485,0.0115,0.0001525,-0.0003205,3.0500001e-05,1741812257.1120682
-0.00625,-0.248,0.01175,0.00013725001,-0.00045775,-1.5250001e-05,1741812257.126889
-0.00675,-0.24625,0.0135,0.00016775,-0.00048825,-0.00010675,1741812257.141616
-0.00675,-0.2465,0.01425,-1.5250001e-05,-0.0005645,-0.0002595,1741812257.1564999
-0.0035,-0.24625,0.01925,-6.1000002e-05,-0.00061025,-0.00036625,1741812257.1713128
-0.00375,-0.24775,0.01925,-0.00013725001,-7.625e-05,-0.00065625,1741812257.186195
-0.01,-0.25325,0.01175,-0.000122000005,3.0500001e-05,-0.00048825,1741812257.2008882
-0.0095,-0.25075,0.01175,0.0,-0.00016775,-0.00016775,1741812257.2155578
-0.0075,-0.247,0.0115,-3.0500001e-05,-0.00054925,0.00024425,1741812257.230279
-0.0065,-0.247,0.011,-0.000122000005,-0.0005645,0.000229,1741812257.245277
-0.0015,-0.246,0.01625,-0.00010675,-0.0005645,-0.00019825,1741812257.259962
-0.0025,-0.2495,0.01575,-0.00024425,-0.00042725,-0.00039675,1741812257.275255
-0.004,-0.253,0.015,-0.00036625,-0.000122000005,-0.00030525,1741812257.2897
-0.0045,-0.2525,0.01675,-0.00024425,-0.00010675,-0.00027475,1741812257.305314
-0.0065,-0.25275,0.0155,-0.0001525,-0.0001525,-0.00016775,1741812257.319398
-0.008,-0.25225,0.015,-4.575e-05,-0.00027475,-6.1000002e-05,1741812257.334686
-0.0065,-0.25,0.01675,4.575e-05,-0.000229,7.625e-05,1741812257.3489652
-0.00725,-0.25075,0.0135,-1.5250001e-05,-6.1000002e-05,0.000122000005,1741812257.365291
-0.0075,-0.2505,0.0115,0.00010675,-0.00029,9.15e-05,1741812257.378305
-0.003,-0.247,0.015,9.15e-05,-0.00042725,3.0500001e-05,1741812257.392957
-0.00125,-0.2475,0.01675,-3.0500001e-05,-0.00035100002,-0.0003205,1741812257.4078789
-0.0025,-0.25025,0.01525,-1.5250001e-05,-0.0002595,-0.0004425,1741812257.4226098
-0.00425,-0.25075,0.01375,0.0001525,-0.00030525,-0.000412,1741812257.437161
-0.0055,-0.24825,0.0135,0.00016775,-0.00036625,-0.00035100002,1741812257.451869
-0.005,-0.247,0.0145,-6.1000002e-05,-0.00042725,-0.00029,1741812257.466578
-0.00575,-0.2465,0.0145,-0.00013725001,-0.000534,-0.0003815,1741812257.481364
-0.00625,-0.24625,0.01525,-0.0002135,-0.00062550005,-0.000534,1741812257.49617
-0.0065,-0.24725,0.0165,-0.000229,-0.0005035,-0.00054925,1741812257.510863
-0.00675,-0.24775,0.0165,-0.00024425,-0.00030525,-0.000412,1741812257.525745
-0.0075,-0.24875,0.01575,-0.00029,-0.000183,-0.0002595,1741812257.540544
-0.008,-0.24975,0.015,-0.00029,-6.1000002e-05,-0.00016775,1741812257.55549
-0.00675,-0.25,0.016,-0.00029,-6.1000002e-05,-0.00016775,1741812257.570278
-0.007,-0.25,0.01575,-0.000229,-4.575e-05,-0.0002135,1741812257.5854201
-0.00825,-0.251,0.0135,-0.00016775,-3.0500001e-05,-0.000229,1741812257.599869
-0.00825,-0.2505,0.01375,0.0,-6.1000002e-05,-0.000229,1741812257.6153731
-0.0075,-0.25,0.0145,6.1000002e-05,-0.00013725001,-0.00024425,1741812257.629077
-0.00675,-0.2495,0.0145,0.00013725001,-0.00019825,-0.0002135,1741812257.643784
-0.00575,-0.24925,0.01425,7.625e-05,-0.00010675,-0.0001525,1741812257.658476
-0.006,-0.25025,0.0135,-3.0500001e-05,1.5250001e-05,-9.15e-05,1741812257.673082
-0.00825,-0.2505,0.0135,-4.575e-05,-7.625e-05,-1.5250001e-05,1741812257.687857
-0.0085,-0.2505,0.01475,-3.0500001e-05,-0.00010675,1.5250001e-05,1741812257.7024431
-0.009,-0.25075,0.015,1.5250001e-05,-6.1000002e-05,0.00016775,1741812257.7169988
-0.00825,-0.24975,0.014,1.5250001e-05,-9.15e-05,0.0003205,1741812257.731669
-0.00675,-0.248,0.01425,4.575e-05,-0.0002135,0.00042725,1741812257.746182
-0.00475,-0.24625,0.01425,4.575e-05,-0.000229,0.00030525,1741812257.760891
-0.0045,-0.24675,0.01425,-4.575e-05,-0.00010675,-3.0500001e-05,1741812257.775575
-0.00575,-0.25,0.01375,-0.00010675,-7.625e-05,-0.0001525,1741812257.790283
-0.00625,-0.251,0.01375,-0.00016775,-9.15e-05,-7.625e-05,1741812257.8051221
-0.0065,-0.2505,0.01475,-0.00010675,-0.00013725001,0.0,1741812257.819885
-0.007,-0.24975,0.01475,9.15e-05,-0.0002595,-4.575e-05,1741812257.834621
-0.00775,-0.2485,0.015,7.625e-05,-0.0003815,-7.625e-05,1741812257.8492732
-0.0075,-0.248,0.016,6.1000002e-05,-0.000473,-0.000122000005,1741812257.86534
-0.00725,-0.24875,0.01625,4.575e-05,-0.00035100002,-0.00010675,1741812257.87843
-0.00825,-0.2495,0.01475,1.5250001e-05,-0.00016775,6.1000002e-05,1741812257.893074
-0.007,-0.2485,0.014,6.1000002e-05,-0.0002135,9.15e-05,1741812257.907692
-0.00575,-0.24725,0.0145,9.15e-05,-0.00030525,1.5250001e-05,1741812257.922281
-0.00525,-0.2485,0.01425,9.15e-05,-0.00030525,-4.575e-05,1741812257.936955
-0.00525,-0.24875,0.01425,0.00013725001,-0.00029,-0.0001525,1741812257.951699
-0.00525,-0.2485,0.01575,9.15e-05,-0.000229,-0.000183,1741812257.966353
-0.0065,-0.2495,0.01575,0.0,-0.000122000005,-0.00019825,1741812257.980941
-0.00775,-0.2505,0.016,7.625e-05,-4.575e-05,-0.00019825,1741812257.995764
-0.00825,-0.25025,0.01575,0.000183,-9.15e-05,-0.0001525,1741812258.01063
-0.00875,-0.25,0.0155,0.0003205,-9.15e-05,0.0,1741812258.025111
-0.009,-0.24825,0.01425,0.00027475,0.0,7.625e-05,1741812258.039552
-0.00825,-0.24825,0.0135,0.0001525,4.575e-05,0.00016775,1741812258.0541818
-0.0075,-0.248,0.0115,0.000122000005,0.0,0.0001525,1741812258.0685859
-0.0075,-0.2485,0.0105,6.1000002e-05,-0.00016775,9.15e-05,1741812258.083189
-0.00625,-0.248,0.013,6.1000002e-05,-0.00027475,1.5250001e-05,1741812258.0977972
-0.00575,-0.2485,0.0145,0.0,-0.0002135,-0.0001525,1741812258.112484
-0.00625,-0.25,0.0145,3.0500001e-05,-0.0001525,-0.0001525,1741812258.1271832
-0.006,-0.24975,0.015,0.00016775,-0.00010675,-0.0001525,1741812258.141793
-0.00625,-0.24775,0.016,0.0001525,-6.1000002e-05,-0.000229,1741812258.1564429
-0.007,-0.24825,0.01575,0.0,9.15e-05,-0.0003205,1741812258.1709619
-0.00875,-0.25,0.0145,-1.5250001e-05,7.625e-05,-0.00024425,1741812258.1857998
-0.0085,-0.2505,0.01425,1.5250001e-05,-9.15e-05,9.15e-05,1741812258.2002828
-0.00375,-0.2475,0.01625,4.575e-05,-0.00010675,0.0002135,1741812258.2154639
-0.0025,-0.24625,0.016,6.1000002e-05,-1.5250001e-05,0.00019825,1741812258.2293801
-0.003,-0.247,0.01475,-7.625e-05,0.00024425,4.575e-05,1741812258.245402
-0.00575,-0.2495,0.01125,-0.00010675,0.00019825,4.575e-05,1741812258.258641
-0.006,-0.24925,0.011,-0.00013725001,1.5250001e-05,0.00024425,1741812258.2731688
-0.0045,-0.2455,0.0125,-0.000183,1.5250001e-05,0.00030525,1741812258.287773
-0.00475,-0.24375,0.01225,-0.00048825,0.00030525,0.00030525,1741812258.3023858
-0.00925,-0.245,0.00925,-0.000763,0.0003815,0.0002595,1741812258.3172219
-0.01025,-0.2455,0.0105,-0.00109875,0.00029,0.00016775,1741812258.3318179
-0.00575,-0.245,0.018,-0.00112925,0.00035100002,3.0500001e-05,1741812258.3463628
-0.0065,-0.24725,0.018,-0.001007,0.0005645,-0.00042725,1741812258.360939
-0.0105,-0.2515,0.01725,-0.000946,0.0005645,-0.00048825,1741812258.375829
-0.01075,-0.25275,0.01875,-0.00057975,0.00045775,-0.00057975,1741812258.3906162
-0.01025,-0.25525,0.01725,-0.00033575002,0.00048825,-0.00059500005,1741812258.405314
-0.00975,-0.25475,0.0155,0.00010675,0.00027475,-0.00036625,1741812258.419776
-0.0045,-0.25025,0.0175,0.00024425,0.00016775,-0.0003205,1741812258.435528
-0.00425,-0.2505,0.0165,0.0002595,0.00029,-0.00030525,1741812258.448939
-0.0055,-0.251,0.01375,0.00024425,0.00027475,-0.00013725001,1741812258.4636009
-0.00425,-0.24875,0.01475,0.0002135,0.000183,6.1000002e-05,1741812258.478125
-0.0025,-0.2465,0.01625,-1.5250001e-05,0.00029,0.000122000005,1741812258.492675
-0.003,-0.247,0.01575,-9.15e-05,0.00036625,1.5250001e-05,1741812258.507564
-0.004,-0.2485,0.015,-0.0002135,0.0002595,-4.575e-05,1741812258.522254
-0.006,-0.251,0.014,-0.000229,7.625e-05,1.5250001e-05,1741812258.536795
-0.00575,-0.25025,0.01475,-1.5250001e-05,-0.000183,0.0001525,1741812258.5514371
-0.00575,-0.2485,0.01575,3.0500001e-05,-0.0001525,0.000183,1741812258.565933
-0.00625,-0.2485,0.0155,-0.000183,7.625e-05,0.0003205,1741812258.580574
-0.0065,-0.24875,0.01525,-0.0002595,0.00013725001,0.0003205,1741812258.595339
-0.0075,-0.25,0.01475,-0.00027475,0.000122000005,0.00016775,1741812258.609751
-0.00875,-0.251,0.01425,-0.00016775,4.575e-05,0.00013725001,1741812258.6254349
-0.008,-0.25,0.0155,-9.15e-05,1.5250001e-05,0.000183,1741812258.638954
-0.00575,-0.248,0.01875,-0.00016775,0.0002595,0.0001525,1741812258.655206
-0.007,-0.24925,0.01675,-0.00024425,0.00071725,0.0,1741812258.668155
-0.011,-0.252,0.0125,-0.0002595,0.00065625,9.15e-05,1741812258.682719
-0.0105,-0.25025,0.01325,-0.00027475,0.00042725,0.00027475,1741812258.6973262
-0.006,-0.24575,0.016,-0.000412,0.00030525,0.00045775,1741812258.711947
-0.00625,-0.2465,0.01475,-0.00048825,0.0004425,0.0003815,1741812258.726586
-0.00725,-0.24825,0.0135,-0.00033575002,0.00030525,4.575e-05,1741812258.7412071
-0.00675,-0.249,0.0155,-0.000183,0.00013725001,-0.00010675,1741812258.755976
-0.00675,-0.24975,0.017,-9.15e-05,6.1000002e-05,-0.0002595,1741812258.770654
-0.00725,-0.25125,0.01775,-6.1000002e-05,4.575e-05,-0.0002135,1741812258.7854028
-0.0055,-0.25,0.01925,-6.1000002e-05,0.0002135,0.0,1741812258.799855
-0.005,-0.25025,0.018,-6.1000002e-05,0.00033575002,6.1000002e-05,1741812258.815584
-0.00575,-0.2505,0.016,4.575e-05,0.000229,0.00024425,1741812258.8288121
-0.00475,-0.248,0.015,6.1000002e-05,0.0001525,0.00030525,1741812258.843241
-0.00525,-0.24775,0.01425,0.0,0.0001525,0.0002135,1741812258.85775
-0.0065,-0.24775,0.0145,-1.5250001e-05,0.00010675,0.00013725001,1741812258.8723469
-0.00625,-0.2475,0.0155,-4.575e-05,4.575e-05,0.0,1741812258.88699
-0.007,-0.2485,0.0165,-6.1000002e-05,0.000183,-0.00010675,1741812258.901671
-0.00925,-0.25025,0.0155,-9.15e-05,0.00033575002,-0.0002135,1741812258.916564
-0.0105,-0.252,0.015,-3.0500001e-05,0.00024425,-0.00016775,1741812258.931245
-0.00925,-0.2515,0.01525,4.575e-05,0.000122000005,-9.15e-05,1741812258.945815
-0.00525,-0.24925,0.017,0.00013725001,1.5250001e-05,1.5250001e-05,1741812258.9603431
-0.0045,-0.249,0.01675,0.00016775,3.0500001e-05,-7.625e-05,1741812258.975391
-0.0055,-0.25,0.01525,0.00027475,-3.0500001e-05,-0.00027475,1741812258.989654
-0.00625,-0.25,0.01425,0.00039675,-0.00016775,-0.000229,1741812259.005075
-0.00475,-0.24775,0.01625,0.00045775,-0.0001525,-3.0500001e-05,1741812259.0190752
-0.006,-0.2485,0.014,0.00042725,-4.575e-05,1.5250001e-05,1741812259.033664
-0.00625,-0.24775,0.0135,0.0003205,-6.1000002e-05,0.0002135,1741812259.048233
-0.004,-0.2445,0.0155,0.00013725001,6.1000002e-05,0.00024425,1741812259.062813
-0.00475,-0.24625,0.014,-4.575e-05,0.0001525,0.00010675,1741812259.077353
-0.004,-0.24675,0.0155,0.0,6.1000002e-05,3.0500001e-05,1741812259.0917492
-0.00475,-0.24775,0.01525,3.0500001e-05,-7.625e-05,-6.1000002e-05,1741812259.106536
-0.0055,-0.24825,0.01525,6.1000002e-05,-0.0001525,1.5250001e-05,1741812259.121164
-0.00425,-0.247,0.017,-0.00016775,6.1000002e-05,0.00024425,1741812259.13588
-0.00625,-0.24925,0.014,-0.00019825,9.15e-05,0.0002135,1741812259.150552
-0.0065,-0.2495,0.01425,-9.15e-05,-0.00013725001,3.0500001e-05,1741812259.165289
-0.007,-0.251,0.01475,-0.000122000005,-0.000229,-1.5250001e-05,1741812259.1799738
-0.00725,-0.2515,0.0155,-7.625e-05,-0.00030525,-6.1000002e-05,1741812259.195225
-0.00625,-0.2505,0.01725,3.0500001e-05,-0.00024425,-9.15e-05,1741812259.209373
-0.007,-0.25075,0.0155,0.0,-0.00013725001,-3.0500001e-05,1741812259.225224
-0.005,-0.24775,0.01575,-3.0500001e-05,-3.0500001e-05,0.00016775,1741812259.238838
-0.0055,-0.24825,0.015,-0.00013725001,6.1000002e-05,0.000229,1741812259.2534451
-0.00625,-0.249,0.014,-0.00010675,1.5250001e-05,0.00013725001,1741812259.268186
-0.0065,-0.24825,0.01375,-4.575e-05,-7.625e-05,0.00013725001,1741812259.282859
-0.006,-0.248,0.0145,-1.5250001e-05,-0.00016775,7.625e-05,1741812259.29756
-0.006,-0.247,0.0155,0.0,-0.000122000005,0.0,1741812259.312126
-0.00625,-0.247,0.0155,-0.00019825,0.000183,0.0,1741812259.326656
-0.00775,-0.2495,0.014,-0.0003205,0.0002595,3.0500001e-05,1741812259.341352
-0.00825,-0.25075,0.0135,-0.0002595,9.15e-05,6.1000002e-05,1741812259.355982
-0.006,-0.25075,0.01625,-0.00013725001,-6.1000002e-05,3.0500001e-05,1741812259.370645
-0.00425,-0.2505,0.017,0.0,-0.000122000005,-7.625e-05,1741812259.38559
-0.0035,-0.25,0.01675,3.0500001e-05,-1.5250001e-05,-3.0500001e-05,1741812259.399955
-0.00425,-0.24975,0.0155,6.1000002e-05,0.00016775,0.000122000005,1741812259.4157171
-0.0055,-0.2475,0.0135,0.00010675,4.575e-05,0.000122000005,1741812259.4291682
-0.00475,-0.246,0.01425,1.5250001e-05,-0.00013725001,0.00010675,1741812259.443737
-0.0055,-0.247,0.01525,-7.625e-05,-0.00016775,4.575e-05,1741812259.458567
-0.006,-0.2485,0.016,-9.15e-05,-0.0003815,-0.00013725001,1741812259.473312
-0.004,-0.2495,0.01925,-1.5250001e-05,-0.0003815,-0.000183,1741812259.48814
-0.00325,-0.2495,0.01975,0.0,-0.000229,-0.00016775,1741812259.502956
-0.004,-0.25025,0.01725,-0.000122000005,0.000183,0.0,1741812259.5180218
-0.00475,-0.24975,0.016,-0.000183,0.0003205,0.0001525,1741812259.532159
-0.00525,-0.2495,0.01525,-0.00013725001,0.00039675,0.00030525,1741812259.5467892
-0.00675,-0.2475,0.014,-1.5250001e-05,0.00030525,0.000229,1741812259.561551
-0.00775,-0.24675,0.014,9.15e-05,6.1000002e-05,7.625e-05,1741812259.576159
-0.007,-0.24625,0.0165,7.625e-05,3.0500001e-05,1.5250001e-05,1741812259.5906591
-0.007,-0.24725,0.01625,3.0500001e-05,0.00010675,-0.0002135,1741812259.6053371
-0.0065,-0.24975,0.0155,-3.0500001e-05,0.0002135,-0.00019825,1741812259.620068
-0.00625,-0.25025,0.0145,-9.15e-05,0.000229,-3.0500001e-05,1741812259.6355479
-0.00575,-0.24975,0.0125,-0.0001525,0.0002135,0.00010675,1741812259.6494699
-0.00525,-0.24925,0.0125,-0.00019825,9.15e-05,0.00016775,1741812259.665326
-0.0045,-0.24875,0.01475,-0.000122000005,-3.0500001e-05,-3.0500001e-05,1741812259.678902
-0.005,-0.25025,0.01575,-9.15e-05,0.0,-0.00036625,1741812259.693533
-0.0075,-0.2535,0.0155,-9.15e-05,4.575e-05,-0.00033575002,1741812259.708255
-0.00825,-0.2535,0.0155,6.1000002e-05,-1.5250001e-05,-0.00010675,1741812259.722948
-0.0085,-0.2515,0.01575,0.00019825,-7.625e-05,-9.15e-05,1741812259.737683
-0.00775,-0.251,0.01525,0.00027475,-0.00019825,-3.0500001e-05,1741812259.752348
-0.00525,-0.25,0.015,0.00024425,-0.00029,1.5250001e-05,1741812259.766838
-0.00425,-0.24975,0.01475,0.000183,-0.00042725,7.625e-05,1741812259.781497
-0.005,-0.25,0.01325,0.000183,-0.000473,0.0001525,1741812259.796035
-0.005,-0.24875,0.01375,0.0002135,-0.000534,0.0002135,1741812259.810666
-0.0045,-0.2475,0.01525,0.00033575002,-0.0005645,0.00010675,1741812259.82539
-0.005,-0.24775,0.0165,0.00033575002,-0.0005035,1.5250001e-05,1741812259.83994
-0.0045,-0.248,0.01675,0.00027475,-0.00036625,0.0,1741812259.85536
-0.0035,-0.24875,0.017,0.00019825,-0.00024425,3.0500001e-05,1741812259.869348
-0.00425,-0.24975,0.016,0.000122000005,1.5250001e-05,0.00010675,1741812259.884438
-0.0055,-0.2485,0.01525,0.00010675,0.0001525,0.00016775,1741812259.8984509
-0.00725,-0.249,0.0135,-6.1000002e-05,0.00029,0.00030525,1741812259.9132612
-0.0095,-0.24975,0.0115,-1.5250001e-05,0.000122000005,0.0003205,1741812259.927853
-0.008,-0.24875,0.013,0.00013725001,-0.000229,0.0002135,1741812259.942542
-0.0055,-0.2495,0.01425,0.000122000005,-0.00027475,0.00016775,1741812259.9571478
-0.005,-0.25,0.0145,0.0002135,-0.0003815,0.000122000005,1741812259.971647
-0.004,-0.249,0.01625,0.0002135,-0.00036625,0.0001525,1741812259.986356
-0.00525,-0.2495,0.0155,0.000229,-0.0003815,0.00019825,1741812260.000932
-0.00775,-0.24975,0.01375,0.00033575002,-0.000534,0.00019825,1741812260.01554
-0.00775,-0.2495,0.014,0.00059500005,-0.00096125,9.15e-05,1741812260.030163
-0.00425,-0.248,0.0165,0.00068675,-0.00108325,4.575e-05,1741812260.045768
-0.00075,-0.247,0.01875,0.00074775,-0.001007,-6.1000002e-05,1741812260.0593128
-0.00125,-0.249,0.01475,0.00074775,-0.00035100002,-0.0002595,1741812260.0757608
-0.003,-0.2495,0.01275,0.00070200005,-0.00010675,-0.00016775,1741812260.088716
-0.00375,-0.248,0.0125,0.00074775,-0.000122000005,-7.625e-05,1741812260.104765
-0.0065,-0.2475,0.01,0.00064075,-0.0001525,-6.1000002e-05,1741812260.118005
-0.007,-0.24725,0.01,0.00035100002,-0.00016775,7.625e-05,1741812260.13268
-0.005,-0.246,0.01325,0.000183,-0.0001525,0.00013725001,1741812260.147309
-0.00425,-0.24675,0.01425,-9.15e-05,4.575e-05,0.00010675,1741812260.16192
-0.0055,-0.25025,0.0125,-0.00013725001,0.00013725001,0.0,1741812260.176525
-0.00575,-0.25125,0.01175,-0.0001525,9.15e-05,1.5250001e-05,1741812260.191136
-0.004,-0.251,0.012,-0.000122000005,4.575e-05,0.00010675,1741812260.205735
-0.004,-0.2505,0.01125,-0.00010675,3.0500001e-05,0.0004425,1741812260.220216
-0.00425,-0.2485,0.01075,-6.1000002e-05,-1.5250001e-05,0.00051875,1741812260.235451
-0.005,-0.247,0.011,-3.0500001e-05,-0.00013725001,0.00027475,1741812260.249543
-0.00575,-0.2465,0.01325,-0.000122000005,-0.000122000005,6.1000002e-05,1741812260.2653508
-0.006,-0.24775,0.0145,-0.0002595,-1.5250001e-05,-0.00029,1741812260.2790122
-0.00575,-0.25075,0.016,-0.00030525,0.00010675,-0.00027475,1741812260.293764
-0.0055,-0.252,0.01575,-0.00030525,0.0002135,-0.0001525,1741812260.30855
-0.00625,-0.25225,0.014,-0.00010675,0.00016775,0.000122000005,1741812260.3231318
-0.00575,-0.2515,0.0135,1.5250001e-05,4.575e-05,0.0002135,1741812260.337659
-0.00475,-0.25075,0.013,0.000229,-0.00029,0.000183,1741812260.352256
-0.00075,-0.24775,0.0145,0.000229,-0.00035100002,0.00013725001,1741812260.367054
-0.00025,-0.2475,0.01425,-1.5250001e-05,-7.625e-05,7.625e-05,1741812260.38173
-0.003,-0.2485,0.012,-7.625e-05,-4.575e-05,6.1000002e-05,1741812260.396428
-0.004,-0.24775,0.01275,-0.00010675,-0.00016775,4.575e-05,1741812260.41115
-0.00575,-0.2485,0.015,-0.0001525,-0.000183,3.0500001e-05,1741812260.425855
-0.006,-0.24925,0.0155,-0.00013725001,-0.000183,7.625e-05,1741812260.440566
-0.00575,-0.24875,0.0145,-0.0001525,-0.00013725001,0.0002135,1741812260.455442
-0.00475,-0.24725,0.01425,-0.0001525,1.5250001e-05,0.00029,1741812260.469728
-0.00425,-0.24625,0.01225,-0.00013725001,4.575e-05,0.00016775,1741812260.485467
-0.004,-0.24675,0.01225,-0.00016775,0.0,-3.0500001e-05,1741812260.499097
-0.0035,-0.24775,0.01325,-0.000183,0.0,-0.00010675,1741812260.5153868
-0.00425,-0.24875,0.01225,-0.000229,-1.5250001e-05,-9.15e-05,1741812260.528657
-0.004,-0.249,0.01375,-0.00029,-9.15e-05,1.5250001e-05,1741812260.543346
-0.00325,-0.24875,0.01575,-0.0002135,-0.0001525,3.0500001e-05,1741812260.558045
-0.00275,-0.24925,0.016,-0.00016775,-4.575e-05,-3.0500001e-05,1741812260.572719
-0.00275,-0.249,0.01525,-0.00016775,7.625e-05,0.00013725001,1741812260.587438
-0.00275,-0.2475,0.01425,-0.00019825,4.575e-05,0.000229,1741812260.602043
-0.00375,-0.2475,0.0135,-0.000229,4.575e-05,0.00019825,1741812260.616571
-0.00675,-0.24925,0.01325,-0.00029,6.1000002e-05,0.0,1741812260.6311731
-0.00675,-0.2495,0.01475,-0.00027475,4.575e-05,-7.625e-05,1741812260.645857
-0.00625,-0.25,0.015,-0.00019825,0.00016775,-6.1000002e-05,1741812260.6605718
-0.006,-0.251,0.0135,-0.00010675,0.0002135,1.5250001e-05,1741812260.675343
-0.0055,-0.24975,0.01275,-6.1000002e-05,0.0002595,0.000183,1741812260.689982
-0.00575,-0.24825,0.01075,-9.15e-05,0.00024425,0.00016775,1741812260.7051258
-0.006,-0.24775,0.01075,-0.000122000005,1.5250001e-05,-0.0001525,1741812260.719339
-0.0035,-0.24875,0.014,-0.000183,-3.0500001e-05,-0.0003205,1741812260.735449
-0.0035,-0.2515,0.01425,-0.00024425,1.5250001e-05,-0.00039675,1741812260.748897
-0.0055,-0.255,0.0135,-0.0001525,-4.575e-05,-0.00024425,1741812260.765526
-0.00525,-0.2535,0.01475,0.00010675,-0.000183,0.00013725001,1741812260.778153
-0.0055,-0.2505,0.0145,0.0001525,-0.00016775,0.00024425,1741812260.792789
-0.00475,-0.24925,0.014,0.000122000005,-0.000122000005,0.0002595,1741812260.807363
-0.002,-0.247,0.014,6.1000002e-05,-3.0500001e-05,0.0001525,1741812260.821953
-0.003,-0.24775,0.0125,-4.575e-05,4.575e-05,-3.0500001e-05,1741812260.836691
-0.00425,-0.24775,0.01175,-4.575e-05,0.0,-3.0500001e-05,1741812260.851347
-0.00425,-0.2475,0.01275,-0.00010675,-6.1000002e-05,-1.5250001e-05,1741812260.866126
-0.005,-0.24825,0.01375,-0.00010675,-0.0001525,-6.1000002e-05,1741812260.880882
-0.0035,-0.248,0.0155,-6.1000002e-05,-0.00024425,-6.1000002e-05,1741812260.895744
-0.00125,-0.24725,0.01775,-6.1000002e-05,-0.000122000005,-3.0500001e-05,1741812260.91042
-0.00175,-0.24725,0.0165,-0.00016775,0.00027475,9.15e-05,1741812260.9252071
-0.0045,-0.24725,0.0125,-0.00027475,0.0003815,0.00016775,1741812260.939542
-0.00675,-0.24775,0.01075,-0.00035100002,0.00035100002,0.0002135,1741812260.955327
-0.00875,-0.249,0.01,-0.0003205,-3.0500001e-05,0.00019825,1741812260.968853
-0.0085,-0.2495,0.01225,-0.0002135,-0.00027475,0.00016775,1741812260.983551
-0.006,-0.24875,0.01525,-0.0001525,-0.00054925,0.000122000005,1741812260.998167
-0.0,-0.249,0.019,-0.00019825,-0.00045775,4.575e-05,1741812261.012884
0.00125,-0.24975,0.01875,-0.00016775,6.1000002e-05,-0.0001525,1741812261.027522
-0.00175,-0.25225,0.01425,-0.00016775,0.00036625,-0.000122000005,1741812261.042343
-0.00525,-0.25275,0.0115,-4.575e-05,0.0003205,1.5250001e-05,1741812261.057059
-0.008,-0.25,0.00975,1.5250001e-05,9.15e-05,6.1000002e-05,1741812261.071553
-0.007,-0.2485,0.011,4.575e-05,-0.00030525,-3.0500001e-05,1741812261.0864909
-0.00375,-0.24725,0.01475,-1.5250001e-05,-0.00030525,-7.625e-05,1741812261.1012611
-0.00275,-0.24775,0.01575,-9.15e-05,-0.00013725001,-0.000122000005,1741812261.116042
-0.00325,-0.24925,0.01525,-9.15e-05,-6.1000002e-05,-0.000122000005,1741812261.1308448
-0.00475,-0.25025,0.01325,-6.1000002e-05,-4.575e-05,1.5250001e-05,1741812261.145619
-0.00625,-0.2495,0.011,-3.0500001e-05,-0.0002135,0.0001525,1741812261.1603358
-0.005,-0.248,0.0125,4.575e-05,-0.0005645,0.00016775,1741812261.1755788
-0.0015,-0.246,0.01625,4.575e-05,-0.000534,1.5250001e-05,1741812261.189775
-0.00125,-0.2475,0.01625,-0.000183,-0.0001525,-0.00010675,1741812261.205326
-0.003,-0.25025,0.01425,-0.0002135,-3.0500001e-05,-6.1000002e-05,1741812261.219318
-0.00325,-0.25,0.015,-9.15e-05,-7.625e-05,-4.575e-05,1741812261.234921
-0.0045,-0.24925,0.016,-7.625e-05,-7.625e-05,-6.1000002e-05,1741812261.2490208
-0.0065,-0.2505,0.0145,1.5250001e-05,-0.000122000005,-3.0500001e-05,1741812261.263745
-0.00825,-0.25125,0.01225,0.00013725001,-0.00024425,6.1000002e-05,1741812261.278322
-0.006,-0.25,0.0135,0.00030525,-0.00042725,0.0003205,1741812261.292901
0.001,-0.24825,0.01625,0.0003205,-0.0004425,0.0003205,1741812261.3074691
0.00225,-0.24875,0.01575,0.00027475,-0.000412,0.0002595,1741812261.321972
0.002,-0.249,0.01525,0.00010675,-0.00024425,0.000229,1741812261.336447
-0.0015,-0.24925,0.0135,6.1000002e-05,-0.000183,0.00019825,1741812261.3509529
-0.004,-0.24875,0.01275,-1.5250001e-05,-0.000183,0.000183,1741812261.365728
-0.0055,-0.2465,0.015,-7.625e-05,-0.000122000005,0.000183,1741812261.3804228
-0.00625,-0.247,0.015,-0.0002135,-1.5250001e-05,0.00010675,1741812261.3955069
-0.007,-0.24925,0.014,-0.00024425,4.575e-05,0.00013725001,1741812261.4097269
-0.00525,-0.24925,0.0145,-0.0001525,6.1000002e-05,0.000122000005,1741812261.425483
-0.00325,-0.24825,0.01425,-7.625e-05,7.625e-05,4.575e-05,1741812261.439111
-0.00325,-0.24775,0.01325,-9.15e-05,0.00010675,-6.1000002e-05,1741812261.455405
-0.0045,-0.248,0.0115,-0.000183,7.625e-05,-6.1000002e-05,1741812261.468508
-0.00475,-0.24825,0.012,-0.0002595,-3.0500001e-05,-7.625e-05,1741812261.483253
-0.00375,-0.24925,0.01375,-0.0002595,-4.575e-05,-6.1000002e-05,1741812261.498027
-0.00275,-0.2495,0.015,-0.000229,0.0,-4.575e-05,1741812261.5126941
-0.0025,-0.25,0.0155,-0.0001525,0.0,-9.15e-05,1741812261.527333
-0.00275,-0.25,0.01475,-0.00010675,-1.5250001e-05,-7.625e-05,1741812261.5421581
-0.0035,-0.2495,0.01425,-0.000183,0.0,0.0,1741812261.556767
-0.00375,-0.24975,0.014,-0.0002135,0.0,4.575e-05,1741812261.571247
-0.00375,-0.251,0.01425,-0.000229,-6.1000002e-05,4.575e-05,1741812261.5859652
-0.003,-0.251,0.0155,-0.000229,-0.000122000005,3.0500001e-05,1741812261.60066
-0.0025,-0.251,0.01625,-0.00016775,-0.0001525,0.0,1741812261.615308
-0.00275,-0.251,0.01525,-0.00013725001,-0.00016775,7.625e-05,1741812261.6300302
-0.00275,-0.25025,0.0155,-1.5250001e-05,-0.000229,0.0001525,1741812261.6453571
-0.00275,-0.248,0.01625,0.0,-0.000183,0.000122000005,1741812261.659253
-0.00375,-0.2475,0.01575,-4.575e-05,-3.0500001e-05,6.1000002e-05,1741812261.6754718
-0.0055,-0.2475,0.01375,-3.0500001e-05,1.5250001e-05,0.0,1741812261.6885278
-0.00575,-0.24675,0.0135,-0.00016775,4.575e-05,0.0,1741812261.7031019
-0.004,-0.247,0.01375,-0.00024425,4.575e-05,0.0,1741812261.717737
-0.00275,-0.24675,0.01475,-0.000229,4.575e-05,-0.00024425,1741812261.732336
-0.00275,-0.24875,0.0165,-0.0002595,0.00013725001,-0.0003815,1741812261.7470021
-0.00425,-0.25075,0.016,-0.0002135,0.00019825,-0.00042725,1741812261.761707
-0.00425,-0.251,0.0165,-0.00013725001,0.00016775,-0.00030525,1741812261.776305
-0.003,-0.25025,0.01675,-0.00013725001,0.00035100002,3.0500001e-05,1741812261.790931
-0.00425,-0.2495,0.01225,-0.00010675,0.00035100002,0.00013725001,1741812261.80556
-0.0045,-0.2475,0.01175,3.0500001e-05,4.575e-05,1.5250001e-05,1741812261.820224
-0.00375,-0.2475,0.01425,-3.0500001e-05,-6.1000002e-05,-0.00016775,1741812261.835864
-0.0035,-0.24975,0.0155,-0.00010675,-0.00013725001,-0.0003205,1741812261.852288
-0.00225,-0.2525,0.01725,-0.00016775,-1.5250001e-05,-0.00030525,1741812261.868618
-0.002,-0.25225,0.0165,-0.00019825,0.00016775,-7.625e-05,1741812261.879582
-0.00325,-0.2485,0.014,-9.15e-05,0.0003815,0.0002135,1741812261.896747
-0.005,-0.24725,0.01225,-6.1000002e-05,0.00036625,0.0001525,1741812261.911551
-0.00675,-0.247,0.0115,0.0,0.0,-0.00019825,1741812261.9325418
-0.00425,-0.247,0.01575,1.5250001e-05,-0.000122000005,-0.00035100002,1741812261.938661
-0.00325,-0.24825,0.01675,-1.5250001e-05,6.1000002e-05,-0.00039675,1741812261.9528651
-0.004,-0.24975,0.0145,-6.1000002e-05,0.0001525,-0.00024425,1741812261.96733
-0.0035,-0.249,0.01475,-9.15e-05,0.0001525,-1.5250001e-05,1741812261.9820511
-0.003,-0.2485,0.0145,-0.0001525,0.000183,-3.0500001e-05,1741812261.996639
-0.00375,-0.24975,0.01375,-0.0002595,0.00010675,-7.625e-05,1741812262.0114272
-0.0035,-0.2495,0.0145,-0.0002135,1.5250001e-05,-0.000122000005,1741812262.026037
-0.00225,-0.24825,0.0165,-0.0001525,0.00019825,-0.0001525,1741812262.0407429
-0.00425,-0.2485,0.0165,-0.00019825,0.00036625,-0.00019825,1741812262.0553331
-0.0065,-0.25,0.015,-0.00027475,0.00036625,-0.00013725001,1741812262.070064
-0.00575,-0.2495,0.0175,-0.0001525,0.0002135,-0.000183,1741812262.0853739
