acc_x,acc_y,acc_z,gyro_x,gyro_y,gyro_z,timestamp
-0.02825,-0.0015,0.24925,0.00051875,0.000229,-0.00019825,1742093807.095685
-0.02825,-0.00225,0.25025,0.00027475,0.0002595,-6.1000002e-05,1742093807.110023
-0.0285,-0.002,0.251,0.000229,0.000183,-3.0500001e-05,1742093807.124498
-0.02975,-0.00125,0.2505,0.00035100002,0.000122000005,-3.0500001e-05,1742093807.139095
-0.02925,-0.001,0.25075,0.00065625,9.15e-05,-3.0500001e-05,1742093807.153555
-0.0275,-0.00125,0.24975,0.00071725,0.0001525,-3.0500001e-05,1742093807.168541
-0.0275,-0.002,0.249,0.00042725,0.000229,-3.0500001e-05,1742093807.182512
-0.02775,-0.0025,0.24925,0.0001525,0.00019825,3.0500001e-05,1742093807.1969228
-0.02775,-0.0025,0.25,-0.00033575002,1.5250001e-05,0.00010675,1742093807.211308
-0.0285,-0.003,0.2495,-0.00048825,-6.1000002e-05,0.00010675,1742093807.226366
-0.029,-0.00275,0.24925,-0.00064075,-0.000122000005,9.15e-05,1742093807.240426
-0.0295,-0.0025,0.24925,-0.00071725,-0.000412,-3.0500001e-05,1742093807.255015
-0.029,-0.00175,0.25025,-0.00068675,-0.00057975,-6.1000002e-05,1742093807.2696571
-0.02875,-0.00125,0.25075,-0.0005035,-0.00067150005,-3.0500001e-05,1742093807.284279
-0.03,0.00025,0.25075,-0.00039675,-0.00065625,3.0500001e-05,1742093807.298752
-0.03025,0.00075,0.25125,-0.000122000005,-0.00086975005,1.5250001e-05,1742093807.313282
-0.02925,0.002,0.25725,0.00027475,-0.00093075,-6.1000002e-05,1742093807.327669
-0.025,-0.00075,0.27125,0.00393675,0.00204475,0.0001525,1742093807.342219
0.06525,-0.06,0.439,0.0089875,0.0071409997,0.00051875,1742093807.356395
0.1415,-0.099,0.668,0.01513675,0.015686,0.00198375,1742093807.3706088
0.18375,-0.096,0.903,0.025115998,0.0681915,0.007599,1742093807.38491
0.0355,-0.02725,1.0,0.02354425,0.1152955,0.00352475,1742093807.399179
-0.1045,-0.022,1.0,0.00270075,0.20349126,-0.023834249,1742093807.4136178
-0.28725,-0.0355,0.84225,-0.0012970001,0.2282715,-0.039306752,1742093807.4282072
-0.29775,0.0235,0.663,0.015396,0.22793575,-0.0578155,1742093807.4425092
-0.2595,0.18225,0.27525,0.022186251,0.20759575,-0.0572815,1742093807.457872
-0.271,0.18025,0.0715,0.032669,0.16088875,-0.026474,1742093807.471349
-0.2925,0.081,-0.344,0.035949748,0.144455,-0.00440975,1742093807.48688
-0.26375,0.04125,-0.44175,0.03392025,0.129303,0.01210025,1742093807.500195
-0.22825,0.01425,-0.455,0.0236665,0.08630375,0.0222625,1742093807.514533
-0.16825,-0.03875,-0.3815,0.018020751,0.06324775,0.02183525,1742093807.529027
-0.11575,-0.0375,-0.326,0.0060425,0.02471925,0.0195465,1742093807.543477
0.01025,-0.015,-0.223,0.0022735,0.00941475,0.0172425,1742093807.5579488
0.06825,-0.0225,-0.168,-0.0007325,-0.013092,0.0139465,1742093807.572551
0.17575,-0.031,-0.02675,0.00039675,-0.01937875,0.011734,1742093807.5871732
0.21225,-0.02425,0.01775,0.00225825,-0.0210725,0.008285499,1742093807.6014569
0.2385,-0.0285,0.03775,0.0049285004,-0.0192565,0.00149525,1742093807.617152
0.2635,-0.05425,0.033,0.0056609996,-0.01896675,0.0002595,1742093807.630355
0.265,-0.051,0.0205,0.0071409997,-0.02247625,-0.00096125,1742093807.644803
0.263,-0.05075,0.0105,0.00723275,-0.024582,-0.00177,1742093807.659269
0.2485,-0.0505,-0.0005,0.00276175,-0.0275115,-0.00030525,1742093807.6739001
0.2425,-0.03525,0.003,-0.00030525,-0.029220501,0.0015105,1742093807.688311
0.239,-0.025,0.01375,-0.0037385002,-0.033264253,0.00367725,1742093807.7027562
0.22575,-0.01025,0.03575,-0.0057220003,-0.034668,0.0040435,1742093807.717262
0.227,-0.016,0.0465,-0.0075835,-0.035049498,0.00440975,1742093807.731759
0.22675,-0.02625,0.05325,-0.0080872495,-0.03601075,0.0060272496,1742093807.746963
0.21825,-0.032,0.05825,-0.00782775,-0.037201,0.0072785,1742093807.760755
0.2125,-0.0285,0.05825,-0.008514499,-0.039734002,0.010513251,1742093807.775294
0.194,-0.027,0.06075,-0.0078125,-0.041366503,0.010314999,1742093807.7897851
0.191,-0.02775,0.07525,-0.0021515,-0.04512025,0.00621025,1742093807.8042738
0.193,-0.0195,0.1165,0.00096125,-0.046081502,0.0037537501,1742093807.818667
0.194,-0.01425,0.133,0.00402825,-0.0462495,-0.001114,1742093807.833256
0.192,-0.0065,0.1505,0.0033875,-0.044693,-0.0028229998,1742093807.847769
0.18425,-0.00675,0.144,0.0020905002,-0.04258725,-0.00317375,1742093807.862303
0.15775,-0.01925,0.13025,-0.001236,-0.042724498,1.5250001e-05,1742093807.877332
0.153,-0.03275,0.144,-0.0028687501,-0.04458625,0.0026854998,1742093807.891283
0.158,-0.0415,0.17125,-0.00231925,-0.045868002,0.00617975,1742093807.905777
0.17175,-0.03225,0.22125,0.00013725001,-0.04505925,0.005783,1742093807.920191
0.17125,-0.02025,0.23225,0.00428775,-0.0401765,0.00157175,1742093807.934485
0.151,0.004,0.22925,0.0047302498,-0.03683475,-0.000824,1742093807.9489431
0.143,0.005,0.21725,0.00193775,-0.032333247,-0.00187675,1742093807.963352
0.12825,-0.0055,0.19475,-0.00146475,-0.031845,-0.0005035,1742093807.977845
0.11675,-0.0145,0.19075,-0.0043944996,-0.032394502,0.001114,1742093807.992297
0.1095,-0.02725,0.19625,-0.0038299998,-0.03489675,0.0013580001,1742093808.008439
0.117,-0.0335,0.2385,-0.00068675,-0.03521725,0.000473,1742093808.0212748
0.121,-0.02475,0.257,0.00561525,-0.03250125,-0.0009155,1742093808.03726
0.10475,-0.00475,0.25525,0.0065917503,-0.0309905,-0.0025787498,1742093808.0502698
0.094,-0.0005,0.2445,0.0028687501,-0.03012075,-0.0061339997,1742093808.064679
0.0755,-0.011,0.2265,0.00067150005,-0.030838,-0.00631725,1742093808.079232
0.067,-0.0235,0.22275,-0.00096125,-0.0343475,-0.0034790002,1742093808.093746
0.06275,-0.036,0.237,-0.00115975,-0.036026,-0.0021819999,1742093808.108906
0.0615,-0.0295,0.25075,-0.00093075,-0.0368195,-0.0017395001,1742093808.12285
0.04375,-0.01575,0.26475,0.002121,-0.03686525,-0.00390625,1742093808.137252
0.025,-0.01075,0.26325,0.0039825,-0.037155252,-0.0058899997,1742093808.151785
0.007,-0.0085,0.25625,0.004837,-0.038208,-0.008727999,1742093808.166637
-0.01025,-0.02375,0.234,0.00328075,-0.0395965,-0.008606,1742093808.180827
-0.01725,-0.02925,0.23025,-0.00157175,-0.04492175,-0.00640875,1742093808.1965382
-0.02875,-0.03975,0.2525,-0.0031585,-0.04653925,-0.0065155,1742093808.2102342
-0.026,-0.0545,0.307,-0.003891,-0.043686002,-0.00770575,1742093808.2248058
0.107,-0.1365,0.6145,-0.00325,-0.03508,-0.00541675,1742093808.2393532
0.27025,-0.15775,0.86425,0.005005,0.01187125,0.01374825,1742093808.2536
0.41725,0.08275,1.0,0.012024,0.05429075,0.02417,1742093808.2681139
0.18675,0.168,1.0,0.013290499,0.10803225,0.026519751,1742093808.28195
-0.0595,0.11625,0.99425,-0.022491502,0.2092285,0.0028074998,1742093808.297266
-0.24825,-0.1325,0.87,-0.034652747,0.23237601,-0.01731875,1742093808.310961
-0.313,-0.0965,0.73275,0.00146475,0.22221375,-0.061462503,1742093808.3268852
-0.50075,0.10975,0.31775,0.0266875,0.20697024,-0.07144175,1742093808.3398988
-0.569,0.069,0.03675,0.039672747,0.17997749,-0.0395965,1742093808.35425
-0.556,-0.09575,-0.5615,0.034179747,0.161209,-0.01091,1742093808.368842
-0.4775,-0.09275,-0.70725,0.026840251,0.12925725,0.010803251,1742093808.383252
-0.3695,-0.033,-0.68075,0.014206001,0.04638675,0.01705925,1742093808.39776
-0.14625,0.073,-0.372,0.011031999,0.01463325,0.008926501,1742093808.4122071
-0.04375,0.07425,-0.23375,0.010849,-0.018310498,-0.00637825,1742093808.4271832
0.1315,0.02125,-0.05775,0.00891125,-0.025406,-0.008346501,1742093808.441279
0.1975,-0.0125,0.003,-0.005539,-0.02948,-0.00096125,1742093808.455751
0.30025,-0.05,0.11075,-0.012313751,-0.02835075,0.00367725,1742093808.470258
0.333,-0.06225,0.14975,-0.00985725,-0.02409375,0.0034484998,1742093808.484778
0.345,-0.095,0.1675,-0.00460825,-0.01982125,0.000534,1742093808.499226
0.32575,-0.10725,0.13775,-0.000946,-0.013641249,-0.00090025004,1742093808.513813
0.27,-0.109,0.0525,0.0015565,-0.0041044997,0.001175,1742093808.52819
0.251,-0.106,0.02725,0.00146475,-0.00331125,0.003296,1742093808.54252
0.23625,-0.10025,0.016,-0.00086975005,-0.0061035,0.00741575,1742093808.558701
0.221,-0.077,0.0165,-0.002121,-0.0078125,0.0085755,1742093808.5713868
0.21525,-0.06175,0.02125,-0.0028229998,-0.0106965,0.00852975,1742093808.587428
0.21125,-0.0475,0.02925,-0.0025634998,-0.012054499,0.0077667497,1742093808.600259
0.20925,-0.0445,0.03225,-0.0016632499,-0.01576225,0.00640875,1742093808.614763
0.201,-0.03525,0.0335,-0.0011445,-0.018035999,0.00585925,1742093808.629259
0.19425,-0.03125,0.031,-0.00027475,-0.020629998,0.0051574996,1742093808.643774
0.19025,-0.02975,0.03,0.00149525,-0.02778625,0.0036010002,1742093808.658688
0.1935,-0.0215,0.04775,0.001648,-0.0309905,0.0034484998,1742093808.6724532
0.19575,-0.00875,0.0625,0.0005035,-0.033615,0.00354,1742093808.6877298
0.19325,-0.00375,0.0855,-0.00059500005,-0.0331725,0.0033264998,1742093808.701411
0.1945,-0.01975,0.09125,-0.0030365,-0.032318,0.00520325,1742093808.71684
0.1865,-0.0405,0.09525,-0.0040587503,-0.03297425,0.00717175,1742093808.730473
0.17575,-0.03925,0.09175,-0.00416575,-0.037063498,0.009262,1742093808.7450671
0.15475,-0.03475,0.08525,-0.0033875,-0.04037475,0.00891125,1742093808.759594
0.14975,-0.031,0.09425,-0.00225825,-0.0439605,0.00767525,1742093808.774056
0.15175,-0.0255,0.11525,0.000885,-0.049133252,0.0029145,1742093808.788451
0.16775,-0.01475,0.17625,0.00213625,-0.04885875,-0.00013725001,1742093808.803008
0.176,-0.01625,0.2015,0.00328075,-0.0420685,-0.0052337497,1742093808.8176022
0.16675,-0.02425,0.2115,0.0027160002,-0.03866575,-0.006256,1742093808.8320289
0.1525,-0.02975,0.1995,-0.0026854998,-0.036514252,-0.0035704998,1742093808.8473642
0.1185,-0.03925,0.17575,-0.0057372497,-0.037704498,3.0500001e-05,1742093808.861013
0.10925,-0.0425,0.176,-0.0084379995,-0.0424805,0.00381475,1742093808.876961
0.1315,-0.04525,0.2255,-0.0072175004,-0.04408275,0.0028074998,1742093808.890006
0.14875,-0.04175,0.2585,-0.00416575,-0.04382325,0.000885,1742093808.904536
0.1465,-0.0165,0.28575,0.0035095,-0.03800975,-0.0037537501,1742093808.919016
0.13125,-0.0055,0.278,0.0042267498,-0.03430175,-0.0055237496,1742093808.933475
0.1155,-0.006,0.26325,-0.002884,-0.0298615,-0.0043944996,1742093808.948137
0.08675,-0.03075,0.2395,-0.0072937496,-0.029876752,-0.00160225,1742093808.962618
0.07725,-0.0405,0.2395,-0.009262,-0.03259275,0.0020752498,1742093808.977341
0.0785,-0.038,0.258,-0.00694275,-0.03395075,0.00105275,1742093808.99146
0.079,-0.03225,0.268,-0.00059500005,-0.034973253,-0.00314325,1742093809.0061681
0.065,-0.01825,0.2715,0.00131225,-0.03550725,-0.0045777503,1742093809.020555
0.05,-0.01325,0.2635,0.001526,-0.036560003,-0.0049285004,1742093809.035028
0.01775,-0.01225,0.25025,-0.0013275,-0.03933725,-0.0048217503,1742093809.04952
0.00875,-0.01325,0.2425,-0.00245675,-0.04090875,-0.00520325,1742093809.06409
-0.00075,-0.0175,0.237,-0.00416575,-0.046112,-0.00393675,1742093809.078752
-0.01675,-0.0225,0.246,-0.0055237496,-0.048828,-0.0038757501,1742093809.093447
-0.01775,-0.0285,0.264,-0.007965,-0.05075075,-0.006836,1742093809.1081758
0.01275,-0.0715,0.3835,-0.00868225,-0.049408,-0.00737,1742093809.122695
0.08975,-0.11125,0.537,-0.0071409997,-0.03138725,-0.00093075,1742093809.1374779
0.351,-0.0975,0.959,-0.0025787498,-0.01054375,0.0050355,1742093809.151763
0.37625,-0.01525,1.0,0.017334,0.07604975,0.013839751,1742093809.167427
0.0365,0.0505,1.0,0.01741025,0.13444525,0.0111085,1742093809.1802518
-0.14475,0.00175,0.9935,0.0059205,0.185379,0.00296025,1742093809.194567
-0.26525,-0.0735,0.96725,0.00708,0.23370351,-0.012802,1742093809.209028
-0.37875,-0.0405,0.74375,0.02961725,0.2354735,-0.017746,1742093809.223488
-0.45025,0.081,0.52525,0.05581675,0.2253875,-0.027526751,1742093809.237891
-0.5835,0.02225,-0.06,0.04550175,0.21130376,-0.02389525,1742093809.252425
-0.5885,-0.00375,-0.36675,0.034225497,0.1586915,0.00354,1742093809.267381
-0.48575,0.04725,-0.79825,0.0319215,0.1174775,0.014618,1742093809.281331
-0.37925,0.09125,-0.76225,0.0066374997,0.03323375,0.0203095,1742093809.29751
-0.15475,0.16025,-0.401,-0.00024425,0.0016632499,0.0112,1742093809.3101141
-0.05225,0.11075,-0.2455,0.0005035,-0.019714251,-0.0024414998,1742093809.32462
0.05825,0.0385,-0.1225,0.0045165,-0.04078675,-0.018615749,1742093809.3389802
0.26075,-0.06625,0.0935,0.0021972498,-0.04359425,-0.01722725,1742093809.353448
0.32725,-0.1015,0.16175,-0.009445249,-0.032669,-0.0029449998,1742093809.368057
0.35825,-0.11175,0.1765,-0.01136775,-0.02388,0.00364675,1742093809.382452
0.3425,-0.10175,0.14925,-0.00564575,-0.015029999,0.0059815003,1742093809.3976572
0.31175,-0.1015,0.09175,-0.0022125002,-0.01367175,0.00416575,1742093809.4115021
0.29325,-0.09475,0.0665,0.000534,-0.009277251,0.00325,1742093809.427519
0.2565,-0.07125,0.038,-0.00067150005,-0.0067445002,0.0046539996,1742093809.44023
0.2475,-0.064,0.036,-0.0022125002,-0.00541675,0.00614925,1742093809.454756
0.23975,-0.066,0.02925,-0.0036010002,-0.0061645,0.0075377496,1742093809.4692302
0.21925,-0.06375,0.0065,-0.00390625,-0.0074004997,0.007553,1742093809.483644
0.21025,-0.05275,0.0015,-0.00437925,-0.010437001,0.0067902496,1742093809.498152
0.20475,-0.02425,0.01175,-0.0041044997,-0.012313751,0.00567625,1742093809.5126212
0.2035,-0.015,0.0165,-0.002655,-0.01728825,0.0020752498,1742093809.527495
0.19425,-0.02225,0.01925,-0.0020295,-0.02015675,0.00051875,1742093809.5416331
0.18875,-0.0305,0.022,-0.0017242499,-0.023101749,-0.00030525,1742093809.557981
0.18825,-0.03125,0.04175,-0.002411,-0.02876275,6.1000002e-05,1742093809.5706828
0.1925,-0.025,0.0555,-0.00372325,-0.03111275,0.0007325,1742093809.585247
0.19625,-0.022,0.06825,-0.0075682504,-0.0345765,0.00296025,1742093809.599756
0.194,-0.034,0.07775,-0.00833125,-0.035949748,0.0036010002,1742093809.614232
0.18725,-0.0405,0.0775,-0.00570675,-0.03878775,0.0033264998,1742093809.628736
0.1775,-0.0345,0.082,-0.0044555003,-0.040664747,0.0028535,1742093809.643244
0.1735,-0.031,0.093,-0.0048065,-0.044128504,0.00163275,1742093809.6582751
0.1645,-0.0455,0.124,-0.004837,-0.045776248,0.00045775,1742093809.672268
0.16125,-0.05425,0.14025,-0.0036162501,-0.04875175,-0.0017395001,1742093809.687614
0.16125,-0.05675,0.15925,-0.00355525,-0.05055225,-0.0021057501,1742093809.7013319
0.15875,-0.05025,0.17075,-0.0047150003,-0.052948,-0.00198375,1742093809.71683
0.15525,-0.03575,0.1855,-0.0069580004,-0.0542755,-0.00080875,1742093809.730471
0.15175,0.003,0.20475,-0.0071105,-0.05030825,9.15e-05,1742093809.744918
0.14425,0.0065,0.21025,-0.0075835,-0.040954497,-0.00030525,1742093809.759431
0.13825,-0.0305,0.2285,-0.007843,-0.039276,-0.001068,1742093809.7740421
0.1345,-0.04175,0.23625,-0.0067445002,-0.03848275,-0.00070200005,1742093809.788553
0.1245,-0.04375,0.2495,-0.0054015,-0.037735,-0.00059500005,1742093809.80305
0.1225,-0.0385,0.25725,-0.001831,-0.034179747,-0.0017852499,1742093809.817565
0.11125,-0.017,0.2595,6.1000002e-05,-0.03215025,-0.0028687501,1742093809.831978
0.10525,-0.011,0.25425,0.0013427499,-0.031036502,-0.0036010002,1742093809.846977
0.10075,-0.01425,0.24775,-0.00016775,-0.0309905,-0.00314325,1742093809.8610198
0.088,-0.02975,0.2435,-0.0021819999,-0.030548,-0.0022735,1742093809.8772311
0.07775,-0.03425,0.246,-0.00381475,-0.02905275,-0.00067150005,1742093809.890039
0.0575,-0.04075,0.25,-0.002884,-0.028900249,-0.00080875,1742093809.904522
0.05175,-0.04225,0.25025,-9.15e-05,-0.03047175,-0.00184625,1742093809.919054
0.03675,-0.02575,0.24475,0.001068,-0.0319215,-0.00225825,1742093809.933509
0.0305,-0.02375,0.23775,0.0020599999,-0.03524775,-0.0031585,1742093809.947936
0.021,-0.02725,0.24075,0.0018615,-0.03648375,-0.00416575,1742093809.962378
0.01675,-0.02975,0.24875,0.0020295,-0.036987253,-0.0046234997,1742093809.977107
0.00775,-0.03125,0.25525,0.0025634998,-0.03733825,-0.00408925,1742093809.991391
-0.013,-0.04225,0.26125,0.00154125,-0.038025003,-0.00428775,1742093810.006005
-0.02325,-0.04525,0.26725,-0.00340275,-0.04188525,-0.00491325,1742093810.02061
-0.036,-0.0495,0.305,-0.0056915004,-0.043975748,-0.0047150003,1742093810.0352829
-0.02025,-0.07275,0.359,-0.00862125,-0.04002375,-0.00193775,1742093810.049869
0.08575,-0.15075,0.62225,-0.0079955,-0.03070075,0.002655,1742093810.064268
0.18425,-0.153,0.825,0.0004425,0.007782,0.016861,1742093810.078557
0.2655,0.01,1.0,0.009734999,0.044540502,0.021179251,1742093810.092781
0.13525,0.0505,1.0,0.018463248,0.09259025,0.018875,1742093810.108257
-0.028,0.01225,1.0,0.009002751,0.18865974,-0.0027312501,1742093810.1212769
-0.295,-0.083,0.9625,0.00794975,0.222931,-0.0115205,1742093810.137376
-0.402,-0.0695,0.86275,0.042037997,0.24394225,-0.017105,1742093810.150267
-0.52925,0.08675,0.464,0.053238,0.2397155,-0.0200805,1742093810.164629
-0.58675,0.0745,0.203,0.041092,0.221634,-0.006775,1742093810.1790311
-0.6615,-0.00625,-0.428,0.030487,0.20405576,0.008636501,1742093810.193459
-0.63725,-0.01075,-0.733,0.0206605,0.128128,0.0310975,1742093810.208668
-0.45175,0.06675,-0.871,0.0104674995,0.07577525,0.0352325,1742093810.222361
-0.32975,0.146,-0.69775,-0.0012055,0.02708425,0.0309905,1742093810.237609
-0.20875,0.1825,-0.48275,-0.006363,-0.03479,0.0038757501,1742093810.251494
0.04925,0.087,-0.12725,-0.00042725,-0.047287,-0.008590749,1742093810.267387
0.178,0.02575,0.01425,0.0019989999,-0.054718,-0.01805125,1742093810.2804348
0.3765,-0.07275,0.23575,-0.0027465,-0.05075075,-0.015090999,1742093810.295069
0.415,-0.1125,0.27725,-0.0073547503,-0.029220501,-0.005066,1742093810.309577
0.40175,-0.1405,0.217,-0.0059205,-0.018280001,-0.00276175,1742093810.324172
0.36675,-0.1445,0.153,0.00030525,-0.00564575,-0.0021972498,1742093810.33849
0.27975,-0.121,0.037,0.00216675,-0.003418,-0.0012970001,1742093810.3529222
0.25075,-0.097,0.01025,0.00137325,-0.0027160002,0.0010375,1742093810.367261
0.23675,-0.072,0.00175,-0.00570675,-0.00263975,0.00791925,1742093810.381716
0.22,-0.044,-0.01025,-0.00862125,-0.00381475,0.010253999,1742093810.397269
0.21325,-0.039,-0.011,-0.009887749,-0.0084379995,0.010314999,1742093810.4108028
0.2165,-0.047,-0.00125,-0.007782,-0.01004025,0.008941749,1742093810.425318
0.20625,-0.045,0.0025,-0.0024872501,-0.01216125,0.0058899997,1742093810.439716
0.19825,-0.03325,0.00975,-0.00169375,-0.01402275,0.0044250004,1742093810.4542022
0.20075,-0.03425,0.0155,-0.001892,-0.01882925,0.002411,1742093810.468655
0.2035,-0.03025,0.03275,-0.00169375,-0.020874001,0.0016785001,1742093810.4830348
0.2035,-0.025,0.0395,-0.001709,-0.02250675,0.00115975,1742093810.49754
0.20175,-0.0235,0.04175,-0.0032195,-0.02507025,0.00131225,1742093810.511957
0.193,-0.02625,0.03425,-0.0040587503,-0.02677925,0.00201425,1742093810.527467
0.187,-0.0295,0.02875,-0.0053252503,-0.032897998,0.00428775,1742093810.540956
0.18725,-0.036,0.04075,-0.005844,-0.036514252,0.0047302498,1742093810.555396
0.1915,-0.038,0.06225,-0.004303,-0.04154975,0.002655,1742093810.569962
0.2005,-0.02925,0.11,-0.0020752498,-0.042251498,0.00035100002,1742093810.584448
0.19975,-0.025,0.12275,0.00061025,-0.041214,-0.0036162501,1742093810.598928
0.18125,-0.03175,0.121,3.0500001e-05,-0.040985,-0.0042725,1742093810.6133819
0.172,-0.03375,0.11975,-0.00146475,-0.041504003,-0.00378425,1742093810.627939
0.165,-0.034,0.12325,-0.0051574996,-0.04426575,-0.0007325,1742093810.642477
0.15025,-0.03075,0.1485,-0.0064545004,-0.046173,0.00064075,1742093810.65842
0.14775,-0.03325,0.1665,-0.0068665,-0.04936225,0.00187675,1742093810.671401
0.14725,-0.0495,0.198,-0.0059815003,-0.050109748,0.00137325,1742093810.687358
0.14325,-0.05125,0.20675,-0.0042267498,-0.050231997,-0.00137325,1742093810.7005062
0.1335,-0.03325,0.21875,-0.00466925,-0.049759,-0.0025634998,1742093810.714999
0.1315,-0.02825,0.23,-0.00541675,-0.04621875,-0.00198375,1742093810.7294998
0.12675,-0.0305,0.2415,-0.0044707498,-0.0440215,-0.0015565,1742093810.744016
0.11625,-0.02325,0.237,-0.0036162501,-0.0426025,-0.00190725,1742093810.7585468
0.10225,-0.017,0.23425,-0.004013,-0.04290775,-0.002472,1742093810.772979
0.09,-0.0185,0.24975,-0.0050812503,-0.043578997,-0.00216675,1742093810.7875469
0.08575,-0.023,0.25675,-0.0060882503,-0.04367075,-0.00292975,1742093810.802023
0.062,-0.0275,0.2545,-0.00555425,-0.043624748,-0.00355525,1742093810.817321
0.047,-0.0305,0.25275,-0.0034484998,-0.0448455,-0.0032195,1742093810.8310819
0.03825,-0.04875,0.27175,-0.0017242499,-0.04574575,-0.003128,1742093810.8473651
0.046,-0.0495,0.288,0.00181575,-0.0450135,-0.0048065,1742093810.860023
0.04675,-0.02075,0.315,0.00245675,-0.04211425,-0.0055237496,1742093810.8744361
0.036,-0.0125,0.31825,0.0023039998,-0.038025003,-0.00587475,1742093810.8889542
0.0265,-0.01975,0.312,-0.0009765,-0.031265248,-0.00538625,1742093810.903488
0.00275,-0.0385,0.297,-0.003296,-0.03028875,-0.0047150003,1742093810.9180312
-0.00425,-0.04375,0.28475,-0.0029145,-0.032074,-0.0032347501,1742093810.932645
-0.02,-0.042,0.266,-0.0016632499,-0.034073003,-0.0034790002,1742093810.947371
-0.02525,-0.03375,0.26925,-0.00105275,-0.036239497,-0.00543225,1742093810.961901
-0.03325,-0.02875,0.3065,-0.0023497501,-0.03578175,-0.0059815003,1742093810.9771972
-0.028,-0.0465,0.34825,-0.0079345,-0.030243,-0.0046845004,1742093810.991159
0.054,-0.1365,0.5755,-0.010299751,-0.02272025,-0.0010375,1742093811.0082781
0.12125,-0.17325,0.764,-0.0049285004,0.01145925,0.01554875,1742093811.020021
0.17725,-0.08575,1.0,0.0049590003,0.04393,0.0237885,1742093811.034272
0.10575,0.0095,1.0,0.0148772495,0.08624275,0.026184,1742093811.04839
-0.01875,0.063,1.0,0.0151215,0.17799374,0.0069580004,1742093811.0627258
-0.24625,-0.0455,0.98225,0.009781,0.2153015,-0.0040587503,1742093811.0779111
-0.34475,-0.084,0.916,0.019134501,0.24618526,-0.010238751,1742093811.091649
-0.55325,0.074,0.54225,0.031356752,0.24160776,-0.012741,1742093811.106015
-0.63925,0.1775,0.29425,0.039993253,0.217743,-0.01832575,1742093811.120372
-0.6695,0.0515,-0.23675,0.039184503,0.20523074,-0.008651749,1742093811.134877
-0.6435,-0.01125,-0.55325,0.04145825,0.18943775,0.00770575,1742093811.1493042
-0.59575,-0.0055,-0.849,0.0344695,0.1189575,0.030731251,1742093811.1637409
-0.37575,0.08275,-0.914,0.014785751,0.06437675,0.032074,1742093811.1781352
-0.2365,0.1385,-0.65675,-0.0104674995,-0.026672252,0.013122501,1742093811.1927192
0.0435,0.15075,-0.154,-0.0065307496,-0.049133252,-0.00381475,1742093811.208077
0.168,0.09875,0.00125,0.0057220003,-0.05752575,-0.0255585,1742093811.221718
0.3405,-0.02225,0.18925,0.00469975,-0.04945375,-0.02462775,1742093811.2374232
0.368,-0.074,0.21,-0.005844,-0.0272675,-0.0115205,1742093811.250726
0.3465,-0.148,0.14375,-0.0072480002,-0.018920999,-0.0068665,1742093811.2652202
0.325,-0.157,0.10675,-0.0049285004,-0.014434749,-0.005249,1742093811.279778
0.3025,-0.1535,0.0795,0.00093075,-0.01098625,-0.00485225,1742093811.294324
0.2595,-0.118,0.038,0.0004425,-0.009262,-0.00267025,1742093811.308794
0.24775,-0.095,0.0265,-0.00402825,-0.0059967497,0.0048674997,1742093811.323336
0.2275,-0.0635,0.0085,-0.00593575,-0.00520325,0.008224499,1742093811.337719
0.2185,-0.055,-0.00325,-0.007431,-0.0057677496,0.0114440005,1742093811.352316
0.21525,-0.04075,-0.014,-0.0065765,-0.0065765,0.0112915,1742093811.366977
0.215,-0.02975,-0.012,-0.0032655,-0.00924675,0.008377,1742093811.3813891
0.212,0.00025,-0.00375,-0.00228875,-0.0114744995,0.0059205,1742093811.396843
0.21125,0.00175,-0.00125,-0.002243,-0.01425175,0.00334175,1742093811.410294
0.20225,-0.0235,-0.0075,-0.00328075,-0.02064525,-0.000122000005,1742093811.425024
0.195,-0.03525,-0.011,-0.00384525,-0.024688749,-0.00061025,1742093811.439616
0.191,-0.03825,-0.0045,-0.0051880004,-0.034546003,0.00062550005,1742093811.454278
0.20325,-0.03175,0.04325,-0.00520325,-0.0373535,0.00083925005,1742093811.4687092
0.2095,-0.02775,0.06575,-0.0027160002,-0.0349885,-0.00067150005,1742093811.4832342
0.20725,-0.03025,0.08225,-0.001709,-0.0331725,-0.00187675,1742093811.497785
0.20525,-0.0355,0.08225,-0.00263975,-0.032669,-0.00283825,1742093811.512317
0.18875,-0.04725,0.073,-0.0039825,-0.033783,-0.0019989999,1742093811.5275269
0.17825,-0.0495,0.072,-0.0060272496,-0.0382995,0.000183,1742093811.541265
0.16875,-0.04125,0.09575,-0.00637825,-0.04144275,0.00051875,1742093811.557684
0.17,-0.0405,0.11675,-0.006607,-0.04441825,0.00033575002,1742093811.570205
0.1745,-0.0455,0.1425,-0.00561525,-0.046554502,-0.00048825,1742093811.5847192
0.18225,-0.0515,0.187,-0.00367725,-0.045578,-0.00131225,1742093811.5992079
0.1785,-0.048,0.19675,-0.00033575002,-0.0426025,-0.0030975002,1742093811.613755
0.1575,-0.03475,0.18625,-0.0002135,-0.04216,-0.003891,1742093811.628341
0.1425,-0.031,0.1745,-0.0028687501,-0.04512025,-0.00393675,1742093811.6429
0.1225,-0.04675,0.1745,-0.0043335,-0.047851503,-0.0035704998,1742093811.658269
0.1185,-0.0515,0.19,-0.005005,-0.053177,-0.0030975002,1742093811.67195
0.10875,-0.03525,0.22375,-0.0048217503,-0.0552215,-0.00396725,1742093811.687405
0.10375,-0.03225,0.24,-0.0047302498,-0.05644225,-0.00520325,1742093811.701046
0.0875,-0.0495,0.26275,-0.0054015,-0.05691525,-0.0065612504,1742093811.7165911
0.084,-0.0675,0.2775,-0.00631725,-0.056594748,-0.0065155,1742093811.730148
0.087,-0.08275,0.30525,-0.010162249,-0.056686502,-0.00399775,1742093811.7447228
0.09725,-0.0725,0.3515,-0.010803251,-0.05558775,-0.0016175,1742093811.7593431
0.09025,-0.0515,0.34725,-0.0053405,-0.045715246,-0.001007,1742093811.77394
0.0645,-0.0135,0.30875,-0.00112925,-0.03910825,-0.00228875,1742093811.7885041
0.05375,-0.0115,0.28925,0.0018005001,-0.0306855,-0.0040435,1742093811.802998
0.03,-0.0235,0.26325,-0.00033575002,-0.0295105,-0.0038299998,1742093811.817547
0.014,-0.02675,0.25675,-0.0040587503,-0.02993775,-0.00289925,1742093811.832025
-0.0165,-0.0235,0.2475,-0.0021057501,-0.03105175,-0.00317375,1742093811.847383
-0.02025,-0.03275,0.23875,0.00169375,-0.03288275,-0.00411975,1742093811.861155
-0.0235,-0.04325,0.2295,0.0056609996,-0.03910825,-0.0077210004,1742093811.87711
-0.0455,-0.03525,0.2335,0.0047150003,-0.042861998,-0.00897225,1742093811.890252
-0.0485,-0.03825,0.24525,0.00077825,-0.0486755,-0.00889575,1742093811.904777
-0.05425,-0.053,0.31,-0.002243,-0.04971325,-0.0080872495,1742093811.91942
-0.05525,-0.06775,0.36525,-0.00668325,-0.04473875,-0.00485225,1742093811.934141
-0.0275,-0.1805,0.60425,-0.0088195,-0.03666675,-0.00143425,1742093811.948713
0.00575,-0.232,0.8105,-0.01136775,-0.00090025004,0.017730748,1742093811.9632158
0.04625,-0.1695,1.0,-0.003952,0.032333247,0.02943425,1742093811.977508
0.02525,-0.07325,1.0,0.019333,0.11982725,0.030426001,1742093811.99182
-0.10725,-0.0275,0.9945,0.024108998,0.16528325,0.0182495,1742093812.00625
-0.2275,-0.06925,0.98125,0.0235595,0.20857225,0.0065765,1742093812.020619
-0.371,-0.08075,0.92275,0.0271455,0.270752,0.00390625,1742093812.0350342
-0.706,0.0985,0.57175,0.03364575,0.280426,0.00791925,1742093812.049257
-0.78625,0.175,0.30025,0.0319215,0.25393674,0.00811775,1742093812.06355
-0.714,0.0505,-0.26875,0.027359,0.2281035,0.00830075,1742093812.0778399
-0.653,0.0165,-0.603,0.036758497,0.15895075,0.01753225,1742093812.0922601
-0.46375,0.1055,-1.0,0.032348752,0.112640254,0.0215455,1742093812.1083782
-0.34075,0.15775,-0.91375,0.01351925,0.0608825,0.02436825,1742093812.1209888
-0.2105,0.1935,-0.61825,-0.01596075,-0.02244575,0.0122375,1742093812.135543
0.07025,0.159,-0.0625,-0.0110625,-0.040664747,-0.0031889998,1742093812.150005
0.16825,0.09375,0.031,0.00019825,-0.042663503,-0.02330025,1742093812.164423
0.299,-0.0655,0.08475,-0.0056609996,-0.037735,-0.020874001,1742093812.1790059
0.349,-0.108,0.13625,-0.01570125,-0.030899,-0.009597749,1742093812.193537
0.36375,-0.15225,0.17025,-0.0139770005,-0.027679501,-0.00773625,1742093812.208627
0.339,-0.16675,0.1475,-0.00511175,-0.017151,-0.00672925,1742093812.22262
0.27775,-0.14325,0.0815,-0.001892,-0.01142875,-0.00517275,1742093812.23758
0.25725,-0.12375,0.05225,-0.00131225,-0.0066374997,-0.0022735,1742093812.251754
0.2425,-0.106,0.02825,-0.00514225,-0.0019685,0.004776,1742093812.267447
0.216,-0.0735,-0.0155,-0.00631725,-0.001236,0.007187,1742093812.280725
0.20625,-0.06225,-0.0345,-0.0065307496,-0.0036162501,0.0079955,1742093812.2971048
0.211,-0.04025,-0.0335,-0.0062407497,-0.0066374997,0.0068055,1742093812.3098612
0.21875,-0.0275,-0.02275,-0.0033570002,-0.0117035,0.00305175,1742093812.324405
0.217,-0.00875,-0.01325,-0.00279225,-0.014221249,0.0014495,1742093812.338968
0.21475,-0.0105,-0.0055,-0.004593,-0.01968375,-0.00019825,1742093812.35361
0.21775,-0.03675,0.02975,-0.0053405,-0.021942249,-0.00045775,1742093812.368133
0.2225,-0.048,0.0495,-0.00520325,-0.02313225,-0.00062550005,1742093812.382699
0.22325,-0.0565,0.05325,-0.0041504996,-0.022643998,-0.00102225,1742093812.39732
0.2175,-0.05525,0.041,-0.004776,-0.02244575,-0.00039675,1742093812.4119391
0.21225,-0.049,0.031,-0.0074920002,-0.02510075,0.0019225,1742093812.427338
0.2075,-0.03225,0.031,-0.008316,-0.026886,0.00251775,1742093812.44089
0.207,-0.02725,0.042,-0.008209251,-0.02940375,0.00239575,1742093812.455391
0.21425,-0.043,0.0905,-0.0077210004,-0.03034975,0.0027465,1742093812.469911
0.21925,-0.056,0.11725,-0.00531,-0.029449498,0.001648,1742093812.484454
0.21275,-0.06,0.126,-0.0039825,-0.0283965,-0.0002595,1742093812.498987
0.2035,-0.0565,0.11125,-0.0043944996,-0.029296748,-0.0020295,1742093812.513522
0.1835,-0.0445,0.08475,-0.0058899997,-0.0317535,-0.0013885,1742093812.528121
0.1795,-0.0365,0.0885,-0.00744625,-0.03445425,-0.00036625,1742093812.54272
0.1775,-0.033,0.10425,-0.00846875,-0.03733825,0.00149525,1742093812.5585651
0.1825,-0.05175,0.1595,-0.0073395,-0.038085997,0.00146475,1742093812.571695
0.188,-0.05825,0.1795,-0.0029755002,-0.0376435,-0.000412,1742093812.587444
0.175,-0.0535,0.173,-0.0021972498,-0.03721625,-0.0012055,1742093812.600815
0.16225,-0.0485,0.159,-0.0062712496,-0.039199747,-0.0012970001,1742093812.615283
0.13625,-0.04825,0.152,-0.0090637505,-0.04211425,-0.00045775,1742093812.629882
0.1345,-0.04725,0.17225,-0.0109709995,-0.05018625,0.0027160002,1742093812.644341
0.14725,-0.04075,0.22525,-0.009872501,-0.0529785,0.00302125,1742093812.65892
0.145,-0.02875,0.2415,-0.007843,-0.053756747,0.0019685,1742093812.67345
0.13225,-0.01275,0.253,-0.0036315,-0.05081175,-0.00169375,1742093812.6879559
0.12325,-0.0125,0.24275,-0.003006,-0.04774475,-0.00187675,1742093812.702537
0.11025,-0.00975,0.2245,-0.00541675,-0.04100025,0.00068675,1742093812.717015
0.0785,-0.01075,0.19475,-0.0073547503,-0.040466253,0.001709,1742093812.731423
0.056,-0.00875,0.19075,-0.007904,-0.045837503,0.00093075,1742093812.747264
0.02575,-0.01775,0.20175,-0.0062712496,-0.049286,-0.0002135,1742093812.7604249
0.024,-0.025,0.21775,-0.00358575,-0.054443248,-0.00372325,1742093812.774956
0.016,-0.035,0.25425,-0.002411,-0.056335498,-0.0048674997,1742093812.789493
0.00675,-0.0355,0.27025,-0.001831,-0.058792,-0.00416575,1742093812.80403
-0.00225,-0.028,0.29325,-0.003006,-0.05862425,-0.0033264998,1742093812.818624
-0.00675,-0.02125,0.298,-0.004776,-0.05738825,-0.002884,1742093812.833291
-0.01725,-0.0165,0.301,-0.0075072497,-0.0544585,-0.00434875,1742093812.847923
-0.0335,-0.029,0.31925,-0.00817875,-0.053527746,-0.00585925,1742093812.8625762
-0.0275,-0.04175,0.34675,-0.010147001,-0.050583,-0.0070495,1742093812.877337
0.01125,-0.073,0.46425,-0.010803251,-0.0460205,-0.00555425,1742093812.892017
0.04125,-0.09525,0.5665,-0.00764475,-0.02386475,0.00334175,1742093812.9079082
0.1385,-0.125,0.87,-0.0032347501,-0.00381475,0.0104674995,1742093812.9209611
0.1615,-0.1025,0.99375,0.014267,0.06216425,0.02513125,1742093812.935232
0.02275,-0.0055,1.0,0.022613501,0.10739125,0.02760325,1742093812.949486
-0.0915,-0.01025,1.0,0.0255585,0.15525825,0.024047751,1742093812.963823
-0.19175,-0.079,0.99575,0.02088925,0.236847,0.0117035,1742093812.978254
-0.411,-0.151,0.952,0.02088925,0.25837702,0.0068969997,1742093812.992657
-0.53875,-0.0225,0.79675,0.03047175,0.255722,-0.013443,1742093813.008384
-0.6855,0.23425,0.27725,0.033203,0.24046326,-0.02439875,1742093813.021513
-0.70325,0.1715,-0.019,0.03733825,0.201477,-0.0114744995,1742093813.038044
-0.654,0.02225,-0.74425,0.04110725,0.177475,0.012542751,1742093813.050369
-0.5775,0.028,-0.97925,0.0123442495,0.101242,0.05148325,1742093813.064833
-0.3715,0.146,-0.822,-0.010162249,0.051071253,0.051178,1742093813.07935
-0.249,0.1735,-0.5595,-0.01776125,0.00411975,0.03636175,1742093813.0938208
-0.1175,0.1595,-0.3145,0.0016632499,-0.050949,-0.0052795,1742093813.108342
0.1425,0.0655,0.02,0.007553,-0.057983503,-0.016922,1742093813.1228108
0.25175,0.009,0.1125,-0.00440975,-0.047409,-0.01194775,1742093813.137749
0.3855,-0.057,0.1955,-0.013198749,-0.0392915,-0.004303,1742093813.151965
0.4055,-0.0655,0.19625,-0.01239025,-0.028656,-0.0029145,1742093813.16751
0.3615,-0.087,0.1335,-0.0072937496,-0.023620501,-0.0060882503,1742093813.1809862
0.32675,-0.096,0.1015,-0.0037995,-0.01295475,-0.00593575,1742093813.1971788
0.278,-0.09525,0.0615,-0.0052337497,-0.008773751,-0.00270075,1742093813.2100039
0.2595,-0.08725,0.04375,-0.0070952503,-0.0056915004,0.000885,1742093813.224421
0.241,-0.0745,0.022,-0.00846875,-0.002884,0.0047912505,1742093813.2389278
0.21825,-0.04975,-0.014,-0.0078735,-0.003006,0.00491325,1742093813.2534962
0.21075,-0.03475,-0.02025,-0.0048979996,-0.0060272496,0.0030365,1742093813.268152
0.20775,-0.00575,-0.01525,-0.00437925,-0.008407501,0.001831,1742093813.2826009
0.209,0.002,-0.007,-0.0062712496,-0.013000499,0.0002595,1742093813.297631
0.21375,0.01025,0.01475,-0.0075072497,-0.0149535,-0.00065625,1742093813.311591
0.217,0.0045,0.0265,-0.008926501,-0.018631,-0.00292975,1742093813.327574
0.2165,-0.0245,0.04225,-0.008727999,-0.0199585,-0.0034637498,1742093813.34064
0.21,-0.03475,0.04175,-0.008850001,-0.021576,-0.0030669998,1742093813.355187
0.1985,-0.0375,0.02175,-0.0099945,-0.02333075,-0.002365,1742093813.369717
0.19325,-0.03825,0.01675,-0.0109709995,-0.0262145,-0.0013427499,1742093813.384331
0.18925,-0.03875,0.02025,-0.010742251,-0.03268425,0.00068675,1742093813.398898
0.19125,-0.03175,0.0525,-0.010024999,-0.035461497,0.0014495,1742093813.413408
0.19675,-0.02825,0.0765,-0.0081635,-0.03886425,0.00175475,1742093813.427876
0.19775,-0.02575,0.09975,-0.007431,-0.040237498,0.00231925,1742093813.442333
0.187,-0.02725,0.09425,-0.0071409997,-0.044875998,0.00276175,1742093813.4587379
0.18125,-0.0225,0.1155,-0.0072480002,-0.0469055,0.0017852499,1742093813.4714
0.184,-0.01775,0.13875,-0.00817875,-0.04721075,0.0,1742093813.487468
0.188,-0.0335,0.184,-0.007904,-0.046173,0.0,1742093813.500606
0.18875,-0.0305,0.2,-0.0071409997,-0.044754002,0.00024425,1742093813.516811
0.1865,-0.01725,0.20775,-0.0067902496,-0.04008475,0.00059500005,1742093813.52957
0.17825,-0.001,0.20575,-0.00741575,-0.036987253,0.00054925,1742093813.5440462
0.1655,-0.00725,0.19325,-0.0075835,-0.03479,-0.00027475,1742093813.558572
0.1435,-0.023,0.175,-0.00715625,-0.036620997,-0.00096125,1742093813.5731142
0.14325,-0.02275,0.19,-0.0062865,-0.040893503,-0.001007,1742093813.587716
0.1545,-0.01375,0.24225,-0.00579825,-0.04078675,-0.00112925,1742093813.602283
0.15625,-0.012,0.255,-0.00570675,-0.035903998,-0.0028687501,1742093813.617326
0.14625,-0.0105,0.254,-0.0065155,-0.032608002,-0.0028229998,1742093813.631381
0.13525,-0.00875,0.24525,-0.007904,-0.0280305,-0.0003815,1742093813.6467998
0.111,-0.01375,0.21975,-0.00747675,-0.027679501,0.00080875,1742093813.6604211
0.10025,-0.0135,0.21225,-0.0065765,-0.02851875,0.00067150005,1742093813.674904
0.09325,-0.00575,0.21025,-0.0036010002,-0.0328065,-0.00270075,1742093813.689485
0.097,0.00125,0.22125,-0.0022277501,-0.03480525,-0.004013,1742093813.703967
0.094,0.0,0.232,-0.0031889998,-0.03471375,-0.00485225,1742093813.718417
0.07725,-0.00725,0.2435,-0.00570675,-0.033493,-0.0039825,1742093813.73298
0.06775,-0.01525,0.24425,-0.009231499,-0.03144825,-0.00051875,1742093813.7476008
0.04875,-0.015,0.24725,-0.008026,-0.0313415,0.0007325,1742093813.761996
0.045,-0.0065,0.247,-0.002472,-0.03244025,0.000122000005,1742093813.777481
0.04125,-0.006,0.2465,-0.0011445,-0.03335575,-0.00048825,1742093813.790942
0.033,-0.0,0.25175,-0.0016175,-0.03421025,-0.000763,1742093813.8054621
0.0245,0.007,0.25175,-0.0044250004,-0.03575125,-0.0013580001,1742093813.819867
-0.0005,0.001,0.24225,-0.0057220003,-0.03793325,-0.0014037499,1742093813.834441
-0.01325,-0.00225,0.2385,-0.0075072497,-0.0437775,0.00010675,1742093813.849134
-0.03675,-0.00325,0.236,-0.00785825,-0.0467835,0.00083925005,1742093813.86368
-0.0355,-0.008,0.24475,-0.008361749,-0.0518035,0.00019825,1742093813.878253
-0.008,-0.0025,0.33075,-0.0089875,-0.051330503,0.00029,1742093813.892799
0.009,-0.006,0.38725,-0.0111085,-0.039306752,0.00283825,1742093813.907819
0.0625,-0.05725,0.60025,-0.011245751,-0.028244,0.0048065,1742093813.9217632
0.12675,-0.07625,0.78625,-0.00662225,-0.011031999,0.0074615004,1742093813.9374442
0.163,0.03,1.0,0.01921075,0.049423248,0.0125885,1742093813.9505012
0.08,0.10275,1.0,0.03111275,0.090652496,0.00845325,1742093813.9646752
-0.01875,0.12,1.0,0.034362752,0.178894,-0.014923001,1742093813.978975
-0.23,0.064,0.9835,0.0353545,0.21490476,-0.02073675,1742093813.9933429
-0.316,0.01875,0.9265,0.05284125,0.24511725,-0.016632,1742093814.008469
-0.45775,0.00475,0.56175,0.0606995,0.244217,-0.0154725,1742093814.022308
-0.522,0.05875,0.3,0.0368805,0.21250924,-0.0081025,1742093814.038125
-0.54025,0.05,-0.26775,0.01867675,0.189453,-0.0022125002,1742093814.051334
-0.49325,0.01975,-0.522,0.01573175,0.164688,0.0045777503,1742093814.067301
-0.4285,0.00775,-0.6835,0.02363575,0.10249325,0.01766975,1742093814.0801148
-0.298,0.04825,-0.651,0.017151,0.06823725,0.019989,1742093814.094501
-0.21025,0.07275,-0.522,0.004486,0.009811499,0.0099945,1742093814.1089149
-0.01175,0.08425,-0.24025,0.0044555003,-0.0115815,0.0018615,1742093814.123373
0.08475,0.0505,-0.12925,0.00390625,-0.035553,-0.006302,1742093814.137886
0.22825,0.00225,0.02675,-0.0014037499,-0.037979253,-0.0035704998,1742093814.15243
0.2825,-0.009,0.0865,-0.0068055,-0.036209,-0.0004425,1742093814.167039
0.341,-0.033,0.14625,-0.008514499,-0.029068,-0.0012817499,1742093814.181609
0.336,-0.06125,0.1265,-0.0067445002,-0.025268499,-0.0034637498,1742093814.1975522
0.31675,-0.091,0.092,-0.0052947504,-0.01908875,-0.0041810004,1742093814.21067
0.27975,-0.10625,0.05275,-0.0047912505,-0.017135499,-0.0026245,1742093814.2253492
0.262,-0.098,0.04375,-0.00231925,-0.01519775,0.00016775,1742093814.239902
0.24175,-0.08025,0.045,-0.0014495,-0.015396,0.00074775,1742093814.2545621
0.24225,-0.06375,0.04875,-0.0025940002,-0.014434749,0.00160225,1742093814.2689369
0.229,-0.04375,0.0255,-0.0032195,-0.014007499,0.0019989999,1742093814.2834198
0.22025,-0.03575,0.01325,-0.00320425,-0.01693725,0.0017852499,1742093814.297867
0.216,-0.018,0.015,-0.00289925,-0.019439751,0.0012970001,1742093814.3123121
0.21175,-0.01525,0.02475,-0.0028229998,-0.021576,0.00083925005,1742093814.3274739
0.2075,-0.02375,0.04225,-0.00393675,-0.023940999,0.000473,1742093814.341608
0.20525,-0.03225,0.04425,-0.00444025,-0.024841249,0.00096125,1742093814.357722
0.197,-0.0395,0.04,-0.00485225,-0.028885,0.0020599999,1742093814.3705878
0.18975,-0.04175,0.0455,-0.0051880004,-0.032226503,0.0023039998,1742093814.3851242
0.1975,-0.03575,0.06875,-0.0059967497,-0.0368195,0.0028074998,1742093814.399607
0.21425,-0.02425,0.12225,-0.00596625,-0.035888746,0.0027312501,1742093814.4141319
0.21475,-0.02925,0.13025,-0.0053709997,-0.031188998,0.00239575,1742093814.428709
0.2045,-0.03725,0.117,-0.0052642496,-0.03038025,0.001709,1742093814.443182
0.2005,-0.03525,0.114,-0.005005,-0.032852247,0.00042725,1742093814.458265
0.19775,-0.03325,0.13775,-0.004486,-0.033783,0.0004425,1742093814.471979
0.2,-0.04125,0.155,-0.00334175,-0.033661,0.00080875,1742093814.4876008
0.2055,-0.04575,0.17175,-0.0013427499,-0.031433,0.00177,1742093814.500905
0.213,-0.03575,0.20125,-0.001587,-0.028885,0.0019989999,1742093814.515305
0.21275,-0.03425,0.2085,-0.001709,-0.022094749,0.0013580001,1742093814.529912
0.20425,-0.02525,0.20125,-0.00125125,-0.0195465,0.00057975,1742093814.544427
0.19975,-0.018,0.19375,-0.001526,-0.01693725,-0.0009155,1742093814.5590038
0.19125,-0.027,0.1815,-0.0015565,-0.01628125,-0.0016175,1742093814.573482
0.185,-0.0335,0.17575,-0.00067150005,-0.01634225,-0.0026092501,1742093814.588116
0.1745,-0.0375,0.17725,-0.00051875,-0.01667775,-0.002472,1742093814.602658
0.17675,-0.0365,0.18775,-0.00064075,-0.01675425,-0.00190725,1742093814.6173902
0.18,-0.0315,0.1975,-0.00080875,-0.0155030005,-0.00067150005,1742093814.631714
0.17125,-0.02725,0.1955,-0.0008545,-0.01463325,-0.00042725,1742093814.646799
0.1645,-0.02825,0.188,-0.0013885,-0.01452625,-0.00048825,1742093814.660872
0.1555,-0.02675,0.17975,-0.001648,-0.015167249,-0.000473,1742093814.6754
0.15225,-0.0275,0.17975,-0.00175475,-0.01741025,-0.00065625,1742093814.68997
0.14525,-0.03025,0.18275,-0.00177,-0.01879875,-0.00090025004,1742093814.7044868
0.14375,-0.02925,0.1855,-0.001892,-0.021484248,-0.0013427499,1742093814.719136
0.142,-0.0255,0.19125,-0.002121,-0.02224725,-0.0013427499,1742093814.733639
0.13675,-0.0235,0.1925,-0.0025787498,-0.02262875,-0.00108325,1742093814.74817
0.12525,-0.0305,0.194,-0.0037995,-0.0233155,-7.625e-05,1742093814.762628
0.122,-0.03425,0.19775,-0.0042572496,-0.02401725,0.00035100002,1742093814.7772071
0.1205,-0.0345,0.2055,-0.00437925,-0.025055,0.0003815,1742093814.791629
0.11,-0.02675,0.21575,-0.00372325,-0.0253295,-0.0002135,1742093814.806195
0.10125,-0.02625,0.211,-0.0021819999,-0.027557248,-0.001068,1742093814.820745
0.093,-0.02725,0.20575,-0.0019685,-0.029266251,-0.00157175,1742093814.835267
0.0935,-0.02775,0.21375,-0.001419,-0.031570498,-0.0026092501,1742093814.84988
0.0975,-0.02775,0.243,-0.001068,-0.0312195,-0.00231925,1742093814.86438
0.09225,-0.0265,0.24875,-0.001526,-0.028473,-0.00096125,1742093814.879005
0.0755,-0.02475,0.243,-0.00276175,-0.027298,-0.00071725,1742093814.893497
