acc_x,acc_y,acc_z,gyro_x,gyro_y,gyro_z,timestamp
0.11725,-0.02075,0.2145,-0.00016775,0.00175475,0.00065625,1742093816.364129
0.11925,-0.02025,0.212,-0.0001525,0.0012055,0.000412,1742093816.3787808
0.12075,-0.022,0.2145,-0.00039675,0.00051875,0.0002595,1742093816.392385
0.12125,-0.0245,0.2215,-0.00077825,0.00059500005,0.00042725,1742093816.406768
0.12025,-0.0255,0.222,-0.00109875,0.0007935,0.00064075,1742093816.421095
0.119,-0.026,0.21975,-0.000824,0.00090025004,0.00057975,1742093816.435489
0.11875,-0.0245,0.21425,-0.000473,0.00080875,0.00039675,1742093816.449881
0.11925,-0.022,0.21475,-0.0005035,0.00048825,0.00039675,1742093816.464502
0.1195,-0.02025,0.2185,-0.00074775,0.00027475,0.00045775,1742093816.4788742
0.1195,-0.02075,0.219,-0.00083925005,0.000122000005,0.00033575002,1742093816.493299
0.1195,-0.02175,0.22125,-0.00061025,0.000183,0.0002595,1742093816.5092108
0.12,-0.02075,0.2245,-0.00029,0.0003205,0.0002135,1742093816.522076
0.12075,-0.01825,0.22725,-6.1000002e-05,0.00093075,0.00013725001,1742093816.537264
0.12,-0.01675,0.223,-0.00029,0.0012665,6.1000002e-05,1742093816.550952
0.1195,-0.01875,0.21825,-0.0005645,0.00137325,9.15e-05,1742093816.5664158
0.11975,-0.02125,0.21125,-0.000183,0.00108325,0.00013725001,1742093816.5798578
0.12025,-0.02075,0.211,0.00059500005,0.0003815,0.000183,1742093816.594235
0.12225,-0.01775,0.21675,0.00042725,0.00024425,0.000229,1742093816.608555
0.12275,-0.0175,0.21875,-0.00042725,0.00051875,0.0002135,1742093816.622856
0.12225,-0.01975,0.2155,-0.000412,0.00064075,0.00010675,1742093816.637266
0.12325,-0.0195,0.21475,-9.15e-05,0.00064075,1.5250001e-05,1742093816.651659
0.125,-0.01925,0.21625,0.000412,0.00070200005,-6.1000002e-05,1742093816.667156
0.1275,-0.0185,0.2225,0.000534,0.00093075,-9.15e-05,1742093816.6804569
0.1285,-0.0175,0.2245,0.000885,0.001648,-9.15e-05,1742093816.694973
0.12775,-0.01325,0.21525,0.00181575,0.00190725,-0.000183,1742093816.70927
0.1205,-0.009,0.1915,0.008194,0.000412,-0.00080875,1742093816.723659
0.05475,-0.0055,-0.014,0.014419501,-0.0043182503,-0.0001525,1742093816.738237
-0.007,-0.0315,-0.26575,0.02130125,-0.018509,0.001587,1742093816.7528589
-0.17775,-0.02375,-0.72525,0.0138702495,-0.09819025,0.0028229998,1742093816.767595
-0.291,0.013,-0.72175,0.0059205,-0.15234375,-0.0007325,1742093816.782239
-0.404,0.01725,-0.553,0.01921075,-0.230835,-0.0153655,1742093816.796814
-0.61875,-0.03125,-0.1185,0.01800525,-0.2485505,-0.016723748,1742093816.8113658
-0.72425,-0.02825,0.04925,-0.00794975,-0.255539,-0.0064239996,1742093816.8269372
-0.86325,-0.0595,0.34575,-0.0197295,-0.246109,0.00036625,1742093816.8405492
-0.9075,-0.15275,0.53,-0.0300445,-0.20095825,0.015976,1742093816.855087
-0.79475,-0.3445,0.9465,-0.02876275,-0.1667785,0.0247955,1742093816.869684
-0.63,-0.3005,1.0,-0.013641249,-0.069992,0.043289248,1742093816.884274
-0.462,0.06,0.58075,-0.0187225,-0.023697,0.050476003,1742093816.898738
-0.42275,0.1915,0.24975,-0.02333075,0.00715625,0.04881275,1742093816.9132428
-0.27275,0.15275,0.0355,-0.01339725,0.02275075,0.02153025,1742093816.9277592
-0.19475,0.06275,0.097,-0.00846875,0.020279,0.0075377496,1742093816.942185
-0.14625,-0.01525,0.15725,-0.00067150005,0.02114875,-0.0049590003,1742093816.958387
-0.15275,-0.0635,0.16375,0.00193775,0.02388,-0.00561525,1742093816.9716392
-0.18925,-0.048,0.1395,0.00488275,0.0273285,-0.00611875,1742093816.987176
-0.2455,-0.02875,0.09675,0.00637825,0.02705375,-0.00770575,1742093817.000597
-0.256,-0.03275,0.09625,0.0065612504,0.0235595,-0.0123442495,1742093817.015008
-0.25575,-0.0405,0.11725,0.0063934997,0.02250675,-0.014618,1742093817.029491
-0.24825,-0.0545,0.12925,0.007187,0.02174375,-0.01756275,1742093817.043912
-0.22175,-0.0945,0.16525,0.0065917503,0.0226745,-0.0168915,1742093817.058433
-0.2095,-0.094,0.18225,0.0052337497,0.02459725,-0.014663749,1742093817.0728161
-0.208,-0.08475,0.1995,0.00239575,0.03067025,-0.009216251,1742093817.087299
-0.20625,-0.06025,0.20175,0.001068,0.035034247,-0.0070647504,1742093817.101763
-0.2045,-0.04925,0.19275,0.000824,0.04202275,-0.00511175,1742093817.116605
-0.203,-0.04525,0.17625,0.0021057501,0.044235248,-0.0054475004,1742093817.1307678
-0.1955,-0.04675,0.16425,0.0029145,0.04388425,-0.0065307496,1742093817.145382
-0.18575,-0.055,0.16925,0.0022277501,0.0414275,-0.007019,1742093817.1598752
-0.183,-0.05775,0.18175,-0.0005645,0.039154,-0.007187,1742093817.17438
-0.17375,-0.054,0.19575,-0.00096125,0.03910825,-0.00668325,1742093817.1888928
-0.16775,-0.054,0.202,-0.00029,0.03945925,-0.005783,1742093817.20358
-0.15875,-0.05375,0.21125,-0.0008545,0.040573,-0.0033570002,1742093817.218077
-0.14575,-0.0465,0.22025,-0.002777,0.04158025,-0.0029449998,1742093817.2325702
-0.14525,-0.04725,0.21375,-0.0050965,0.04438775,-0.0043335,1742093817.247351
-0.14525,-0.05025,0.1935,-0.0047912505,0.04505925,-0.00520325,1742093817.2615528
-0.138,-0.05075,0.18775,-0.0027160002,0.04249575,-0.0055847503,1742093817.276892
-0.10875,-0.05725,0.20825,-0.0028535,0.0403595,-0.0045625,1742093817.290581
-0.0955,-0.05925,0.23075,-0.00794975,0.040283248,-4.575e-05,1742093817.305155
-0.0865,-0.05075,0.25175,-0.0104674995,0.042648252,0.001892,1742093817.3197389
-0.081,-0.043,0.25475,-0.01148975,0.047165003,0.003006,1742093817.334504
-0.0765,-0.0255,0.2575,-0.01054375,0.04901125,0.0021972498,1742093817.349005
-0.07475,-0.01725,0.255,-0.009369001,0.050354,0.0002595,1742093817.363561
-0.06375,-0.019,0.255,-0.0075225,0.0486145,-0.0040587503,1742093817.3781812
-0.031,-0.0425,0.2635,-0.00764475,0.0464935,-0.00408925,1742093817.392989
-0.02125,-0.04775,0.26025,-0.008545,0.045303248,-0.00051875,1742093817.408344
-0.01175,-0.0345,0.2505,-0.008667,0.04618825,0.001526,1742093817.42207
-0.0055,-0.02375,0.249,-0.008941749,0.04777525,0.0033264998,1742093817.437088
0.01875,-0.0145,0.259,-0.0094604995,0.04806525,0.0033570002,1742093817.4508631
0.03,-0.01325,0.2695,-0.0115967505,0.050048754,0.0040435,1742093817.4653661
0.04475,-0.02375,0.28675,-0.01266475,0.0520935,0.0046845004,1742093817.4797719
0.05075,-0.0265,0.28725,-0.013183501,0.05435175,0.0052185003,1742093817.494187
0.05325,-0.02425,0.2775,-0.007187,0.056900002,0.0049895,1742093817.508658
0.053,-0.019,0.237,-0.00238025,0.05706775,0.004776,1742093817.5231109
0.06075,-0.0175,0.22525,0.00112925,0.056488,0.0060882503,1742093817.537281
0.0685,0.0115,0.20025,-0.000412,0.055724997,0.007431,1742093817.551544
0.065,0.033,0.16625,-0.0045625,0.051834,0.00697325,1742093817.565748
0.03275,0.065,-0.0205,-0.0045625,0.0462495,0.00434875,1742093817.5801961
0.00225,0.05575,-0.215,-0.0020752498,0.034484748,0.0012970001,1742093817.59457
-0.0855,-0.04075,-0.65125,0.00216675,-0.0270385,0.00169375,1742093817.6092439
-0.164,-0.035,-0.6875,0.001007,-0.0786285,0.0021515,1742093817.6239202
-0.2785,0.01125,-0.6055,0.016967751,-0.188324,-0.0068207504,1742093817.6385422
-0.55975,0.14925,-0.31975,0.0231475,-0.23052976,-0.013183501,1742093817.653057
-0.686,0.18275,-0.15325,-0.00823975,-0.268875,-0.02253725,1742093817.667634
-0.9345,0.02025,0.12625,-0.0237885,-0.273224,-0.021881001,1742093817.6821709
-1.0,-0.09425,0.294,-0.0400085,-0.250061,-0.0045165,1742093817.697192
-0.96225,-0.2835,0.81425,-0.044281,-0.2252045,0.01200875,1742093817.7112699
-0.76875,-0.2845,1.0,-0.02575675,-0.13551325,0.042572,1742093817.727202
-0.3085,0.074,0.973,-0.01136775,-0.0638885,0.047104,1742093817.740565
-0.3215,0.25,0.6435,-0.014724749,0.003418,0.046630748,1742093817.755158
-0.3645,0.31475,0.14175,-0.028900249,0.0494995,0.024810748,1742093817.769266
-0.238,0.13475,-0.2365,-0.01631175,0.0360565,0.0101165,1742093817.7837498
-0.146,0.03175,-0.05425,0.005249,0.009903,-0.000412,1742093817.7982621
-0.08325,-0.0075,0.271,0.009674,0.0100555,0.000534,1742093817.812573
-0.113,0.01975,0.28775,0.0136565,0.02575675,-0.000183,1742093817.827405
-0.1935,0.03575,0.17475,0.018219,0.032837003,-0.0022125002,1742093817.841426
-0.215,0.0215,0.1295,0.0232085,0.03506475,-0.00570675,1742093817.855861
-0.2315,0.0115,0.0825,0.02503975,0.02964775,-0.00833125,1742093817.870261
-0.2255,-0.00225,0.08825,0.025177,0.022338752,-0.0106965,1742093817.8848572
-0.22,-0.00875,0.09975,0.0138855,0.0129700005,-0.0102845,1742093817.8992698
-0.20475,-0.012,0.133,0.008209251,0.01121525,-0.009277251,1742093817.913892
-0.19475,-0.0125,0.156,0.00466925,0.010498,-0.009155249,1742093817.9283168
-0.18,-0.018,0.2055,0.003662,0.011825499,-0.009658749,1742093817.94278
-0.18,-0.0195,0.21975,-0.00108325,0.01805125,-0.010253999,1742093817.957948
-0.19525,-0.02225,0.2025,-0.0017852499,0.02183525,-0.009948749,1742093817.971911
-0.1985,-0.02025,0.172,0.0046539996,0.0249175,-0.00830075,1742093817.9878368
-0.1945,-0.01575,0.14775,0.0074615004,0.02244575,-0.00744625,1742093818.001012
-0.1905,-0.01225,0.163,0.0075682504,0.019470248,-0.0068512503,1742093818.01719
-0.186,-0.0095,0.181,0.00328075,0.0168915,-0.0060577504,1742093818.029984
-0.1765,-0.011,0.22275,0.0020905002,0.0170745,-0.0057525,1742093818.044461
-0.173,-0.00975,0.24075,0.00198375,0.020874001,-0.0053709997,1742093818.0589728
-0.17075,0.0015,0.2515,0.001648,0.0237275,-0.0050355,1742093818.073358
-0.17175,0.00625,0.23775,0.0020295,0.02879325,-0.0047607496,1742093818.0877461
-0.16875,-0.00275,0.20825,0.0025634998,0.030029248,-0.0047302498,1742093818.102369
-0.164,-0.01175,0.199,0.002243,0.029998751,-0.0046234997,1742093818.117459
-0.14675,-0.0235,0.212,0.0022277501,0.02981575,-0.0047302498,1742093818.131309
-0.1365,-0.02375,0.2335,0.0023497501,0.029907249,-0.00511175,1742093818.1470542
-0.1335,-0.02,0.252,0.00381475,0.031479,-0.0055695,1742093818.16027
-0.1345,-0.011,0.24675,0.0043639997,0.032486,-0.0044707498,1742093818.174721
-0.132,-0.0105,0.231,0.0020905002,0.03364575,-0.0017395001,1742093818.189266
-0.11325,-0.01675,0.22325,0.001007,0.034011748,-0.001587,1742093818.203823
-0.09975,-0.02825,0.2385,0.0011445,0.035827752,-0.0017852499,1742093818.218357
-0.07875,-0.0385,0.28625,0.0015565,0.03898625,-0.0016175,1742093818.2328598
-0.078,-0.02625,0.301,0.0045625,0.047607496,-0.002472,1742093818.2475111
-0.0795,-0.00375,0.2905,0.00668325,0.04992675,-0.0029145,1742093818.261934
-0.078,-0.0025,0.27275,0.0054475004,0.051117,-0.00175475,1742093818.2765582
-0.0655,-0.02,0.24275,0.0024872501,0.051925752,-0.00090025004,1742093818.291151
-0.052,-0.0355,0.23525,-0.000412,0.053329498,-0.00036625,1742093818.305741
-0.0345,-0.051,0.23725,-0.00251775,0.056198,0.0005035,1742093818.320231
-0.00875,-0.04675,0.2615,-0.000885,0.05691525,0.00131225,1742093818.3347251
-0.0095,-0.02875,0.2565,0.0057525,0.057785,0.001587,1742093818.34915
-0.0,0.00025,0.2265,0.0074920002,0.05635075,0.00042725,1742093818.3635452
0.01325,0.0025,0.2255,0.0043182503,0.051101748,-0.00077825,1742093818.377821
0.0315,-0.01875,0.2155,0.00276175,0.04992675,-0.0003205,1742093818.392373
0.0395,-0.0305,0.1965,0.003006,0.047973752,0.0019989999,1742093818.408554
0.05975,-0.036,0.175,0.0034484998,0.045608502,0.0033875,1742093818.4209778
0.07075,-0.03075,0.18,0.004242,0.042328,0.0043182503,1742093818.435297
0.0795,-0.0215,0.1805,0.0072632497,0.035446253,0.0049285004,1742093818.4496582
0.06375,0.011,0.1325,0.008727999,0.03179925,0.004593,1742093818.464096
0.043,0.02675,0.07975,0.0117035,0.020049999,0.0021819999,1742093818.4782
-0.03125,0.005,-0.18275,0.01380925,0.0080872495,0.00193775,1742093818.4926841
-0.07875,-0.0235,-0.4125,0.009811499,-0.04907225,0.005005,1742093818.508606
-0.247,0.013,-0.6365,0.0035095,-0.09594725,0.00413525,1742093818.521973
-0.3785,0.0665,-0.57275,0.002533,-0.14682001,-0.0016175,1742093818.537772
-0.51925,0.11325,-0.43225,0.01307675,-0.23692325,-0.02746575,1742093818.5511339
-0.7485,0.135,-0.03925,0.0037385002,-0.2604675,-0.03663625,1742093818.5668778
-0.84275,0.09775,0.13525,-0.041748002,-0.2619935,-0.031356752,1742093818.580572
-1.0,-0.09375,0.53825,-0.060928248,-0.24682625,-0.01927175,1742093818.595266
-0.95525,-0.26475,0.8155,-0.05929575,-0.19432075,0.01498425,1742093818.609833
-0.465,-0.26475,1.0,-0.04559325,-0.14172375,0.03373725,1742093818.624539
-0.3565,-0.008,0.95225,-0.033554003,0.00328075,0.05366525,1742093818.638975
-0.44825,0.31125,0.082,-0.035263002,0.044372503,0.045776248,1742093818.6533499
-0.372,0.25,-0.209,-0.01643375,0.035553,0.01104725,1742093818.667851
-0.11925,-0.00325,0.01075,-0.0076599997,0.020446751,0.00105275,1742093818.6824489
-0.06025,-0.04575,0.1805,-0.003128,0.013931249,-0.0012817499,1742093818.697684
-0.05925,-0.01975,0.25075,0.0023039998,0.02211,0.0007325,1742093818.7113469
-0.15225,0.0665,0.21525,0.00585925,0.028991751,-0.0010375,1742093818.727794
-0.193,0.07925,0.18325,0.014206001,0.03768925,-0.0068207504,1742093818.740222
-0.2445,0.05375,0.1215,0.016265752,0.037475497,-0.008788999,1742093818.75474
-0.265,0.0195,0.0775,0.013321,0.0283355,-0.01368725,1742093818.7690449
-0.246,-0.0385,0.03875,0.0088805,0.0220185,-0.014724749,1742093818.783435
-0.22625,-0.0525,0.05725,0.003769,0.0114440005,-0.01095575,1742093818.797944
-0.18975,-0.0485,0.12925,0.004486,0.0088195,-0.008651749,1742093818.8124218
-0.177,-0.03575,0.16425,0.0057220003,0.008072,-0.007019,1742093818.827622
-0.1695,-0.0255,0.18875,0.0050355,0.0113525,-0.0058899997,1742093818.841411
-0.16775,-0.01875,0.1995,0.0040587503,0.014343251,-0.0058899997,1742093818.855937
-0.171,-0.01625,0.19225,0.00561525,0.01953125,-0.006012,1742093818.8704078
-0.17875,-0.01175,0.176,0.0072937496,0.020218,-0.00596625,1742093818.884919
-0.184,-0.01375,0.184,0.00590525,0.0186615,-0.0060425,1742093818.899433
-0.18325,-0.0225,0.22525,0.00354,0.01879875,-0.0052947504,1742093818.9139142
-0.179,-0.02425,0.24,0.00039675,0.022338752,-0.00399775,1742093818.9284391
-0.1735,-0.018,0.25075,0.000229,0.025589,-0.0045625,1742093818.94294
-0.173,-0.0065,0.24925,0.002411,0.02940375,-0.00517275,1742093818.959035
-0.175,0.00425,0.24975,0.00880425,0.036560003,-0.00469975,1742093818.971812
-0.17325,0.0045,0.226,0.0084379995,0.03907775,-0.00460825,1742093818.987639
-0.16775,-0.0065,0.21325,0.004547,0.041808996,-0.0062255003,1742093819.000839
-0.14025,-0.02725,0.21075,0.0029907501,0.04202275,-0.0075377496,1742093819.015431
-0.1305,-0.03475,0.22525,-0.00067150005,0.041808996,-0.009277251,1742093819.0300741
-0.12125,-0.0275,0.26225,-0.00213625,0.04214475,-0.008727999,1742093819.044512
-0.118,-0.01575,0.2735,-0.0017242499,0.043762248,-0.00590525,1742093819.05905
-0.1185,0.004,0.257,-0.000946,0.0447235,-0.004837,1742093819.0734122
-0.118,0.008,0.237,0.00019825,0.04464725,-0.00419625,1742093819.088083
-0.10675,0.004,0.22,0.00148,0.040573,-0.0044250004,1742093819.102355
-0.06875,-0.018,0.229,0.000412,0.037917998,-0.0048065,1742093819.117266
-0.05075,-0.02675,0.249,-0.00143425,0.037917998,-0.00485225,1742093819.131408
-0.03125,-0.029,0.2755,-0.0009155,0.040283248,-0.00488275,1742093819.147159
-0.03675,-0.01975,0.27325,0.00190725,0.043686002,-0.004303,1742093819.1607811
-0.04725,-0.00875,0.233,0.00283825,0.043075502,-0.0031127501,1742093819.1752472
-0.0435,-0.011,0.21275,-0.00071725,0.03837575,-0.00160225,1742093819.189842
-0.02,-0.02325,0.20975,-0.0030365,0.03575125,-0.0016785001,1742093819.204551
-0.00475,-0.0305,0.22275,-0.003128,0.032943748,-0.0023497501,1742093819.219111
0.02175,-0.021,0.25175,-0.0012817499,0.03323375,-0.0025787498,1742093819.233524
0.03,-0.01025,0.2625,0.0009765,0.034225497,-0.0029449998,1742093819.247832
0.03475,-0.00325,0.27075,0.00381475,0.0372925,-0.0033722501,1742093819.262282
0.036,-0.00325,0.263,0.00419625,0.038955748,-0.0030669998,1742093819.276953
0.03875,-0.00925,0.247,0.0032655,0.039855998,-0.00154125,1742093819.2910578
0.05175,-0.03025,0.23225,0.00213625,0.0387115,-0.00065625,1742093819.30538
0.061,-0.0385,0.23925,0.001587,0.03692625,0.001007,1742093819.3196201
0.07125,-0.032,0.24,0.00305175,0.03742975,0.00154125,1742093819.333954
0.073,-0.02175,0.2325,0.00514225,0.03842175,0.00163275,1742093819.3482502
0.078,-0.01475,0.22625,0.0081635,0.03886425,0.00119025,1742093819.362582
0.092,-0.009,0.22025,0.00842275,0.03825375,0.001114,1742093819.377109
0.0975,-0.01375,0.21175,0.0063934997,0.0375825,0.001709,1742093819.3911412
0.11025,-0.03475,0.197,0.0043182503,0.0376435,0.00292975,1742093819.405497
0.10975,-0.03925,0.18425,0.0033264998,0.037704498,0.0055847503,1742093819.419733
0.09725,-0.0285,0.12725,0.00469975,0.037094,0.0062865,1742093819.434058
0.0715,0.005,0.0755,0.00637825,0.0346375,0.0065765,1742093819.448242
0.0245,0.04125,-0.0165,0.0113525,0.0198365,0.0032347501,1742093819.46264
-0.0795,-0.011,-0.3745,0.01361075,0.0024872501,0.00119025,1742093819.477209
-0.149,-0.05175,-0.588,0.0044707498,-0.0746765,0.001068,1742093819.491838
-0.38675,0.02025,-0.6505,-0.0031889998,-0.1305085,-0.00231925,1742093819.508403
-0.53525,0.10025,-0.494,-0.00334175,-0.23594674,-0.020172002,1742093819.521333
-0.806,0.19525,-0.0845,-0.009582501,-0.2654725,-0.02528375,1742093819.537426
-0.93725,0.1485,0.10375,-0.035553,-0.28323376,-0.02259825,1742093819.5505111
-1.0,-0.00175,0.5605,-0.04745475,-0.27639773,-0.018920999,1742093819.565106
-0.9895,-0.1075,0.84125,-0.073501505,-0.2303315,0.0032655,1742093819.579704
-0.50175,-0.306,1.0,-0.061676,-0.18589775,0.025390498,1742093819.5942342
-0.26075,-0.146,1.0,-0.0344695,-0.117813006,0.04550175,1742093819.608876
-0.2785,0.112,0.818,-0.011810251,0.02757275,0.056274503,1742093819.6234539
-0.4415,0.33075,-0.09425,-0.01104725,0.0518035,0.044067502,1742093819.638145
-0.33925,0.21575,-0.25575,0.000824,0.025787251,0.011383001,1742093819.652323
-0.10175,-0.0515,0.06975,0.002884,0.012115501,0.0059510004,1742093819.667653
-0.0635,-0.057,0.2015,0.0068055,0.0110932505,0.00930775,1742093819.6810749
-0.12075,0.0465,0.21475,0.008407501,0.016021749,0.008545,1742093819.697669
-0.17175,0.079,0.18675,0.0144805005,0.02285775,-6.1000002e-05,1742093819.709808
-0.23025,0.0455,0.15025,0.017807,0.024475,-0.00444025,1742093819.7242398
-0.238,0.01875,0.12675,0.0174865,0.02513125,-0.0068969997,1742093819.738626
-0.241,0.017,0.1005,0.0114440005,0.020462,-0.0085602505,1742093819.753063
-0.224,-0.015,0.109,0.009079001,0.016418502,-0.009323,1742093819.767429
-0.20775,-0.028,0.13025,0.0049590003,0.012695249,-0.0085755,1742093819.781929
-0.181,-0.0335,0.167,0.0041504996,0.012634249,-0.008346501,1742093819.797534
-0.17275,-0.0365,0.185,0.0023497501,0.0153807495,-0.0081025,1742093819.81104
-0.18175,-0.0305,0.1935,0.002121,0.0179595,-0.0073395,1742093819.825428
-0.185,-0.0245,0.1765,0.00325,0.020446751,-0.0062407497,1742093819.839937
-0.19075,-0.0235,0.1445,0.0037995,0.02215575,-0.0049285004,1742093819.85453
-0.1955,-0.02525,0.1365,0.0015105,0.0209655,-0.0048065,1742093819.86905
-0.193,-0.02625,0.1455,-0.0023039998,0.0173645,-0.0037995,1742093819.883551
-0.174,-0.0225,0.18225,-0.0022735,0.017395,-0.00411975,1742093819.89812
-0.1645,-0.02025,0.21025,-0.001068,0.018020751,-0.0062865,1742093819.912766
-0.15875,-0.0125,0.25725,-0.000473,0.01893625,-0.0065307496,1742093819.927518
-0.1615,-0.01125,0.251,-0.0016175,0.02345275,-0.0056609996,1742093819.9419231
-0.164,-0.0165,0.20975,-0.00228875,0.02563475,-0.0058135,1742093819.957782
-0.16075,-0.01925,0.20925,0.0038605002,0.02742,-0.00723275,1742093819.970912
-0.14275,-0.0265,0.247,0.00585925,0.0283965,-0.008224499,1742093819.985434
-0.14325,-0.02425,0.25475,0.0062865,0.03025825,-0.0091095,1742093819.999852
-0.1455,-0.017,0.25325,0.0060272496,0.033691503,-0.008590749,1742093820.0144808
-0.145,-0.01075,0.251,0.00611875,0.03541575,-0.00782775,1742093820.028964
-0.14675,-0.01125,0.24375,0.0065765,0.03837575,-0.005844,1742093820.043421
-0.12975,-0.021,0.23475,0.0065917503,0.0390015,-0.0050202496,1742093820.058313
-0.11375,-0.0345,0.24675,0.00463875,0.04055775,-0.0052185003,1742093820.072435
-0.08675,-0.04125,0.27275,0.004074,0.042175252,-0.0055085,1742093820.087592
-0.08475,-0.02775,0.28025,0.0059967497,0.0452575,-0.00520325,1742093820.101598
-0.08775,0.0015,0.27875,0.00747675,0.04644775,-0.0035095,1742093820.1174889
-0.08175,-0.004,0.2625,0.007904,0.047958247,-0.001114,1742093820.130409
-0.06325,-0.0325,0.22825,0.00367725,0.050125,0.000824,1742093820.1448479
-0.051,-0.0435,0.2235,0.00086975005,0.04910275,-0.00048825,1742093820.159318
-0.038,-0.04975,0.22975,-0.00067150005,0.0450135,-0.00396725,1742093820.17395
-0.0165,-0.041,0.254,0.00064075,0.043701246,-0.00491325,1742093820.188529
-0.012,-0.03025,0.2615,0.0048217503,0.044159,-0.00364675,1742093820.2031639
-0.0065,-0.01525,0.24675,0.0063477503,0.044540502,-0.00148,1742093820.217623
0.0005,-0.016,0.232,0.0037995,0.042099,0.003891,1742093820.231932
0.016,-0.0305,0.22475,0.00048825,0.04090875,0.0059967497,1742093820.2469308
0.02525,-0.03975,0.231,-0.0019685,0.040527247,0.0071105,1742093820.260683
0.03575,-0.048,0.237,-0.00112925,0.0413055,0.0059510004,1742093820.275062
0.05025,-0.038,0.24025,0.00102225,0.041977,0.004547,1742093820.289247
0.04975,-0.019,0.232,0.0047912505,0.04158025,0.0028535,1742093820.3036711
0.064,-0.01475,0.215,0.00517275,0.040161252,0.0034484998,1742093820.317982
0.0775,-0.0375,0.21525,0.002121,0.0381165,0.0076142503,1742093820.332217
0.09675,-0.0665,0.22425,0.00119025,0.03889475,0.01019275,1742093820.347446
0.0945,-0.066,0.219,0.002411,0.040664747,0.01200875,1742093820.360758
0.0885,-0.05775,0.206,0.0068512503,0.0424805,0.0125885,1742093820.375042
0.08725,-0.00625,0.178,0.0072937496,0.040847752,0.01145925,1742093820.3892028
0.0945,0.013,0.174,0.00505075,0.0344695,0.006607,1742093820.40358
0.108,0.0025,0.15575,0.003952,0.03132625,0.0046234997,1742093820.417732
0.10475,-0.009,0.13675,0.0031585,0.0236665,0.00343325,1742093820.432048
0.055,-0.0015,0.06,0.0047912505,0.018875,0.00263975,1742093820.447433
-0.0,0.018,-0.03875,0.009521499,0.01278675,0.00108325,1742093820.460665
-0.07225,0.0195,-0.21725,0.028183,-0.02076725,-0.0028687501,1742093820.4772081
-0.232,0.013,-0.601,0.03300475,-0.05894475,-0.0062865,1742093820.489734
-0.34475,0.064,-0.63025,0.016113251,-0.16511525,-0.022033751,1742093820.5043368
-0.57625,0.16275,-0.34025,0.0062865,-0.2147065,-0.0349885,1742093820.518989
-0.69125,0.15675,-0.1435,-0.0211945,-0.268158,-0.0468445,1742093820.533663
-0.96175,0.03875,0.18975,-0.036132753,-0.27832025,-0.043975748,1742093820.5482082
-1.0,-0.03975,0.41,-0.0680695,-0.2679595,-0.02978525,1742093820.5628119
-0.9385,-0.231,0.9325,-0.0800475,-0.2414855,-0.013031,1742093820.577697
-0.7015,-0.32075,1.0,-0.04559325,-0.15072626,0.027176,1742093820.592252
-0.254,-0.04275,0.9555,-0.0251465,-0.07955925,0.044616748,1742093820.6085272
-0.31675,0.236,0.645,-0.01829525,-0.0085755,0.055297747,1742093820.621343
-0.39375,0.3865,0.16725,-0.00846875,0.044326752,0.031479,1742093820.637562
-0.2555,0.15475,-0.177,-0.0028687501,0.0319825,0.010498,1742093820.650421
-0.13625,-0.0225,0.00525,0.0013275,0.0093995,-0.0030975002,1742093820.6649668
-0.06325,-0.08425,0.25675,0.00239575,0.010818499,0.0011445,1742093820.679345
-0.11125,-0.01575,0.23425,0.00314325,0.022232,0.0038757501,1742093820.6937459
-0.21825,0.05775,0.137,0.0033570002,0.02462775,-0.00029,1742093820.708214
-0.24475,0.03825,0.12375,0.0038299998,0.021408001,-0.00935375,1742093820.7225611
-0.2515,-0.032,0.1035,0.0053252503,0.01908875,-0.01165775,1742093820.7377322
-0.239,-0.05575,0.10175,0.00585925,0.016448999,-0.01136775,1742093820.751441
-0.22125,-0.0625,0.1195,0.0061339997,0.01127625,-0.00617975,1742093820.767048
-0.18975,-0.031,0.15725,0.0062255003,0.010589501,-0.0040587503,1742093820.78058
-0.17925,-0.01325,0.17325,0.0051574996,0.012802,-0.00440975,1742093820.797193
-0.17175,-0.00175,0.191,0.0051880004,0.015304499,-0.006012,1742093820.809663
-0.1735,-0.0035,0.18725,0.0066374997,0.0203095,-0.00817875,1742093820.8241122
-0.18325,-0.02425,0.16225,0.00614925,0.022186251,-0.00791925,1742093820.83863
-0.18875,-0.035,0.14325,0.00175475,0.02174375,-0.0044555003,1742093820.853099
-0.19075,-0.0355,0.14075,-0.000122000005,0.019195499,-0.0027312501,1742093820.86773
-0.186,-0.02675,0.1645,-0.001114,0.0168305,-0.00201425,1742093820.882216
-0.178,-0.00725,0.212,-0.0018615,0.016723748,-0.00270075,1742093820.8971899
-0.17625,-0.0015,0.226,-0.00175475,0.0189515,-0.0033570002,1742093820.911454
-0.1745,0.0045,0.23075,0.00102225,0.025238002,-0.00402825,1742093820.927507
-0.16875,0.00475,0.216,0.0029145,0.02822875,-0.00463875,1742093820.9404328
-0.167,-0.0045,0.19525,0.00010675,0.031433,-0.0071105,1742093820.9550898
-0.15875,-0.01925,0.19475,-0.00381475,0.029571502,-0.008072,1742093820.969731
-0.14925,-0.02075,0.20975,-0.0025940002,0.025421249,-0.0090485,1742093820.984268
-0.144,-0.0195,0.2465,-0.0003205,0.025711,-0.00897225,1742093820.998861
-0.146,-0.0095,0.25375,0.0018615,0.028411752,-0.0072175004,1742093821.013335
-0.1425,0.01025,0.24475,0.0043944996,0.0296325,-0.006012,1742093821.027916
-0.13575,0.0105,0.2335,0.0066985004,0.029953,-0.0055237496,1742093821.042441
-0.1265,0.00225,0.22525,0.0065612504,0.029846251,-0.00712575,1742093821.058662
-0.10425,-0.024,0.23975,0.00453175,0.03022775,-0.0077515002,1742093821.0714052
-0.092,-0.032,0.258,0.00157175,0.0331115,-0.0080872495,1742093821.0873852
-0.0915,-0.01675,0.289,0.0022125002,0.03572075,-0.0087585,1742093821.100449
-0.09775,0.00075,0.2865,0.00646975,0.03926075,-0.00976575,1742093821.114939
-0.0965,0.0195,0.25475,0.0071409997,0.039505,-0.00889575,1742093821.12957
-0.092,0.011,0.2315,0.003006,0.037979253,-0.00585925,1742093821.143944
-0.076,-0.02625,0.209,0.001419,0.036849998,-0.006073,1742093821.158338
-0.0625,-0.042,0.21825,0.00184625,0.035797,-0.0075377496,1742093821.1729338
-0.03275,-0.04675,0.2645,0.00715625,0.03701775,-0.009872501,1742093821.1874099
-0.0215,-0.0335,0.281,0.00975025,0.0399475,-0.00982675,1742093821.201864
-0.01925,-0.01075,0.28225,0.012329,0.045410253,-0.00720225,1742093821.2171452
-0.0215,0.00025,0.2475,0.012496999,0.046203498,-0.0056304997,1742093821.230734
-0.021,-0.02075,0.22525,0.0072632497,0.04588325,-0.0027465,1742093821.2452228
-0.01225,-0.04875,0.205,0.00331125,0.0450135,-0.0012970001,1742093821.2596438
-0.0025,-0.048,0.20775,0.00051875,0.04220575,-0.00090025004,1742093821.274034
0.02525,-0.04075,0.22775,0.00231925,0.0410155,-0.00181575,1742093821.288543
0.0335,-0.03125,0.23675,0.0047912505,0.040328998,-0.0023497501,1742093821.302861
0.0375,-0.01575,0.236,0.00839225,0.039978,-0.0017242499,1742093821.317368
0.04,0.001,0.206,0.008255,0.0394745,-0.001236,1742093821.331535
0.04175,-0.01325,0.18875,0.0031889998,0.03578175,-0.00070200005,1742093821.3473122
0.0555,-0.05125,0.17075,0.0005035,0.03288275,4.575e-05,1742093821.360183
0.06175,-0.0475,0.165,0.00019825,0.026000999,0.00071725,1742093821.37452
0.075,-0.02475,0.16175,0.000885,0.022354,-1.5250001e-05,1742093821.388735
0.0865,-0.024,0.15975,0.00024425,0.019042999,-0.00099175,1742093821.4032168
0.09375,-0.026,0.1485,-0.001587,0.014709501,-0.00024425,1742093821.4177852
0.05225,-0.00225,0.045,0.0019685,0.012191749,0.00102225,1742093821.432234
0.008,0.014,-0.087,0.017501751,-0.01036075,0.004074,1742093821.4471118
-0.1215,0.02175,-0.4895,0.0157775,-0.037155252,0.00514225,1742093821.461051
-0.24525,0.03425,-0.5805,-0.019104,-0.12239075,-0.001953,1742093821.4769511
-0.5335,0.1135,-0.389,-0.0227355,-0.17201225,-0.012420749,1742093821.490626
-0.65275,0.1235,-0.19825,-0.007843,-0.24922176,-0.035903998,1742093821.5052102
-0.805,0.1335,0.2295,-0.022232,-0.26112375,-0.037735,1742093821.519834
-0.85425,0.101,0.42,-0.07878125,-0.2395935,-0.02253725,1742093821.534556
-0.80725,-0.1495,0.85375,-0.09609975,-0.213913,-0.009796251,1742093821.549126
-0.61475,-0.298,1.0,-0.093704246,-0.18093875,0.00785825,1742093821.56371
-0.4075,-0.3015,1.0,-0.04635625,-0.07696525,0.0515595,1742093821.578252
-0.38575,0.15,0.532,-0.029007,-0.0189515,0.06631475,1742093821.592696
-0.432,0.36425,0.06425,-0.015029999,0.02265925,0.049057,1742093821.608789
-0.26625,0.31325,-0.056,-0.00767525,0.0128785,0.02462775,1742093821.621639
-0.155,0.137,0.17675,0.00029,0.00463875,-0.0053405,1742093821.637669
-0.10825,-0.04825,0.32025,0.0031889998,0.01374825,-0.0053252503,1742093821.650722
-0.14825,-0.01475,0.22475,0.012695249,0.031066999,0.0009765,1742093821.665087
-0.21575,0.06725,0.08975,0.01542675,0.032287497,-4.575e-05,1742093821.6795049
-0.23125,0.06475,0.10125,0.014785751,0.030548,-0.0033875,1742093821.693803
-0.24125,0.03975,0.11525,0.015594499,0.026596,-0.01257325,1742093821.7082
-0.24575,-0.03025,0.09075,0.016983,0.024292,-0.01548775,1742093821.722574
-0.2395,-0.0555,0.07875,0.011886501,0.01747125,-0.011627249,1742093821.73775
-0.213,-0.0635,0.10575,0.007904,0.01374825,-0.0069885002,1742093821.75154
-0.1985,-0.05,0.13675,0.00352475,0.010589501,-0.00090025004,1742093821.766923
-0.18075,-0.01475,0.1825,0.002472,0.012313751,-0.00074775,1742093821.780342
-0.17525,-0.0065,0.18425,0.0019225,0.017425502,-0.0019225,1742093821.794859
-0.177,0.0015,0.17,0.0022735,0.019104,-0.0023039998,1742093821.809248
-0.179,0.0005,0.1615,0.0033875,0.02015675,-0.0027160002,1742093821.823508
-0.1805,-0.003,0.15375,0.005539,0.02095025,-0.0037995,1742093821.8379588
-0.1825,-0.01025,0.15075,0.0050355,0.020629998,-0.003952,1742093821.8524108
-0.18,-0.0165,0.162,0.00125125,0.01976025,-0.0018615,1742093821.867681
-0.1705,-0.01925,0.206,-0.000885,0.02070625,-0.00039675,1742093821.8813388
-0.165,-0.00975,0.23525,-0.003296,0.02882375,-0.000412,1742093821.897602
-0.16925,0.0055,0.274,-0.00396725,0.03572075,-0.002365,1742093821.910317
-0.17425,0.00125,0.247,-0.0047302498,0.042221002,-0.00434875,1742093821.9247339
-0.17325,-0.0095,0.20875,-0.006073,0.041275002,-0.00505075,1742093821.939348
-0.15625,-0.0125,0.22,-0.0037079998,0.037231497,-0.0044555003,1742093821.9539158
-0.13675,-0.01675,0.24475,-0.0002135,0.0351105,-0.0040587503,1742093821.9684439
-0.1325,-0.006,0.28125,-0.0007935,0.03712475,-0.00440975,1742093821.982941
-0.14075,0.0125,0.27675,0.00416575,0.0428925,-0.0029449998,1742093821.997442
-0.13975,0.01925,0.22325,0.0065917503,0.04331975,-0.001068,1742093822.0119
-0.1305,0.01375,0.21275,0.0028229998,0.04043575,0.00099175,1742093822.0270011
-0.10425,-0.00875,0.22025,-0.00036625,0.039306752,0.00048825,1742093822.0405838
-0.0935,-0.01775,0.2305,-0.00267025,0.0384675,-0.0009155,1742093822.05511
-0.0865,-0.00475,0.247,-0.001587,0.0366515,-0.0044555003,1742093822.069721
-0.08725,0.01575,0.24575,0.001648,0.034851003,-0.0052185003,1742093822.084234
-0.08175,0.0255,0.2335,0.00791925,0.02981575,-0.0025025,1742093822.098815
-0.0655,0.00775,0.20725,0.00697325,0.027542,-0.0004425,1742093822.11328
-0.057,-0.0015,0.2035,0.000412,0.02522275,0.00010675,1742093822.1275961
-0.0345,-0.0195,0.227,-0.0015105,0.02516175,-0.00137325,1742093822.142118
-0.01525,-0.03225,0.25375,-0.0013427499,0.02857975,-0.00494375,1742093822.158376
0.00875,-0.03,0.2945,-0.0001525,0.03190625,-0.00590525,1742093822.171246
0.00725,-0.0105,0.29275,0.004776,0.036911,-0.0040435,1742093822.185643
0.002,0.0165,0.26225,0.00662225,0.037552,-0.0019225,1742093822.199917
-0.00075,0.016,0.2455,0.0065612504,0.0377655,9.15e-05,1742093822.214199
0.00425,0.00825,0.2425,0.00193775,0.040161252,0.00251775,1742093822.228426
0.03825,-0.02525,0.2745,-7.625e-05,0.04306025,0.0028687501,1742093822.242732
0.05275,-0.03875,0.28675,0.001236,0.05007925,0.0007325,1742093822.258704
0.05825,-0.0375,0.289,0.00340275,0.051941004,-0.00093075,1742093822.271316
0.04675,-0.017,0.27425,0.00744625,0.054657,-0.0023497501,1742093822.287447
0.01925,0.0125,0.20625,0.0076599997,0.05567925,-0.0022735,1742093822.300256
0.025,0.0055,0.1745,0.0056915004,0.0543365,-0.0019989999,1742093822.3145568
0.03975,-0.0075,0.15275,-0.000946,0.04733275,-0.00027475,1742093822.3290439
0.04075,-0.01425,0.09075,-0.00109875,0.043396,0.00051875,1742093822.3434129
-0.0005,0.01075,0.00625,0.008377,0.02619925,-0.00083925005,1742093822.357715
-0.16575,0.0355,-0.38425,0.015213001,0.005783,-0.0032195,1742093822.372216
-0.2385,-0.0075,-0.58425,0.007843,-0.0766755,-0.00643925,1742093822.3875651
-0.4405,0.0025,-0.475,-0.0040435,-0.13157651,-0.00343325,1742093822.401485
-0.55325,0.08225,-0.29175,-0.0056915004,-0.181198,-0.0024872501,1742093822.417496
-0.73225,0.14325,0.082,-0.0033570002,-0.24897775,-0.0177155,1742093822.4306939
-0.77675,0.13275,0.272,-0.0225525,-0.26057425,-0.02398675,1742093822.446957
-0.8055,0.049,0.50075,-0.079544,-0.23942575,-0.018920999,1742093822.459828
-0.6275,-0.193,1.0,-0.095581,-0.211197,-0.00190725,1742093822.474541
-0.4175,-0.22525,1.0,-0.037979253,-0.1273955,0.03955075,1742093822.489014
-0.261,0.056,0.86,-0.010742251,-0.063384995,0.054947,1742093822.503467
-0.35275,0.2695,0.471,-0.00538625,0.026275748,0.051834,1742093822.5181
-0.3205,0.29325,-0.09575,-0.00242625,0.02769475,0.02896125,1742093822.5324621
-0.20425,0.117,0.00875,-0.00061025,0.00924675,-0.0045777503,1742093822.547124
-0.07025,-0.10425,0.2905,0.0023345,0.01054375,-0.00444025,1742093822.561367
-0.08125,-0.0625,0.279,0.00564575,0.018127501,0.001526,1742093822.5775092
-0.1195,0.0185,0.22,0.0102235,0.0309905,0.0055847503,1742093822.590013
-0.19275,0.1185,0.1395,0.01091,0.032653753,0.0010375,1742093822.60449
-0.21475,0.10375,0.12225,0.010894749,0.027862499,-0.01048275,1742093822.618839
-0.24275,-0.01075,0.0995,0.009277251,0.023834249,-0.01425175,1742093822.633318
-0.23975,-0.05175,0.09675,0.00254825,0.0160065,-0.012619001,1742093822.647833
-0.21425,-0.0665,0.122,0.000473,0.01245125,-0.008514499,1742093822.6623318
-0.1965,-0.0545,0.1485,0.00096125,0.0076295,-0.001953,1742093822.67764
-0.16825,-0.00875,0.1905,0.0016632499,0.00723275,-0.0007935,1742093822.691191
-0.16075,0.0105,0.1965,0.0018005001,0.008514499,-0.0009155,1742093822.705698
-0.1565,0.01825,0.1935,-9.15e-05,0.013214,-0.002533,1742093822.720107
-0.15875,0.00925,0.18375,-0.00090025004,0.015090999,-0.00328075,1742093822.734637
-0.1625,0.00075,0.18125,-6.1000002e-05,0.0170135,-0.0043182503,1742093822.7490811
-0.16975,-0.01375,0.178,0.00024425,0.01734925,-0.00419625,1742093822.763641
-0.1725,-0.0145,0.17875,-0.0002135,0.017624,-0.00267025,1742093822.7782311
-0.1685,-0.004,0.1975,-0.00045775,0.018219,-0.0022277501,1742093822.792861
-0.16125,0.0045,0.21775,-0.00071725,0.0206145,-0.00279225,1742093822.808556
-0.153,0.01925,0.24525,-0.00059500005,0.0220795,-0.00325,1742093822.821801
-0.153,0.02175,0.24225,0.0001525,0.023956249,-0.0034484998,1742093822.837705
-0.15225,0.01725,0.23475,0.000229,0.027237,-0.002655,1742093822.850519
-0.142,-0.003,0.2385,-0.00267025,0.028061,-0.0021972498,1742093822.865024
-0.1305,-0.0115,0.249,-0.0045625,0.03079225,-0.003006,1742093822.879631
-0.12875,-0.00475,0.26475,-0.00125125,0.0332185,-0.0048217503,1742093822.89425
-0.13925,0.015,0.26275,0.0047150003,0.037048247,-0.008926501,1742093822.908702
-0.14025,0.0365,0.23325,0.0075072497,0.037231497,-0.009079001,1742093822.923092
-0.12875,0.02075,0.22325,0.00671375,0.034225497,-0.00596625,1742093822.937734
-0.10125,-0.0155,0.2395,0.00320425,0.033157248,-0.0041504996,1742093822.952234
-0.09125,-0.023,0.25825,0.0004425,0.0338745,-0.00305175,1742093822.9671009
-0.08,-0.02375,0.2745,0.0002595,0.039810248,-0.00596625,1742093822.9811041
-0.05925,-0.00325,0.283,0.00177,0.042358503,-0.00968925,1742093822.997458
-0.06325,0.015,0.2805,0.0067445002,0.04237375,-0.01368725,1742093823.010036
-0.07425,0.0335,0.24775,0.009292499,0.040512,-0.011901749,1742093823.02437
-0.07125,0.0235,0.22925,0.00862125,0.036911,-0.00460825,1742093823.038938
-0.045,-0.0055,0.215,0.0052337497,0.03610225,-0.0020752498,1742093823.0533261
-0.0335,-0.01825,0.21925,0.000122000005,0.035553,-0.00181575,1742093823.06784
-0.01,-0.034,0.24125,0.000183,0.035736,-0.0033875,1742093823.082304
0.0075,-0.03275,0.25,0.00149525,0.03604125,-0.00543225,1742093823.0974112
0.017,-0.02375,0.25375,0.00419625,0.035049498,-0.00874325,1742093823.1112409
0.0155,-0.0005,0.24625,0.00488275,0.034606997,-0.0090485,1742093823.1269279
0.0135,0.0025,0.2375,0.004547,0.03395075,-0.0076905,1742093823.139909
0.0105,-0.007,0.216,0.0036010002,0.03268425,-0.00643925,1742093823.154329
0.01475,-0.016,0.2125,0.0020752498,0.02905275,-0.0037995,1742093823.168737
0.0375,-0.028,0.2265,0.0025940002,0.027832001,-0.00276175,1742093823.183171
0.0465,-0.0285,0.22975,0.00416575,0.0271455,-0.0022125002,1742093823.197519
0.0565,-0.01725,0.224,0.0070495,0.025940001,-0.00231925,1742093823.2118862
0.0605,-0.00925,0.2215,0.00717175,0.02513125,-0.002472,1742093823.2274492
0.0655,-0.005,0.22125,0.0047912505,0.023940999,-0.0024414998,1742093823.240622
0.084,-0.0165,0.2325,0.003296,0.024261499,-0.002121,1742093823.255014
0.0925,-0.02825,0.23675,0.0033264998,0.026596,-0.000229,1742093823.269512
0.095,-0.035,0.22725,0.0051269997,0.0280305,0.00099175,1742093823.283829
0.0945,-0.0345,0.2195,0.0078125,0.02908325,0.0015105,1742093823.2981818
0.0915,-0.01225,0.20775,0.00708,0.02848825,0.00143425,1742093823.312478
0.09,0.00275,0.20325,0.0060425,0.027740499,0.00059500005,1742093823.327337
0.09175,0.00325,0.197,0.0074004997,0.026275748,-0.00416575,1742093823.3409212
0.08775,-0.026,0.155,0.00930775,0.02548225,-0.006363,1742093823.3553479
0.07225,-0.03075,0.11825,0.013382,0.022049,-0.0072480002,1742093823.369832
-0.003,-0.01025,-0.03525,0.01728825,0.016983,-0.004776,1742093823.384421
-0.06525,-0.01075,-0.21875,0.02519225,-0.0129395,0.00355525,1742093823.398915
-0.237,0.012,-0.66775,0.01940925,-0.046981752,0.0046845004,1742093823.413412
-0.36675,0.07575,-0.67575,0.0058135,-0.09695425,0.003128,1742093823.427954
-0.51275,0.161,-0.51625,-0.008606,-0.207962,-0.0144805005,1742093823.442622
-0.80525,0.24175,-0.09075,-0.012557999,-0.2474365,-0.028427,1742093823.458654
-0.938,0.19575,0.0955,-0.052887,-0.27926624,-0.04005425,1742093823.471909
-1.0,-0.00175,0.59575,-0.08082575,-0.27095026,-0.0347595,1742093823.4875531
-0.97425,-0.161,0.8905,-0.11489875,-0.208664,0.0028687501,1742093823.5011451
-0.46125,-0.28575,1.0,-0.09240725,-0.1665955,0.0325775,1742093823.516855
-0.2465,-0.0735,1.0,-0.0114440005,-0.042251498,0.06770325,1742093823.530208
-0.3745,0.39925,0.34975,-0.0036010002,0.01670825,0.0654755,1742093823.544491
-0.39175,0.4125,-0.04075,-0.0069580004,0.035888746,0.021286,1742093823.559068
-0.16825,0.08025,0.0185,-0.00535575,0.0229035,0.0012817499,1742093823.573518
-0.076,-0.04475,0.1955,-0.0024414998,0.01640325,-0.0066374997,1742093823.588078
-0.0505,-0.0695,0.2705,0.0038299998,0.02528375,-0.00074775,1742093823.602592
-0.11825,0.02075,0.18225,0.0042572496,0.030655,0.001709,1742093823.617652
-0.16275,0.06575,0.1515,0.00587475,0.03205875,-0.0034637498,1742093823.6312268
-0.20525,0.07975,0.149,0.009903,0.03179925,-0.0072937496,1742093823.647743
-0.2225,0.0455,0.132,0.0123595,0.030746501,-0.009903,1742093823.660015
-0.23225,-0.0155,0.08275,0.0081635,0.02807625,-0.009521499,1742093823.674506
-0.21725,-0.03025,0.0865,-0.0007935,0.018585252,-0.0068969997,1742093823.68903
-0.1765,-0.04025,0.151,-0.0024414998,0.014800999,-0.00579825,1742093823.7038221
-0.1655,-0.027,0.18275,-0.0020599999,0.013351499,-0.00517275,1742093823.718368
-0.15975,-0.008,0.1985,0.001068,0.0162505,-0.0045012496,1742093823.732811
-0.15475,0.01,0.18975,0.002121,0.01849375,-0.0047302498,1742093823.7477582
-0.15375,0.0085,0.1805,0.00393675,0.021560749,-0.00585925,1742093823.761625
-0.1625,-0.0025,0.16025,0.0043639997,0.02212525,-0.00579825,1742093823.777227
-0.165,-0.00975,0.1625,0.00204475,0.02076725,-0.0047455,1742093823.7905312
-0.15325,-0.01725,0.2055,0.000473,0.019897498,-0.0042115003,1742093823.804868
-0.14325,-0.01475,0.227,-0.0009765,0.020279,-0.00381475,1742093823.819377
-0.13875,0.003,0.249,-0.00169375,0.021514999,-0.00413525,1742093823.8339
-0.14475,0.01225,0.24825,-0.0020599999,0.02323925,-0.004593,1742093823.8484092
-0.15025,0.02225,0.232,-0.0038605002,0.0256195,-0.005783,1742093823.862838
-0.14725,0.0225,0.20475,-0.00115975,0.0259095,-0.0059815003,1742093823.8775308
-0.138,0.00875,0.20775,0.0017852499,0.026245002,-0.0055847503,1742093823.8917959
-0.13,-0.00925,0.2215,0.0020599999,0.02822875,-0.0054932497,1742093823.908193
-0.1305,-0.0005,0.22525,0.00292975,0.03019725,-0.0071105,1742093823.920801
-0.1105,0.01275,0.227,0.0037385002,0.028122,-0.0075072497,1742093823.935209
-0.09825,0.009,0.2345,0.0030669998,0.02230825,-0.006256,1742093823.949572
-0.085,0.0005,0.25175,0.002472,0.02130125,-0.0052337497,1742093823.9640052
-0.08325,-0.00275,0.2505,0.0025940002,0.022293,-0.0046234997,1742093823.978637
-0.079,-0.0085,0.24375,0.0040587503,0.0245515,-0.006302,1742093823.9931068
-0.07275,0.00075,0.253,0.00434875,0.02348325,-0.0085755,1742093824.0081952
-0.08025,0.022,0.257,0.0076599997,0.022705,-0.01004025,1742093824.0217862
-0.0855,0.0325,0.22975,0.00845325,0.0211945,-0.00782775,1742093824.037898
-0.08025,0.023,0.21975,0.0030975002,0.0160675,-0.00354,1742093824.0504918
-0.05975,0.002,0.23225,0.00033575002,0.014724749,-0.00340275,1742093824.064893
-0.051,-0.0115,0.24375,-0.00067150005,0.01454175,-0.00460825,1742093824.079461
-0.04175,-0.026,0.257,-0.001068,0.01519775,-0.0064545004,1742093824.094099
-0.0185,-0.03625,0.2865,-0.00071725,0.0168915,-0.0060577504,1742093824.1086988
-0.02475,-0.0265,0.28575,0.0028229998,0.022873,-0.0047302498,1742093824.123206
-0.04975,0.012,0.25875,0.0051269997,0.024841249,-0.00416575,1742093824.137701
-0.051,0.0225,0.2435,0.00579825,0.023940999,-0.00279225,1742093824.1520178
-0.03775,0.013,0.2405,0.00384525,0.022766002,-0.0023039998,1742093824.166856
-0.027,-0.00175,0.253,4.575e-05,0.02313225,-0.0022735,1742093824.18107
-0.00425,-0.0305,0.278,-0.0001525,0.0248565,-0.00242625,1742093824.1968472
0.00425,-0.0385,0.28325,0.0036315,0.0300445,-0.0022277501,1742093824.2100601
-0.001,-0.02375,0.2615,0.00614925,0.0318755,-0.0014037499,1742093824.224704
-0.0095,-0.004,0.24175,0.0076905,0.032364,-0.0004425,1742093824.239281
-0.01225,0.0135,0.22775,0.0062712496,0.030181998,-0.00027475,1742093824.2537012
0.00425,0.0095,0.22625,0.00390625,0.02832025,-0.000885,1742093824.268012
0.0155,-0.0045,0.22825,-0.0004425,0.02589425,-0.000885,1742093824.2825868
0.0365,-0.035,0.236,-0.00068675,0.0254975,-0.00019825,1742093824.297463
0.045,-0.0425,0.24125,0.0029145,0.026474,0.0013885,1742093824.311388
0.044,-0.0275,0.235,0.0054475004,0.027526751,0.0016175,1742093824.327009
0.0395,-0.00825,0.22625,0.0072632497,0.027649,0.00105275,1742093824.340142
0.0405,0.011,0.2095,0.0068969997,0.0237275,-0.00059500005,1742093824.354369
0.04725,0.004,0.20775,0.004837,0.021087749,-0.00024425,1742093824.368819
