acc_x,acc_y,acc_z,gyro_x,gyro_y,gyro_z,timestamp
0.01525,0.25,0.03625,-0.000534,0.00030525,0.00077825,1742093798.915166
0.01175,0.24625,0.033,-0.00065625,0.00035100002,0.000824,1742093798.9287412
0.012,0.24475,0.03175,-0.00027475,0.00027475,0.0013885,1742093798.942993
0.0155,0.245,0.0325,-0.00010675,0.00035100002,0.00143425,1742093798.958487
0.017,0.2445,0.03225,-3.0500001e-05,0.00048825,0.0010375,1742093798.9714592
0.017,0.24475,0.0325,-9.15e-05,0.00067150005,-0.00029,1742093798.9875891
0.014,0.2495,0.03375,-0.000473,0.00057975,-0.00065625,1742093799.00026
0.01225,0.25125,0.03475,-0.0015105,0.00039675,-0.00093075,1742093799.014763
0.01375,0.2445,0.0345,-0.001526,0.00029,-0.000824,1742093799.029063
0.016,0.241,0.0335,-0.000885,0.00024425,-0.000534,1742093799.043493
0.01725,0.2425,0.0335,-0.00051875,0.00042725,-0.00068675,1742093799.058756
0.016,0.244,0.0335,-0.00042725,0.00064075,-0.00125125,1742093799.072524
0.0155,0.24325,0.03275,-0.00064075,0.00067150005,-0.0014495,1742093799.088114
0.01525,0.2435,0.0315,-0.00096125,0.00074775,-0.001648,1742093799.101005
0.014,0.243,0.02925,-0.0016632499,0.000763,-0.00187675,1742093799.116375
0.01325,0.24,0.0265,-0.00177,0.00059500005,-0.001831,1742093799.129775
0.01525,0.23825,0.0265,-0.001068,0.00033575002,-0.001648,1742093799.14413
0.0185,0.236,0.0265,-0.00064075,0.00029,-0.00154125,1742093799.158767
0.01975,0.23775,0.027,-0.000229,0.00035100002,-0.00119025,1742093799.1731231
0.02025,0.2425,0.0275,-0.00029,0.0004425,-0.0010375,1742093799.187464
0.01975,0.2425,0.02725,-0.0005035,0.000473,-0.000946,1742093799.2018812
0.02,0.24175,0.02675,-0.00071725,0.00033575002,-0.00109875,1742093799.216717
0.02,0.2405,0.027,-0.00067150005,0.00029,-0.00131225,1742093799.2306728
0.02,0.24025,0.028,-0.0003205,0.0002595,-0.0012817499,1742093799.245057
0.022,0.239,0.0285,1.5250001e-05,0.00030525,-0.00099175,1742093799.2593799
0.02225,0.24025,0.029,0.00029,0.00039675,-0.00070200005,1742093799.2737012
0.02175,0.24475,0.03,0.0001525,0.00033575002,-0.00064075,1742093799.28797
0.02175,0.245,0.03,-0.00019825,0.0002135,-0.0005035,1742093799.302355
0.0225,0.24225,0.03,-0.00064075,0.0002595,-0.000534,1742093799.317169
0.0215,0.2415,0.02925,-0.000412,0.00035100002,-0.000763,1742093799.33114
0.0205,0.241,0.028,-9.15e-05,0.00016775,-0.00067150005,1742093799.346915
0.02225,0.2395,0.02775,1.5250001e-05,0.000122000005,-0.00065625,1742093799.3598661
0.02225,0.24025,0.02875,0.000183,0.0001525,-0.00062550005,1742093799.374183
0.021,0.242,0.02875,-0.00010675,6.1000002e-05,-7.625e-05,1742093799.3886678
0.0215,0.2435,0.02925,-0.00045775,0.0002595,0.0003815,1742093799.4029608
0.02025,0.246,0.02925,-0.00042725,0.0003205,-4.575e-05,1742093799.41738
0.01925,0.245,0.0285,-0.0004425,0.0001525,-0.00051875,1742093799.43177
0.02,0.243,0.02825,-0.0005035,-1.5250001e-05,-0.0007325,1742093799.446576
0.02175,0.2405,0.02875,-0.00036625,0.0001525,-0.00059500005,1742093799.460622
0.021,0.24125,0.02825,1.5250001e-05,0.0002135,-0.000534,1742093799.474881
0.02,0.24275,0.02675,4.575e-05,0.00010675,-0.0005035,1742093799.489168
0.021,0.243,0.0265,-0.0001525,0.000122000005,-0.00039675,1742093799.503743
0.02125,0.24225,0.02625,-0.00024425,7.625e-05,-0.00051875,1742093799.518085
0.02175,0.2405,0.02675,-0.00029,-1.5250001e-05,-0.00070200005,1742093799.532501
0.023,0.23875,0.027,-0.000183,-9.15e-05,-0.0008545,1742093799.547254
0.0245,0.23975,0.028,-0.0001525,0.0,-0.00077825,1742093799.561301
0.02475,0.24225,0.0285,-0.00048825,0.000183,-0.00062550005,1742093799.5768151
0.02375,0.247,0.029,-0.0007935,0.0002595,-0.00071725,1742093799.590092
0.02275,0.24675,0.0285,-0.0011445,0.0002595,-0.0010375,1742093799.604502
0.02275,0.24125,0.026,-0.001114,0.00019825,-0.0010375,1742093799.618871
0.02425,0.24,0.02575,-0.000763,9.15e-05,-0.00086975005,1742093799.633282
0.0275,0.241,0.027,-0.00064075,4.575e-05,-0.000824,1742093799.647617
0.02775,0.2405,0.02675,-0.00065625,7.625e-05,-0.00077825,1742093799.662009
0.0275,0.23925,0.026,-0.00074775,0.00036625,-0.000229,1742093799.6764119
0.02675,0.24125,0.025,-0.00074775,0.000473,0.00019825,1742093799.690677
0.0265,0.243,0.02525,-0.00093075,0.00054925,0.00061025,1742093799.705076
0.0255,0.24225,0.025,-0.00099175,0.00054925,0.00045775,1742093799.719351
0.02475,0.24075,0.024,-0.0007935,0.0004425,7.625e-05,1742093799.7337039
0.0245,0.24025,0.0235,-0.00067150005,0.00036625,4.575e-05,1742093799.7480772
0.0245,0.241,0.024,-0.00068675,0.00035100002,0.00010675,1742093799.7624042
0.02425,0.24075,0.02425,-0.00080875,0.0003815,0.00039675,1742093799.776937
0.02375,0.2415,0.0235,-0.00068675,0.00042725,0.00059500005,1742093799.791109
0.02275,0.24225,0.023,-0.0002135,0.000473,0.0007325,1742093799.805495
0.02275,0.24375,0.023,-0.00013725001,0.000412,0.00074775,1742093799.819756
0.023,0.2445,0.0235,-0.00024425,0.00027475,0.000534,1742093799.834101
0.022,0.2435,0.02375,-0.00027475,0.00024425,0.0002595,1742093799.848366
0.02175,0.242,0.0235,-0.00030525,0.000229,0.00010675,1742093799.8627641
0.02225,0.24075,0.02325,-0.0001525,0.0002135,0.000412,1742093799.8770869
0.023,0.24125,0.02325,0.0,0.00027475,0.0005645,1742093799.891402
0.0225,0.244,0.02375,0.00016775,0.00027475,0.0003205,1742093799.9057071
0.0215,0.24625,0.02475,3.0500001e-05,0.00019825,0.00013725001,1742093799.9199512
0.022,0.24575,0.025,-0.00051875,0.0002135,0.00010675,1742093799.934307
0.0225,0.24325,0.02525,-0.0007325,0.00029,0.000229,1742093799.9485881
0.0225,0.24125,0.0245,-0.000763,0.00036625,0.00033575002,1742093799.9629078
0.023,0.23975,0.02375,-0.00024425,0.00048825,0.00033575002,1742093799.977185
0.0205,0.242,0.022,-3.0500001e-05,0.00051875,0.000229,1742093799.991559
0.01925,0.24275,0.02175,-0.000183,0.00039675,0.000183,1742093800.005876
0.02025,0.243,0.02175,-0.00029,0.0003205,0.00010675,1742093800.020179
0.0205,0.243,0.021,-0.000473,0.00019825,-0.000229,1742093800.0347352
0.02225,0.241,0.021,-0.00064075,9.15e-05,-0.000229,1742093800.049089
0.02325,0.2405,0.02175,-0.00077825,6.1000002e-05,-0.0001525,1742093800.063493
0.02375,0.24025,0.02225,-0.00074775,0.0002135,-4.575e-05,1742093800.077881
0.02175,0.241,0.02225,-0.00057975,0.0002595,7.625e-05,1742093800.092225
0.02125,0.2415,0.02175,1.5250001e-05,0.00024425,0.00035100002,1742093800.106387
0.021,0.2445,0.02275,0.0001525,0.0002595,0.00030525,1742093800.120662
0.0205,0.245,0.02275,-6.1000002e-05,0.0001525,-3.0500001e-05,1742093800.13516
0.02125,0.24275,0.02275,-0.000229,9.15e-05,-0.000183,1742093800.1495738
0.022,0.242,0.02325,-0.00030525,6.1000002e-05,-0.00024425,1742093800.1639721
0.02175,0.24225,0.023,-0.0002135,0.00016775,-0.00027475,1742093800.1783638
0.02025,0.2415,0.0215,-6.1000002e-05,0.000183,-0.00029,1742093800.192777
0.021,0.2405,0.021,0.0002135,1.5250001e-05,-0.00019825,1742093800.208322
0.023,0.24075,0.02225,0.00027475,-4.575e-05,-9.15e-05,1742093800.221322
0.02325,0.2425,0.02325,0.00030525,0.0,-0.00027475,1742093800.235662
0.022,0.24475,0.02325,0.000122000005,3.0500001e-05,-0.000473,1742093800.250001
0.02175,0.24425,0.0225,-0.000229,1.5250001e-05,-0.0005645,1742093800.264323
0.022,0.24275,0.02175,-0.0007325,0.00010675,-0.000534,1742093800.278754
0.02225,0.241,0.021,-0.00064075,0.00013725001,-0.00051875,1742093800.293164
0.0225,0.2415,0.02125,-0.00010675,6.1000002e-05,-0.0002595,1742093800.308257
0.024,0.244,0.023,0.0,7.625e-05,-1.5250001e-05,1742093800.321833
0.0245,0.245,0.02375,1.5250001e-05,0.00035100002,-1.5250001e-05,1742093800.3369842
0.0225,0.2445,0.02175,-6.1000002e-05,0.00042725,-0.00019825,1742093800.350572
0.02175,0.24325,0.0205,-0.000183,0.00039675,-0.0003205,1742093800.364969
0.02175,0.24125,0.019,-0.00019825,0.0003815,-0.0004425,1742093800.379343
0.02225,0.24075,0.019,-0.000122000005,0.00035100002,-0.0004425,1742093800.39377
0.02275,0.241,0.0195,7.625e-05,0.0002135,-0.0003815,1742093800.408041
0.023,0.24125,0.02025,0.00013725001,0.00016775,-0.00024425,1742093800.422266
0.02375,0.24125,0.02075,0.000122000005,0.000122000005,0.000122000005,1742093800.436992
0.02425,0.24375,0.0225,0.000122000005,0.00016775,6.1000002e-05,1742093800.4507022
0.0235,0.244,0.0225,6.1000002e-05,0.0002135,-7.625e-05,1742093800.464927
0.023,0.2435,0.022,-0.000183,0.000229,-0.000229,1742093800.479268
0.02425,0.242,0.02125,-0.000229,0.00019825,-0.000229,1742093800.493609
0.0245,0.24175,0.02075,-4.575e-05,0.00016775,-0.00048825,1742093800.508529
0.0235,0.2415,0.02075,4.575e-05,0.00013725001,-0.0005645,1742093800.522123
0.02425,0.2415,0.02075,-0.00016775,9.15e-05,-0.0001525,1742093800.537267
0.0255,0.24075,0.021,-0.00029,0.00010675,1.5250001e-05,1742093800.550866
0.02475,0.24075,0.021,-0.00027475,0.000122000005,1.5250001e-05,1742093800.5662458
0.024,0.2415,0.021,-7.625e-05,0.00010675,-6.1000002e-05,1742093800.5795698
0.0225,0.245,0.02175,-3.0500001e-05,0.0001525,0.0,1742093800.593837
0.022,0.2455,0.02175,-0.000229,0.000229,7.625e-05,1742093800.608395
0.023,0.2435,0.0215,-0.0003205,0.0001525,3.0500001e-05,1742093800.6223428
0.02375,0.243,0.0215,-0.00010675,0.000122000005,-0.0002135,1742093800.636981
0.02275,0.2435,0.021,0.0,0.00016775,-0.00024425,1742093800.6510239
0.023,0.24425,0.02125,-9.15e-05,0.0001525,-0.000122000005,1742093800.6654541
0.0235,0.2445,0.02175,-0.000473,0.00024425,3.0500001e-05,1742093800.679768
0.02225,0.243,0.02075,-0.000534,0.00035100002,-0.00013725001,1742093800.694164
0.02125,0.242,0.02,-0.00036625,0.0003205,-0.00036625,1742093800.708587
0.02125,0.2425,0.02,-0.00027475,0.0002595,-0.00030525,1742093800.722955
0.02175,0.243,0.02025,-0.00029,0.00024425,-0.00013725001,1742093800.737311
0.0225,0.242,0.01975,-0.0002595,0.000229,-0.000183,1742093800.751723
0.023,0.24075,0.01925,-0.0001525,9.15e-05,-0.000229,1742093800.766937
0.0235,0.24,0.01875,-0.0001525,7.625e-05,-0.0001525,1742093800.780318
0.0235,0.24125,0.01925,-0.0001525,9.15e-05,-7.625e-05,1742093800.794733
0.02375,0.2425,0.02,-0.00030525,9.15e-05,-6.1000002e-05,1742093800.809095
0.024,0.2435,0.0215,-0.000412,9.15e-05,-9.15e-05,1742093800.82346
0.02375,0.243,0.02075,-0.00033575002,0.0001525,-0.0003205,1742093800.8378649
0.023,0.243,0.01975,-0.0002135,0.00013725001,-0.0004425,1742093800.852276
0.023,0.24325,0.02,-0.00010675,4.575e-05,-0.00059500005,1742093800.86687
0.02475,0.242,0.0205,-0.000183,0.0,-0.00061025,1742093800.8809202
0.02575,0.24125,0.0205,-0.00029,0.0,-0.00061025,1742093800.89534
0.02575,0.24075,0.0195,-0.0004425,0.000122000005,-0.00061025,1742093800.909763
0.0255,0.2385,0.01775,-0.00039675,9.15e-05,-0.00054925,1742093800.9241269
0.0255,0.23925,0.01775,-7.625e-05,3.0500001e-05,-0.00033575002,1742093800.9386308
0.02475,0.2425,0.0185,0.00010675,3.0500001e-05,-0.00033575002,1742093800.9529521
0.02475,0.2435,0.01875,0.0002135,-3.0500001e-05,-0.00048825,1742093800.967338
0.0255,0.24325,0.019,0.00013725001,-6.1000002e-05,-0.000534,1742093800.981757
0.026,0.243,0.019,3.0500001e-05,-4.575e-05,-0.000534,1742093800.997083
0.02625,0.2425,0.01875,-0.0001525,3.0500001e-05,-0.00045775,1742093801.010582
0.02625,0.24175,0.01775,-0.0002135,3.0500001e-05,-0.0003815,1742093801.024941
0.02625,0.24175,0.018,-0.00013725001,0.00010675,-0.000229,1742093801.039361
0.026,0.24225,0.01875,-6.1000002e-05,0.000183,-0.00013725001,1742093801.053749
0.026,0.2425,0.01875,0.000122000005,9.15e-05,-0.00016775,1742093801.068089
0.02575,0.24375,0.01925,0.00013725001,0.0,-0.0001525,1742093801.082361
0.026,0.2445,0.02,-4.575e-05,0.000183,-1.5250001e-05,1742093801.097119
0.026,0.2445,0.02,-0.00010675,0.00027475,-4.575e-05,1742093801.1110961
0.02525,0.2435,0.0195,-0.00013725001,0.000229,-0.00013725001,1742093801.1260428
0.02425,0.24275,0.01875,-0.00010675,0.00013725001,-0.00010675,1742093801.139925
0.02425,0.24425,0.01975,-0.00013725001,0.0001525,4.575e-05,1742093801.154235
0.02425,0.2445,0.01975,-0.0002135,0.00016775,7.625e-05,1742093801.168462
0.02375,0.244,0.0195,-0.000229,0.00016775,-7.625e-05,1742093801.1827729
0.02375,0.24275,0.019,-0.000183,0.000183,-0.00027475,1742093801.1971142
0.02425,0.241,0.018,-9.15e-05,0.00016775,-0.00030525,1742093801.211547
0.02425,0.241,0.01775,-3.0500001e-05,0.00010675,-0.0002595,1742093801.226599
0.02475,0.24075,0.01825,7.625e-05,0.0,-6.1000002e-05,1742093801.2401521
0.0255,0.2415,0.019,0.000122000005,3.0500001e-05,-4.575e-05,1742093801.254449
0.02475,0.242,0.0185,0.00016775,4.575e-05,-0.00010675,1742093801.2687411
0.025,0.242,0.01825,0.00016775,-3.0500001e-05,-0.000183,1742093801.283145
0.02575,0.2415,0.019,6.1000002e-05,-0.00013725001,-0.00016775,1742093801.297636
0.02675,0.2415,0.02,4.575e-05,-0.00010675,-0.000183,1742093801.3121269
0.027,0.24225,0.0205,9.15e-05,-4.575e-05,-0.000229,1742093801.326706
0.0265,0.243,0.0205,0.00010675,4.575e-05,-0.0002135,1742093801.340875
0.0255,0.2435,0.0195,4.575e-05,4.575e-05,-0.00016775,1742093801.3551428
0.02525,0.2435,0.019,1.5250001e-05,6.1000002e-05,-0.0002135,1742093801.369517
0.02475,0.24275,0.01825,3.0500001e-05,6.1000002e-05,-0.00035100002,1742093801.383842
0.02475,0.24225,0.018,4.575e-05,-4.575e-05,-0.00048825,1742093801.398238
0.02625,0.2415,0.01875,6.1000002e-05,-7.625e-05,-0.000412,1742093801.412525
0.027,0.2415,0.019,0.00010675,-7.625e-05,-0.00029,1742093801.426909
0.0275,0.242,0.0195,0.00010675,1.5250001e-05,-6.1000002e-05,1742093801.4412422
0.0275,0.2425,0.01975,4.575e-05,1.5250001e-05,0.0,1742093801.455353
0.0275,0.2415,0.02,6.1000002e-05,0.0,0.000122000005,1742093801.4695392
0.027,0.242,0.02025,0.0001525,6.1000002e-05,0.00010675,1742093801.483735
0.02625,0.24325,0.02,0.0002595,0.00016775,-0.000122000005,1742093801.498004
0.0255,0.2445,0.01925,0.0002135,0.0001525,-0.00019825,1742093801.5122619
0.02525,0.244,0.0195,0.00013725001,0.000122000005,-0.000229,1742093801.526547
0.0255,0.244,0.0205,6.1000002e-05,0.000122000005,-0.00016775,1742093801.540865
0.0265,0.24425,0.022,6.1000002e-05,0.00019825,-0.00013725001,1742093801.555139
0.02575,0.24425,0.02125,-4.575e-05,0.00036625,-1.5250001e-05,1742093801.5694442
0.02475,0.244,0.02025,-0.0001525,0.00039675,3.0500001e-05,1742093801.583752
0.0245,0.24375,0.01975,-0.00030525,0.0003815,-0.00010675,1742093801.598113
0.024,0.24225,0.01825,-0.00029,0.00033575002,-0.000229,1742093801.612552
0.0245,0.2415,0.018,-0.0002135,0.00024425,-0.00033575002,1742093801.627029
0.025,0.241,0.01825,-0.000122000005,0.000122000005,-0.0002595,1742093801.641325
0.02625,0.2415,0.019,-0.000122000005,0.00013725001,-0.00013725001,1742093801.655725
0.0265,0.24175,0.019,-0.00013725001,0.000229,-6.1000002e-05,1742093801.670105
0.02575,0.24125,0.01875,-0.00010675,0.0002135,-4.575e-05,1742093801.684509
0.026,0.24225,0.019,-0.00016775,0.00016775,4.575e-05,1742093801.698831
0.026,0.243,0.01875,-0.00030525,0.00019825,6.1000002e-05,1742093801.713109
0.0265,0.242,0.018,-0.000412,0.0002135,6.1000002e-05,1742093801.727436
0.0265,0.24125,0.01725,-0.00033575002,0.00016775,3.0500001e-05,1742093801.741725
0.0265,0.24175,0.01725,-0.00029,0.000122000005,4.575e-05,1742093801.756027
0.027,0.24225,0.01775,-0.0002595,0.00013725001,9.15e-05,1742093801.770237
0.0275,0.2425,0.0185,-0.00029,0.00019825,4.575e-05,1742093801.7845151
0.027,0.24175,0.01825,-0.00035100002,0.000183,6.1000002e-05,1742093801.7988448
0.0275,0.24175,0.019,-0.00036625,0.0001525,0.0001525,1742093801.813098
0.028,0.2425,0.0195,-0.00039675,0.00016775,0.000183,1742093801.827468
0.02825,0.24275,0.01975,-0.0005035,0.0002135,3.0500001e-05,1742093801.841734
0.02775,0.2415,0.0185,-0.0005645,0.000229,1.5250001e-05,1742093801.857423
0.027,0.24075,0.018,-0.0005645,0.00030525,0.00016775,1742093801.8702238
0.026,0.24,0.0175,-0.00048825,0.0003205,0.00029,1742093801.884494
0.0255,0.241,0.01725,-0.00033575002,0.00033575002,0.00039675,1742093801.898731
0.0245,0.242,0.017,-0.0003205,0.00036625,0.000412,1742093801.913016
0.02425,0.24175,0.0165,-0.0003815,0.00036625,0.0004425,1742093801.9273689
0.02425,0.2415,0.0165,-0.00051875,0.00030525,0.000473,1742093801.941649
0.024,0.24125,0.0165,-0.00051875,0.00029,0.00039675,1742093801.955937
0.0235,0.24125,0.016,-0.000412,0.00029,0.00024425,1742093801.970227
0.02225,0.241,0.015,-0.00036625,0.00024425,0.0002595,1742093801.98456
0.022,0.24125,0.015,-0.00030525,6.1000002e-05,0.00033575002,1742093801.998865
0.02275,0.2435,0.017,-0.0003205,-1.5250001e-05,0.0003815,1742093802.013236
0.02375,0.2435,0.0175,-0.0003205,-4.575e-05,0.00042725,1742093802.0275788
0.02425,0.243,0.01775,-0.000229,1.5250001e-05,0.00045775,1742093802.041888
0.024,0.24375,0.018,-0.000183,4.575e-05,0.00045775,1742093802.0561652
0.023,0.24575,0.01825,-0.0002595,0.00013725001,0.000229,1742093802.070456
0.02175,0.24675,0.0175,-0.00033575002,0.0001525,-4.575e-05,1742093802.0848541
0.0215,0.2445,0.01625,-0.00024425,7.625e-05,-0.00057975,1742093802.0992472
0.022,0.24125,0.015,-7.625e-05,4.575e-05,-0.00061025,1742093802.113558
0.02275,0.242,0.01525,6.1000002e-05,0.0,-0.00051875,1742093802.127855
0.023,0.24325,0.01525,4.575e-05,-1.5250001e-05,-0.00035100002,1742093802.142245
0.0235,0.243,0.015,-3.0500001e-05,0.0,-0.00035100002,1742093802.156546
0.024,0.24225,0.015,-7.625e-05,1.5250001e-05,-0.00042725,1742093802.170902
0.0245,0.24225,0.01425,-9.15e-05,1.5250001e-05,-0.000412,1742093802.1853309
0.02425,0.243,0.014,-0.00010675,-3.0500001e-05,-0.00042725,1742093802.199837
0.02475,0.2435,0.0145,-4.575e-05,-7.625e-05,-0.00045775,1742093802.2143402
0.02575,0.243,0.0145,1.5250001e-05,-0.00010675,-0.0004425,1742093802.2351649
0.02675,0.24275,0.01475,0.0001525,-0.00010675,-0.00039675,1742093802.247297
0.02875,0.244,0.01625,0.00019825,-4.575e-05,-0.000473,1742093802.257557
0.029,0.24425,0.01675,9.15e-05,7.625e-05,-0.00057975,1742093802.279003
0.029,0.24375,0.01675,-1.5250001e-05,0.000122000005,-0.00048825,1742093802.293029
0.029,0.244,0.017,-0.00013725001,0.0002595,-0.0004425,1742093802.300718
0.02875,0.243,0.0165,-0.00010675,0.00030525,-0.000534,1742093802.318371
0.02825,0.24175,0.01575,-3.0500001e-05,0.00033575002,-0.00062550005,1742093802.335753
0.028,0.24025,0.015,6.1000002e-05,0.00036625,-0.0003815,1742093802.345172
0.0285,0.24075,0.0155,9.15e-05,0.00039675,-0.00013725001,1742093802.361611
0.028,0.242,0.016,0.000122000005,0.000473,6.1000002e-05,1742093802.374462
0.02525,0.24375,0.01575,9.15e-05,0.0005035,1.5250001e-05,1742093802.392464
0.02425,0.243,0.015,-1.5250001e-05,0.000473,-7.625e-05,1742093802.400985
0.02425,0.24175,0.01475,6.1000002e-05,0.00039675,-7.625e-05,1742093802.41536
0.02475,0.242,0.01625,0.0002135,0.0003205,-0.00010675,1742093802.429693
0.02525,0.24225,0.0175,0.00042725,0.00024425,-6.1000002e-05,1742093802.443836
0.02625,0.24225,0.0185,0.000412,0.00024425,4.575e-05,1742093802.4620001
0.026,0.24225,0.01875,0.000412,0.00024425,0.000229,1742093802.473119
0.02425,0.24275,0.0185,0.0003815,0.00024425,0.00029,1742093802.4884758
0.02325,0.24275,0.01775,0.0002595,0.0002595,0.00033575002,1742093802.500556
0.02125,0.24,0.0155,0.0001525,0.0002595,0.00035100002,1742093802.514805
0.0215,0.23875,0.01475,0.00010675,0.000183,0.00039675,1742093802.52978
0.02175,0.23825,0.0145,0.00042725,-4.575e-05,0.00036625,1742093802.5437498
0.02275,0.23825,0.0145,0.00070200005,-0.0001525,0.00029,1742093802.5582132
