acc_x,acc_y,acc_z,gyro_x,gyro_y,gyro_z,timestamp
0.06075,0.001,0.256,0.0046234997,0.01737975,-0.00154125,1741836222.7911649
0.0635,-0.00825,0.236,0.00355525,0.017883249,-0.0016632499,1741836222.80396
0.06775,-0.01475,0.23475,-0.0003815,0.0168,-0.0012665,1741836222.81847
0.0815,-0.01275,0.25775,-0.00019825,0.01661675,-0.0007935,1741836222.83408
0.0855,-0.0025,0.26675,0.0049742498,0.01820375,-0.0005035,1741836222.847581
0.08375,-0.0095,0.24575,0.00737,0.02023325,-0.0011445,1741836222.862159
0.08875,-0.0195,0.23225,0.007965,0.022216748,-0.001831,1741836222.8765812
0.09375,-0.028,0.22,0.00538625,0.021759002,-0.0017242499,1741836222.891039
0.102,-0.032,0.218,0.004074,0.02034,-0.0012207499,1741836222.906829
0.10575,-0.024,0.22275,0.00393675,0.018402,-0.00048825,1741836222.920254
0.109,-0.00725,0.21675,0.0043182503,0.01835625,-0.0004425,1741836222.9349592
0.11275,-0.01,0.2095,0.0038757501,0.0184785,-0.00080875,1741836222.949378
0.1205,-0.01825,0.19625,0.00296025,0.01779175,-0.00093075,1741836222.964563
0.123,-0.02,0.19025,0.00267025,0.015304499,-0.001068,1741836222.978355
0.12775,-0.0255,0.18,0.00352475,0.0139465,-0.00102225,1741836222.994247
0.12925,-0.02525,0.17925,0.00419625,0.010803251,-0.0007325,1741836223.007412
0.13125,-0.02,0.186,0.0035704998,0.00935375,-0.00064075,1741836223.0218759
0.133,-0.02225,0.18575,0.00201425,0.007309,-0.000534,1741836223.0363588
0.137,-0.028,0.1835,0.0010375,0.0062407497,-0.00036625,1741836223.050849
0.13875,-0.02725,0.1905,-1.5250001e-05,0.00491325,-0.00013725001,1741836223.065548
0.13925,-0.02525,0.2015,-0.00036625,0.0030365,0.0001525,1741836223.0800939
0.139,-0.02375,0.21625,0.0002595,0.0032655,0.00013725001,1741836223.094493
0.139,-0.02375,0.213,0.000946,0.004547,0.00013725001,1741836223.1090848
0.13975,-0.025,0.19775,0.00083925005,0.0044555003,0.000229,1741836223.124299
0.1405,-0.024,0.194,0.00119025,0.0028229998,0.00027475,1741836223.137962
0.142,-0.0245,0.19825,0.00163275,0.0019685,0.00027475,1741836223.1524532
0.14225,-0.0245,0.2035,0.0015565,0.00187675,0.00016775,1741836223.1669939
0.14375,-0.023,0.2135,0.001007,0.0025025,0.00013725001,1741836223.181522
0.1445,-0.022,0.21425,0.0004425,0.0041810004,6.1000002e-05,1741836223.196019
0.147,-0.02225,0.20875,0.00077825,0.00494375,-4.575e-05,1741836223.2106318
0.149,-0.02475,0.2035,0.0014037499,0.0055847503,-0.000183,1741836223.225125
0.151,-0.0315,0.19675,0.0027312501,0.0055847503,-0.00035100002,1741836223.239579
0.1505,-0.03225,0.19925,0.0027312501,0.00505075,-0.00030525,1741836223.254088
0.1505,-0.031,0.20475,0.0021515,0.0052337497,-0.00010675,1741836223.2686121
0.153,-0.02875,0.21575,0.0022735,0.0060882503,-4.575e-05,1741836223.283087
0.154,-0.02675,0.2165,0.00283825,0.008148249,7.625e-05,1741836223.297502
0.15575,-0.024,0.207,0.0027160002,0.00912475,6.1000002e-05,1741836223.312002
0.1565,-0.02475,0.19825,0.00314325,0.01033025,-0.0001525,1741836223.3265622
0.15825,-0.028,0.188,0.0038605002,0.0102845,-0.00033575002,1741836223.3410869
0.15875,-0.0295,0.1915,0.00354,0.00953675,-0.00099175,1741836223.3573508
0.16125,-0.0365,0.19675,0.00302125,0.009643501,-0.00109875,1741836223.370085
0.163,-0.04025,0.1935,0.00267025,0.0109709995,-0.00045775,1741836223.3850229
0.166,-0.0395,0.18075,0.0027160002,0.01121525,-4.575e-05,1741836223.39913
0.16725,-0.03875,0.17275,0.002777,0.011123749,0.00019825,1741836223.4143841
0.17,-0.039,0.16775,0.00289925,0.010299751,0.0003205,1741836223.428064
0.1765,-0.0345,0.1635,0.00308225,0.00947575,0.00042725,1741836223.44248
0.17825,-0.0335,0.1595,0.00381475,0.007782,0.00054925,1741836223.458286
0.179,-0.037,0.1285,0.00491325,0.0068207504,0.000473,1741836223.471353
0.16925,-0.0375,0.069,0.010253999,-0.0030669998,0.001114,1741836223.4858
0.1325,-0.06,-0.203,0.012313751,-0.0194855,0.0033875,1741836223.500424
0.09375,-0.057,-0.36225,0.0033264998,-0.088272005,0.01187125,1741836223.515
-0.1125,0.077,-0.51525,-0.00785825,-0.1356965,0.0149995005,1741836223.529793
-0.289,0.16125,-0.516,-0.01675425,-0.22552499,0.00567625,1741836223.544816
-0.708,0.19125,-0.28475,-0.00903325,-0.2556,-0.0063934997,1741836223.5592692
-0.861,0.119,-0.09425,0.00276175,-0.27534476,-0.0231475,1741836223.574508
-0.8445,-0.18125,0.465,-0.00270075,-0.2655335,-0.02342225,1741836223.588902
-0.7555,-0.26875,0.82025,-0.045776248,-0.19500725,-0.0043335,1741836223.6036549
-0.537,-0.179,1.0,-0.0552825,-0.1436005,0.00723275,1741836223.618277
-0.43825,-0.1155,0.97025,-0.043457,-0.091629,0.0129700005,1741836223.634418
-0.3045,0.005,0.37525,-0.0054780003,-0.01879875,0.013382,1741836223.6477
-0.23875,0.0625,0.111,4.575e-05,-0.00372325,0.012832751,1741836223.662287
-0.1775,0.09925,0.0185,-0.00109875,0.0032347501,0.010528499,1741836223.676803
-0.1105,0.091,0.15425,-0.0008545,0.00408925,0.00791925,1741836223.691294
-0.103,0.0635,0.22175,0.0025940002,0.01104725,0.00125125,1741836223.70731
-0.1245,0.017,0.25075,0.00408925,0.016845752,-0.00154125,1741836223.720148
-0.152,0.00975,0.24025,0.00555425,0.026825001,-0.00390625,1741836223.735083
-0.209,0.016,0.1855,0.00643925,0.028015248,-0.00358575,1741836223.7491531
-0.21925,0.0235,0.15275,0.00662225,0.02412425,-0.00354,1741836223.764703
-0.2175,0.0245,0.13925,0.0068207504,0.021484248,-0.0047150003,1741836223.7781608
-0.21075,0.008,0.16525,0.00662225,0.01911925,-0.00712575,1741836223.792601
-0.19575,-0.035,0.232,0.00561525,0.02073675,-0.00770575,1741836223.807175
-0.1925,-0.0495,0.25475,0.0045777503,0.02415475,-0.00764475,1741836223.8216572
-0.18875,-0.05125,0.25475,0.0026854998,0.03230275,-0.0049895,1741836223.8362398
-0.18825,-0.04075,0.2405,0.00184625,0.035553,-0.0029145,1741836223.85095
-0.18675,-0.02975,0.22025,0.0001525,0.03862,0.000122000005,1741836223.8654249
-0.1725,-0.01925,0.1805,-0.0012665,0.03793325,0.00035100002,1741836223.879997
-0.159,-0.0205,0.18325,-0.00231925,0.03421025,-0.00065625,1741836223.8948522
-0.13625,-0.021,0.217,-0.000824,0.0331725,-0.0010375,1741836223.9095309
-0.13025,-0.01475,0.22475,0.0029449998,0.033966,-0.0014495,1741836223.924625
-0.12425,-0.007,0.223,0.00225825,0.034118753,-0.0015105,1741836223.9386618
-0.1255,-0.00525,0.22675,-0.0044250004,0.0326995,-0.0005035,1741836223.953333
-0.11575,-0.002,0.2275,-0.0068969997,0.032821752,6.1000002e-05,1741836223.967926
-0.10675,-0.006,0.2265,-0.00935375,0.0341035,-0.00030525,1741836223.982537
-0.08875,-0.0105,0.2285,-0.00935375,0.033844,-0.001007,1741836223.997238
-0.082,-0.011,0.23625,-0.00564575,0.031845,-0.0024872501,1741836224.0120199
-0.08125,-0.00075,0.2465,-0.0028687501,0.03164675,-0.0029907501,1741836224.0267782
-0.08,0.0035,0.235,0.00157175,0.031188998,-0.0028687501,1741836224.041327
-0.068,0.00075,0.21875,0.001175,0.02977,-0.0028074998,1741836224.057289
-0.05875,-0.00825,0.227,-0.0005645,0.028122,-0.00283825,1741836224.070434
-0.04225,-0.0225,0.2625,-0.0037995,0.026733499,-0.0018005001,1741836224.085251
-0.0385,-0.01625,0.269,-0.00369275,0.0276185,-0.00099175,1741836224.099803
-0.0355,-0.0065,0.26325,-0.0005035,0.03070075,-0.00112925,1741836224.114579
-0.028,0.004,0.24875,0.00064075,0.031356752,-0.0020599999,1741836224.128934
-0.02275,0.002,0.25225,0.000763,0.031311,-0.00328075,1741836224.144573
-0.01175,-0.00525,0.26625,0.000946,0.031662002,-0.00302125,1741836224.158002
-0.00725,-0.0075,0.26325,0.00364675,0.033325247,-0.0021819999,1741836224.1726131
0.00525,-0.00275,0.24,0.0049285004,0.0346985,-0.002472,1741836224.187123
0.01425,0.00325,0.234,0.00564575,0.035797,-0.0039825,1741836224.2014568
0.0295,-0.00475,0.231,0.0044707498,0.034835752,-0.0043639997,1741836224.215997
0.037,-0.012,0.23475,0.0017242499,0.032608002,-0.00367725,1741836224.230575
0.045,-0.0145,0.2435,0.00177,0.0317535,-0.002777,1741836224.2450602
0.04725,-0.008,0.2415,0.0032655,0.031128,-0.0018615,1741836224.259579
0.0535,-0.008,0.2245,0.00372325,0.031066999,-0.0019989999,1741836224.2745779
0.0605,-0.01375,0.21925,0.0035095,0.0306855,-0.0022125002,1741836224.28855
0.06775,-0.017,0.22075,0.00314325,0.028747499,-0.00239575,1741836224.303047
0.0785,-0.01875,0.2165,0.00453175,0.027847249,-0.002365,1741836224.317555
0.084,-0.02025,0.21725,0.0078125,0.026062,-0.0018615,1741836224.332076
0.092,-0.01575,0.2295,0.0080872495,0.02575675,-0.0014495,1741836224.346547
0.096,-0.019,0.228,0.00640875,0.02708425,-0.000534,1741836224.3610508
0.10675,-0.034,0.21375,0.0050355,0.027557248,0.0002135,1741836224.37555
0.11275,-0.03775,0.21175,0.0019685,0.02613825,0.0017852499,1741836224.389958
0.116,-0.01325,0.22575,0.00216675,0.025833251,0.00193775,1741836224.404483
0.116,-0.001,0.2235,0.007187,0.028305,1.5250001e-05,1741836224.418894
0.1285,-0.014,0.2025,0.00930775,0.029220501,-0.0011445,1741836224.434525
0.13425,-0.02425,0.19525,0.009231499,0.028534,-0.0015565,1741836224.447875
0.13925,-0.03075,0.1925,0.00296025,0.024765,-0.0002135,1741836224.462312
0.144,-0.02775,0.18575,0.00051875,0.02415475,0.0007935,1741836224.4766788
0.1445,-0.02575,0.1605,0.00276175,0.024810748,0.001953,1741836224.491093
0.1375,-0.01325,0.063,0.00396725,0.0230255,0.0018615,1741836224.505436
0.11925,0.004,-0.044,0.00555425,0.00617975,0.0023345,1741836224.5199292
0.08725,0.00525,-0.4885,0.00444025,-0.018982,0.004486,1741836224.535486
0.03125,0.0265,-0.634,-0.019226,-0.11605825,0.0077972496,1741836224.549126
-0.23475,0.14925,-0.54325,-0.026840251,-0.168045,0.0048674997,1741836224.5647612
-0.415,0.1895,-0.494,-0.014419501,-0.24296574,-0.0093995,1741836224.5785658
-0.79175,0.173,-0.17975,-0.013564999,-0.264557,-0.017151,1741836224.5946639
-0.8925,0.07975,0.111,-0.03828425,-0.2593995,-0.0213165,1741836224.608063
-0.887,-0.17975,0.85575,-0.056762747,-0.2345885,-0.01289375,1741836224.622804
-0.78725,-0.18775,1.0,-0.06793225,-0.194336,0.0016175,1741836224.637372
-0.47825,-0.0175,0.989,-0.0382995,-0.08329775,0.020599252,1741836224.65204
-0.36575,0.05175,0.78425,-0.01071175,-0.034546003,0.020141501,1741836224.666663
-0.296,0.107,0.476,0.0089875,0.010879501,0.0157165,1741836224.681063
-0.18825,0.12825,0.0755,0.009002751,0.0154115,0.01301575,1741836224.695441
-0.136,0.10075,0.07225,0.00883475,0.01301575,0.0061035,1741836224.7099159
-0.09625,0.043,0.196,0.00717175,0.01248175,0.0029449998,1741836224.725096
-0.117,0.0265,0.2155,0.00381475,0.01452625,-0.00051875,1741836224.738901
-0.16625,0.01625,0.16,0.0021057501,0.0138245,-0.0005645,1741836224.7533739
-0.1765,0.02075,0.138,0.0003815,0.008407501,6.1000002e-05,1741836224.7678258
-0.17,0.022,0.15025,0.00080875,0.0060577504,0.00010675,1741836224.782191
-0.165,0.01625,0.171,0.00242625,0.0056304997,-0.000183,1741836224.796627
-0.168,0.00775,0.21125,0.00364675,0.00764475,-0.000534,1741836224.811163
-0.17625,0.00825,0.22025,0.0047607496,0.01071175,-0.00096125,1741836224.82561
-0.18325,0.0105,0.216,0.0038605002,0.016693002,-0.00105275,1741836224.840044
-0.18,0.0155,0.18675,0.0022277501,0.0186615,-0.00109875,1741836224.854505
-0.1735,0.01525,0.17775,0.00062550005,0.01991275,-0.001831,1741836224.869041
-0.1585,0.006,0.18775,0.0012665,0.019470248,-0.00225825,1741836224.88515
-0.15225,-0.00125,0.205,0.00511175,0.01965325,-0.0029755002,1741836224.8981152
-0.15425,-0.00125,0.226,0.00747675,0.021225,-0.0032195,1741836224.9126348
-0.163,0.00625,0.2205,0.0093995,0.0236665,-0.002655,1741836224.927136
-0.16675,0.0205,0.19825,0.00817875,0.022995,-0.0020295,1741836224.941576
-0.16075,0.0185,0.191,0.00364675,0.0205535,-0.00242625,1741836224.9571111
-0.14475,0.001,0.197,0.0019225,0.0195465,-0.0030669998,1741836224.9705322
-0.13625,-0.01025,0.21675,0.0012055,0.018920999,-0.00352475,1741836224.9851809
-0.12,-0.026,0.267,0.00201425,0.020401,-0.003296,1741836224.999777
-0.118,-0.02325,0.285,0.00302125,0.022491502,-0.00283825,1741836225.014893
-0.12275,-0.00825,0.29225,0.0054475004,0.027587999,-0.00187675,1741836225.0289652
-0.13375,0.03,0.25375,0.00585925,0.029220501,-0.00160225,1741836225.044836
-0.12825,0.03425,0.22675,0.0021819999,0.028946,-0.00305175,1741836225.058021
-0.10775,0.01125,0.2045,-0.001007,0.027709998,-0.0042572496,1741836225.0726159
-0.097,-0.00475,0.20975,-0.0029907501,0.024932751,-0.0048674997,1741836225.087297
-0.07875,-0.0215,0.24025,-0.00035100002,0.02442925,-0.004242,1741836225.101961
-0.07275,-0.016,0.25325,0.00935375,0.02630625,-0.0032195,1741836225.116609
-0.07025,-0.00225,0.2635,0.01228325,0.028061,-0.00354,1741836225.131142
-0.07075,-0.00175,0.265,0.011078,0.032226503,-0.0044555003,1741836225.1456761
-0.06875,-0.011,0.2495,0.01048275,0.034408502,-0.0043639997,1741836225.160257
-0.0645,-0.0155,0.2365,0.012496999,0.03648375,-0.002533,1741836225.174873
-0.04125,-0.0175,0.24025,0.012680001,0.035949748,-0.001892,1741836225.189421
-0.03325,-0.018,0.25475,0.0110932505,0.03508,-0.0019685,1741836225.20403
-0.02525,-0.02,0.2795,0.007187,0.0381165,-0.004013,1741836225.218604
-0.02075,-0.0255,0.28675,0.00717175,0.04188525,-0.00514225,1741836225.234612
-0.01675,-0.03575,0.28525,0.00941475,0.04322825,-0.00408925,1741836225.247873
-0.015,-0.03425,0.2725,0.00962825,0.041793752,-0.0022277501,1741836225.2624168
-0.00975,-0.027,0.258,0.0085755,0.041610748,4.575e-05,1741836225.276905
0.01325,-0.02025,0.24825,0.00708,0.041869998,0.000122000005,1741836225.291224
0.02275,-0.01925,0.25375,0.0058135,0.04287725,-9.15e-05,1741836225.305789
0.0365,-0.0215,0.24475,0.0063934997,0.043518003,0.00010675,1741836225.3201432
0.0465,-0.0205,0.235,0.0051574996,0.04164125,0.00115975,1741836225.335201
0.06075,-0.03775,0.214,0.0026092501,0.03939825,0.002121,1741836225.34895
0.068,-0.04675,0.20225,-0.004242,0.036148,0.0052947504,1741836225.36478
0.0805,-0.04525,0.1915,-0.005783,0.0349885,0.0070495,1741836225.3780339
0.087,-0.0275,0.191,-0.0052642496,0.033508252,0.008209251,1741836225.392535
0.09225,-0.0105,0.1865,-0.0017395001,0.030365,0.0075072497,1741836225.407199
0.10375,-0.00075,0.18325,-9.15e-05,0.029296748,0.006073,1741836225.421521
0.1105,-0.00925,0.18,0.0039215,0.02674875,0.0036162501,1741836225.435915
0.11675,-0.01,0.16925,0.0064850003,0.025085501,0.0031889998,1741836225.450443
0.11475,-0.00975,0.158,0.01033025,0.022521999,0.00292975,1741836225.46512
0.11475,-0.02325,0.1275,0.00982675,0.02073675,0.002884,1741836225.479396
0.1195,-0.022,0.11175,0.0077210004,0.01390075,0.00225825,1741836225.494845
0.1065,-0.001,0.0225,0.009384249,0.008026,0.00157175,1741836225.508132
0.09375,0.0035,-0.105,0.010742251,-0.01937875,0.003128,1741836225.522673
0.0385,0.025,-0.424,0.00030525,-0.04927075,0.00491325,1741836225.537106
-0.0415,0.0605,-0.49475,-0.0155030005,-0.09031675,0.0052947504,1741836225.551789
-0.15875,0.1,-0.48175,-0.018631,-0.180664,-0.0030669998,1741836225.5665321
-0.47825,0.134,-0.34625,-0.00204475,-0.21643075,-0.01086425,1741836225.581291
-0.64975,0.113,-0.228,0.0106355,-0.255066,-0.026397752,1741836225.5959969
-0.851,-0.1305,0.411,-0.00292975,-0.25460824,-0.02822875,1741836225.610834
-0.8335,-0.24925,0.843,-0.035141,-0.19729625,-0.00991825,1741836225.625526
-0.62725,-0.1305,1.0,-0.03872675,-0.13938901,0.00067150005,1741836225.640169
-0.497,-0.02875,0.9595,-0.009887749,-0.03471375,0.00314325,1741836225.654942
-0.2755,0.0095,0.4025,0.0020905002,-0.0072937496,7.625e-05,1741836225.6694772
-0.188,-0.0245,0.19525,0.003891,0.011383001,0.00160225,1741836225.685044
-0.0995,-0.01925,0.1325,0.00416575,0.01260375,0.00561525,1741836225.698532
-0.092,0.023,0.16825,0.0060577504,0.01358025,0.006668,1741836225.714599
-0.12375,0.033,0.214,0.00355525,0.015289251,0.0023345,1741836225.72739
-0.14575,0.00025,0.21275,-0.00352475,0.01675425,-0.0036162501,1741836225.741888
-0.17425,-0.02375,0.18525,-0.00354,0.015228249,-0.00283825,1741836225.757183
-0.1755,-0.01225,0.16275,-0.000473,0.0112305,0.00027475,1741836225.771245
-0.16725,0.00175,0.13975,-0.0005645,0.0100555,0.00045775,1741836225.7857542
-0.1645,-0.0105,0.15825,-0.00125125,0.00985725,-0.00035100002,1741836225.800458
-0.1635,-0.03075,0.18825,0.00036625,0.013198749,-0.0019989999,1741836225.815238
-0.1735,-0.04025,0.2315,0.00320425,0.01661675,-0.00187675,1741836225.829608
-0.1835,-0.02525,0.227,0.00770575,0.0220185,-0.00035100002,1741836225.8450189
-0.1855,-0.005,0.17325,0.006607,0.0223235,0.0001525,1741836225.858546
-0.177,-0.01125,0.15225,-0.00108325,0.01965325,-0.00065625,1741836225.874736
-0.15625,-0.03775,0.1695,-0.00396725,0.017578252,-0.000946,1741836225.8879108
-0.1475,-0.04025,0.1985,-0.0025634998,0.01496875,0.00068675,1741836225.902509
-0.13975,-0.018,0.2435,0.000885,0.01567075,0.001419,1741836225.917025
-0.14375,-0.003,0.24875,0.0068512503,0.01950075,0.00057975,1741836225.9315012
-0.15725,0.0085,0.206,0.006607,0.02038575,6.1000002e-05,1741836225.9458802
-0.1535,0.00075,0.18325,-0.0013275,0.01814275,-0.0008545,1741836225.960438
-0.13625,-0.01925,0.18875,-0.00444025,0.01634225,-0.0013580001,1741836225.975109
-0.12825,-0.0285,0.211,-0.0046234997,0.01463325,-0.0014037499,1741836225.989758
-0.119,-0.02875,0.26325,0.00036625,0.0135955,0.0002595,1741836226.004213
-0.119,-0.01775,0.279,0.0030975002,0.0151825,0.00105275,1741836226.0187168
-0.1235,-0.00475,0.277,0.0065917503,0.021103,0.000229,1741836226.0345962
-0.13175,0.00575,0.226,0.0061339997,0.0229035,-0.000763,1741836226.047877
-0.1265,-0.00375,0.20275,-0.000946,0.022461,-0.00238025,1741836226.062495
-0.10525,-0.03375,0.20975,-0.0049285004,0.02162175,-0.0025940002,1741836226.077169
-0.09625,-0.04225,0.22825,-0.0047912505,0.02114875,-0.0007325,1741836226.0919318
-0.0865,-0.034,0.25825,-0.00074775,0.021759002,0.00051875,1741836226.1078908
-0.08575,-0.024,0.271,0.0075682504,0.02537525,0.00093075,1741836226.121022
-0.09075,-0.00975,0.27325,0.008788999,0.028,0.0003815,1741836226.1354282
-0.09125,-0.01375,0.2555,0.00444025,0.031784,-0.000763,1741836226.1501608
-0.07325,-0.027,0.2345,0.001526,0.03344725,-0.001419,1741836226.1648371
-0.06325,-0.029,0.23925,0.00093075,0.03445425,-0.0013275,1741836226.1794071
-0.04875,-0.02225,0.245,0.0029449998,0.0332795,-0.00068675,1741836226.194429
-0.0415,-0.0175,0.244,0.0051574996,0.031952,-0.00030525,1741836226.20857
-0.02975,-0.019,0.255,0.0072175004,0.0301665,-0.0002135,1741836226.22431
-0.023,-0.027,0.26375,0.0073395,0.03025825,-6.1000002e-05,1741836226.2377222
-0.0185,-0.03325,0.275,0.00596625,0.0338745,0.0005035,1741836226.2522619
-0.01725,-0.03575,0.272,0.0060272496,0.03677375,0.000946,1741836226.266777
-0.0155,-0.03875,0.25275,0.00587475,0.038971,0.0020752498,1741836226.281281
-0.002,-0.03975,0.23675,0.0044555003,0.03816225,0.00254825,1741836226.2957811
0.00475,-0.034,0.24125,0.003891,0.037201,0.00331125,1741836226.3102431
0.01725,-0.0225,0.23825,0.00517275,0.037277248,0.00328075,1741836226.324835
0.0245,-0.0215,0.235,0.00668325,0.036620997,0.00267025,1741836226.339031
0.0405,-0.038,0.24725,0.0065612504,0.03598025,0.00251775,1741836226.353451
0.0465,-0.049,0.2595,0.00741575,0.037262,0.00358575,1741836226.367918
0.051,-0.05,0.24525,0.008346501,0.038147,0.0047302498,1741836226.382415
0.0525,-0.03725,0.2235,0.008514499,0.038345248,0.0057677496,1741836226.3969321
0.05675,-0.0195,0.2055,0.0064239996,0.037262,0.0049590003,1741836226.4114602
0.0825,-0.014,0.185,0.00541675,0.0358125,0.003296,1741836226.425958
0.094,-0.02725,0.18775,0.00367725,0.030014,0.00131225,1741836226.440458
0.099,-0.0495,0.20775,0.0042115003,0.028366,0.0012665,1741836226.4548779
0.1015,-0.05175,0.213,0.00712575,0.02949525,0.00254825,1741836226.469248
0.11175,-0.0465,0.182,0.00694275,0.02978525,0.0033875,1741836226.485095
0.1165,-0.03625,0.15925,0.0026245,0.02626025,0.0038605002,1741836226.498142
0.12075,-0.0105,0.102,0.0023497501,0.02227775,0.00308225,1741836226.512606
0.10925,-0.0105,0.03825,0.00428775,0.00744625,0.001526,1741836226.5271628
0.076,-0.0045,-0.25575,0.00239575,-0.00889575,0.0022735,1741836226.541774
0.04325,0.03975,-0.41175,-0.00437925,-0.037201,0.00358575,1741836226.5586948
-0.0285,0.11425,-0.48225,-0.02401725,-0.12374875,-0.0011445,1741836226.57112
-0.2365,0.187,-0.406,-0.02500925,-0.1632995,-0.008727999,1741836226.585841
-0.35575,0.1755,-0.4005,-0.0136565,-0.21638475,-0.022491502,1741836226.6006389
-0.6625,0.0755,-0.204,-0.00564575,-0.23840325,-0.02680975,1741836226.61544
-0.793,-0.04325,0.06725,-0.0089569995,-0.2433625,-0.0306855,1741836226.63025
-0.85975,-0.306,0.869,-0.0299835,-0.21905525,-0.024582,1741836226.645181
-0.7515,-0.29975,1.0,-0.056686502,-0.1201935,0.00231925,1741836226.659613
-0.46125,-0.0875,0.95475,-0.030426001,-0.06427,0.011016751,1741836226.674895
-0.3625,-0.002,0.69675,0.018432502,0.00378425,0.013290499,1741836226.6888409
-0.21775,0.07775,0.15575,0.014053251,0.0153655,0.011856,1741836226.703368
-0.1655,0.08,0.0885,0.0035704998,0.017578252,0.00747675,1741836226.7178812
-0.1125,0.057,0.212,0.0037537501,0.01681525,0.0045625,1741836226.732228
-0.11725,0.0395,0.25675,0.0023497501,0.021103,-0.00169375,1741836226.746731
-0.16175,0.00575,0.19175,-0.00042725,0.023056,-0.0032347501,1741836226.761374
-0.1805,-0.00075,0.1245,-0.0075072497,0.01794425,-0.0033570002,1741836226.7769952
-0.1765,-0.0115,0.074,-0.0095672505,0.012756251,-0.00325,1741836226.790602
-0.163,-0.0175,0.099,-0.009781,0.008484,-0.00317375,1741836226.806611
-0.143,-0.02925,0.17975,-0.0055237496,0.0060272496,-0.0024872501,1741836226.819905
-0.1445,-0.03275,0.215,-0.002533,0.0077972496,-0.0022735,1741836226.834574
-0.1565,-0.03075,0.23075,0.00108325,0.014724749,-0.0021819999,1741836226.849217
-0.1725,-0.025,0.19275,0.0002135,0.0170745,-0.0015565,1741836226.864815
-0.16675,-0.02725,0.16175,-0.00561525,0.01808175,-0.00090025004,1741836226.878444
-0.15025,-0.0365,0.1325,-0.00708,0.0167695,-0.0007935,1741836226.894801
-0.14525,-0.04025,0.146,-0.0028074998,0.01248175,0.00045775,1741836226.907799
-0.14375,-0.0255,0.1955,0.00068675,0.01148975,0.0010375,1741836226.9222631
-0.1485,-0.01275,0.217,0.0057677496,0.012909001,0.0004425,1741836226.936718
-0.16225,-0.0025,0.233,0.00643925,0.014068499,0.00013725001,1741836226.95134
-0.165,-0.0035,0.232,0.0034790002,0.015686,0.00059500005,1741836226.965933
-0.16125,-0.0075,0.227,0.00105275,0.01620475,0.00102225,1741836226.980384
-0.156,-0.00775,0.22925,-0.0013580001,0.01675425,0.0013275,1741836226.9951308
-0.145,-0.00175,0.2425,7.625e-05,0.017044,0.001114,1741836227.009424
-0.13875,0.00275,0.249,0.0026092501,0.01753225,0.00065625,1741836227.025036
-0.136,0.00125,0.25775,0.0066985004,0.0198365,-0.00090025004,1741836227.0384839
-0.1385,-0.00125,0.25275,0.00688175,0.0212555,-0.0012207499,1741836227.053211
-0.138,-0.00275,0.241,0.00334175,0.022338752,-0.000824,1741836227.0679622
-0.13025,-0.0085,0.222,0.00102225,0.0221405,-0.00090025004,1741836227.082544
-0.12425,-0.01325,0.22,0.00019825,0.021484248,-0.0008545,1741836227.097193
-0.108,-0.01925,0.22475,0.001526,0.02124025,-0.00074775,1741836227.111836
-0.102,-0.02025,0.2295,0.004242,0.0214385,-0.00083925005,1741836227.126425
-0.09525,-0.02475,0.2335,0.004776,0.022033751,-0.00068675,1741836227.1409988
-0.0915,-0.0285,0.23725,0.003296,0.023224002,9.15e-05,1741836227.157541
-0.08725,-0.021,0.25275,0.0025940002,0.02417,0.00065625,1741836227.1700711
-0.08375,-0.01425,0.25575,0.00331125,0.0271455,0.00102225,1741836227.185358
-0.071,-0.0145,0.25325,0.00390625,0.02861025,0.00064075,1741836227.199221
-0.06425,-0.01975,0.2545,0.00640875,0.03028875,0.0001525,1741836227.21412
-0.05775,-0.0275,0.26175,0.009079001,0.03094475,0.00035100002,1741836227.228441
-0.055,-0.03125,0.27,0.013214,0.033783,0.00163275,1741836227.244653
-0.049,-0.03275,0.277,0.012741,0.0360565,0.00238025,1741836227.257636
-0.04425,-0.035,0.2675,0.010849,0.03837575,0.0032195,1741836227.2719162
-0.03875,-0.0355,0.25525,0.00399775,0.041808996,0.00419625,1741836227.2864509
-0.02425,-0.03675,0.257,0.000885,0.043396,0.0039825,1741836227.301077
-0.01175,-0.03425,0.27025,-0.00080875,0.047912497,0.0028535,1741836227.3156538
0.00175,-0.01175,0.2815,-0.00024425,0.050476003,0.00157175,1741836227.3301408
0.008,-0.0145,0.26625,0.0029145,0.0525055,-0.0019225,1741836227.344956
0.019,-0.03825,0.2195,0.0043335,0.050063998,-0.0028535,1741836227.359138
0.02575,-0.0475,0.203,0.0054475004,0.042297248,-0.0014495,1741836227.374549
0.045,-0.0495,0.18925,0.0052337497,0.0395965,-1.5250001e-05,1741836227.388264
0.0545,-0.04425,0.18475,0.004013,0.034408502,0.0020295,1741836227.402569
0.071,-0.02625,0.176,0.00308225,0.03082275,0.00201425,1741836227.4171
0.07975,-0.02775,0.1755,0.00160225,0.0271455,0.00143425,1741836227.431438
0.08825,-0.035,0.1775,-0.0003815,0.02165225,0.00035100002,1741836227.4458501
0.0995,-0.043,0.18975,-0.00033575002,0.02000425,0.00027475,1741836227.460406
0.10275,-0.04125,0.19725,-4.575e-05,0.01814275,0.00077825,1741836227.474921
0.10775,-0.0275,0.2235,6.1000002e-05,0.0173645,0.0007935,1741836227.489334
0.10725,-0.02325,0.22875,0.00074775,0.01741025,9.15e-05,1741836227.503862
0.11225,-0.0235,0.20625,0.000763,0.0170745,-0.000183,1741836227.518382
0.11425,-0.0225,0.1905,0.00175475,0.012634249,-7.625e-05,1741836227.5330508
0.09375,-0.01775,0.104,0.0038605002,0.0086975,7.625e-05,1741836227.547401
0.062,0.00025,0.00725,0.009597749,-0.011031999,0.0034942501,1741836227.561864
0.03075,0.01325,-0.35625,0.009079001,-0.03509525,0.0060272496,1741836227.576423
-0.029,0.05725,-0.54225,0.002777,-0.073639,0.0059510004,1741836227.591035
-0.294,0.1235,-0.607,-0.01322925,-0.17305,-0.00463875,1741836227.605845
-0.4535,0.113,-0.479,-0.017883249,-0.21540825,-0.01228325,1741836227.620729
-0.66575,0.10125,-0.07125,-0.0216675,-0.25526425,-0.022186251,1741836227.6354802
-0.745,0.05925,0.16775,-0.0278015,-0.24938975,-0.024688749,1741836227.650309
-0.82,-0.1565,0.73825,-0.05685425,-0.20512399,-0.01782225,1741836227.6651251
-0.7845,-0.239,0.969,-0.059951752,-0.17239375,-0.0061950004,1741836227.6799161
-0.6905,-0.23575,1.0,-0.01811225,-0.0876465,0.0213775,1741836227.695146
-0.45375,0.004,0.8145,0.002533,-0.04205325,0.027984502,1741836227.709239
-0.35775,0.12125,0.51675,0.0112,0.014679,0.0212555,1741836227.724996
-0.20475,0.129,0.16075,0.0100707505,0.023758,0.012741,1741836227.738181
-0.15925,0.06675,0.17025,0.0114744995,0.02848825,0.00051875,1741836227.752745
-0.14025,-0.0105,0.25225,0.01358025,0.0313415,-0.00102225,1741836227.767339
-0.158,-0.01425,0.25325,0.01358025,0.0403595,-6.1000002e-05,1741836227.782102
-0.23525,0.0295,0.128,0.009781,0.0425415,0.000824,1741836227.796757
-0.25275,0.0415,0.04525,0.00242625,0.033325247,-0.00024425,1741836227.8112361
-0.214,-0.00175,0.00475,-4.575e-05,0.024658252,-0.002243,1741836227.825933
-0.19125,-0.02975,0.05175,-0.0064239996,0.0112915,-0.004547,1741836227.840607
-0.17125,-0.0555,0.17675,-0.00823975,0.0093385,-0.0042115003,1741836227.8553238
-0.17,-0.0515,0.21625,-0.0046845004,0.012771499,-0.002777,1741836227.870125
-0.17475,-0.0225,0.2065,-0.00184625,0.015533499,-0.0019685,1741836227.885565
-0.17175,-0.01275,0.17225,-0.00160225,0.01776125,-0.001175,1741836227.8997388
-0.1655,-0.01575,0.12625,-0.00239575,0.016922,-0.0013885,1741836227.914966
-0.16275,-0.022,0.12875,-0.0014495,0.015152001,-0.001419,1741836227.929225
-0.1535,-0.04,0.16275,0.0052795,0.01165775,-0.0002135,1741836227.944819
-0.155,-0.0405,0.18525,0.0070342496,0.010589501,0.00065625,1741836227.958339
-0.16075,-0.0315,0.2045,0.006256,0.01077275,0.001526,1741836227.974764
-0.16725,-0.016,0.2195,0.0052185003,0.01193225,0.00125125,1741836227.987555
-0.1645,-0.018,0.21675,0.00068675,0.0143737495,0.000473,1741836228.002187
-0.157,-0.023,0.21725,-0.0018005001,0.01501475,0.0005645,1741836228.016845
-0.15425,-0.0215,0.22675,-0.00384525,0.015625,0.0015105,1741836228.03152
-0.15325,-0.0095,0.25025,-0.003769,0.01640325,0.0016632499,1741836228.046155
-0.15425,-0.0035,0.25475,-0.0027160002,0.019333,0.000229,1741836228.060815
-0.154,-0.00475,0.25175,-0.00216675,0.02073675,-0.00083925005,1741836228.075648
-0.151,-0.01275,0.25175,-0.00239575,0.02313225,-0.00157175,1741836228.090348
-0.14225,-0.024,0.26175,-0.00320425,0.024841249,-0.0012665,1741836228.105032
-0.1375,-0.02125,0.26575,-0.00393675,0.029419001,-3.0500001e-05,1741836228.11969
-0.128,-0.012,0.255,-0.00334175,0.03182975,0.0002135,1741836228.135276
-0.122,-0.01275,0.24925,-0.00184625,0.0358125,-0.0012207499,1741836228.149166
-0.10825,-0.01725,0.255,-0.0012817499,0.037445,-0.00239575,1741836228.164899
-0.106,-0.01825,0.25675,0.00042725,0.0408325,-0.0035095,1741836228.178345
-0.10725,-0.02,0.2485,0.000946,0.044006247,-0.0036010002,1741836228.194717
-0.0975,-0.01325,0.245,0.00077825,0.048782248,-0.00419625,1741836228.208284
-0.0705,-0.013,0.2235,-0.0007325,0.051468,-0.004242,1741836228.222326
-0.05475,-0.024,0.2185,-0.0009155,0.047912497,-0.0030669998,1741836228.237029
-0.03125,-0.0335,0.24075,-0.001587,0.04208375,-0.00061025,1741836228.25172
-0.02575,-0.023,0.25575,-0.0013580001,0.041916,-0.00024425,1741836228.2663932
-0.0255,-0.00775,0.257,0.00143425,0.044464,-0.00251775,1741836228.28118
-0.0165,0.0025,0.232,0.00254825,0.045516998,-0.004303,1741836228.2957
-0.00725,-0.00825,0.235,0.00416575,0.04562375,-0.00517275,1741836228.310487
0.0125,-0.0415,0.2625,0.00617975,0.0460205,-0.0034484998,1741836228.325003
0.0205,-0.04875,0.263,0.009674,0.0469665,0.00187675,1741836228.339365
0.02725,-0.02625,0.24175,0.01013175,0.0477905,0.00390625,1741836228.353846
0.03225,-0.00725,0.22725,0.008651749,0.050644003,0.0046539996,1741836228.368293
0.0515,0.009,0.19725,0.00791925,0.0502625,0.0036010002,1741836228.382674
0.06075,-0.001,0.18675,0.0063477503,0.04341125,0.00184625,1741836228.397034
0.078,-0.0235,0.19625,0.0065612504,0.03958125,0.00148,1741836228.4114811
0.085,-0.035,0.2135,0.008285499,0.037384,0.00137325,1741836228.425888
0.0905,-0.04275,0.226,0.0135955,0.037506,0.0020599999,1741836228.440278
0.0965,-0.045,0.1965,0.01475525,0.037262,0.0032655,1741836228.454704
0.10175,-0.04525,0.16075,0.00798025,0.03230275,0.006775,1741836228.469151
0.11375,-0.02975,0.129,0.00213625,0.02819825,0.00830075,1741836228.4846458
0.12075,-0.01525,0.134,-0.0016175,0.022812,0.0091705,1741836228.498122
0.137,0.002,0.139,-0.00062550005,0.02200325,0.00823975,1741836228.512529
0.135,0.006,0.12275,0.0028687501,0.017547501,0.0072480002,1741836228.527103
0.07775,0.03225,0.00025,0.00413525,0.00982675,0.009842,1741836228.541398
0.063,0.04975,-0.16275,-0.00083925005,-0.02934275,0.01867675,1741836228.557832
-0.0215,0.10225,-0.5365,-0.01446525,-0.06448375,0.01988225,1741836228.5709078
-0.12875,0.13125,-0.57825,-0.0328065,-0.107605,0.018448,1741836228.585603
-0.407,0.13175,-0.52925,-0.04862975,-0.191574,0.010849,1741836228.600343
-0.60025,0.07175,-0.435,-0.039169252,-0.22816475,0.0047912505,1741836228.6151779
-0.84175,-0.10675,0.24425,-0.0042725,-0.263733,0.00051875,1741836228.629843
-0.8485,-0.17675,0.6565,0.00355525,-0.25125125,0.0036010002,1741836228.6451662
-0.81425,-0.17675,0.954,-0.016098,-0.177719,0.016235251,1741836228.659229
-0.5615,-0.0735,1.0,-0.02023325,-0.13029476,0.02159125,1741836228.674897
-0.42625,-0.004,0.973,0.01062,-0.04476925,0.019989,1741836228.688732
-0.26725,0.08725,0.5515,0.024932751,-0.017608749,0.014724749,1741836228.703218
-0.204,0.0905,0.31325,0.023040751,0.0071105,0.0050355,1741836228.717684
-0.112,0.0305,0.122,0.018402,0.010437001,0.0023039998,1741836228.73209
-0.10125,0.00575,0.15975,0.019226,0.0135345,0.0020599999,1741836228.746537
-0.13925,0.01825,0.2285,0.0188445,0.015518251,0.0026854998,1741836228.7609541
-0.17375,0.03925,0.231,0.0086975,0.01747125,0.00080875,1741836228.77529
-0.21125,0.04025,0.1725,0.0044555003,0.01814275,-0.001175,1741836228.78977
-0.2085,0.022,0.1355,-0.002655,0.01605225,-0.00514225,1741836228.804491
-0.18475,-0.01425,0.1185,-0.0043639997,0.01351925,-0.0064850003,1741836228.8192031
-0.172,-0.02825,0.146,-0.00399775,0.0114440005,-0.00720225,1741836228.834763
-0.16425,-0.04025,0.208,0.0,0.012146,-0.00738525,1741836228.8485482
-0.169,-0.03675,0.21825,0.00245675,0.0143737495,-0.006836,1741836228.864778
-0.17475,-0.02975,0.214,0.0066374997,0.0179595,-0.0044555003,1741836228.877793
-0.18225,-0.02125,0.1845,0.0077515002,0.0188445,-0.0029755002,1741836228.892443
-0.17475,-0.02175,0.162,0.00747675,0.019165002,-0.001068,1741836228.908204
-0.156,-0.0295,0.1595,0.0056304997,0.017654499,-0.0014495,1741836228.921695
-0.14875,-0.033,0.182,0.0028687501,0.014709501,-0.0025025,1741836228.936307
-0.1425,-0.0305,0.2205,0.00305175,0.014343251,-0.00283825,1741836228.950912
-0.14325,-0.02575,0.22325,0.00325,0.0153807495,-0.00276175,1741836228.9656022
-0.15,-0.00825,0.215,0.0023345,0.01570125,-0.0025787498,1741836228.980159
-0.148,-0.003,0.2145,0.00024425,0.015228249,-0.00254825,1741836228.995011
-0.142,-0.00425,0.2195,-0.00065625,0.015029999,-0.0029145,1741836229.00952
-0.137,-0.00775,0.22975,0.00057975,0.016128499,-0.00408925,1741836229.02514
-0.13325,-0.003,0.24225,0.003296,0.017273001,-0.0047912505,1741836229.0386822
-0.134,0.0035,0.2395,0.0074004997,0.018814,-0.0061950004,1741836229.053186
-0.134,0.0,0.23525,0.0065612504,0.01921075,-0.0065917503,1741836229.067696
-0.13075,-0.01275,0.239,0.004486,0.01985175,-0.00688175,1741836229.0822232
-0.12775,-0.02525,0.242,0.0019685,0.02189625,-0.0064239996,1741836229.0968168
-0.1225,-0.03175,0.2365,0.0024414998,0.022705,-0.0052185003,1741836229.1114612
-0.12,-0.02575,0.2335,0.0045012496,0.02323925,-0.00276175,1741836229.126064
-0.10825,-0.0265,0.22925,0.00466925,0.0231475,-0.0020752498,1741836229.140788
-0.101,-0.02975,0.22775,0.0033570002,0.023498502,-0.0015565,1741836229.157374
-0.0875,-0.03025,0.23775,0.0034484998,0.0239715,-0.0017395001,1741836229.1701188
-0.08275,-0.02875,0.24975,0.0041504996,0.02648925,-0.002121,1741836229.185178
-0.08075,-0.02375,0.24825,0.00416575,0.028,-0.001526,1741836229.199554
-0.078,-0.02475,0.231,0.002884,0.02861025,0.00039675,1741836229.214753
-0.06525,-0.02575,0.22,0.00177,0.027587999,0.00067150005,1741836229.22863
-0.0565,-0.02775,0.23475,0.0003815,0.0263215,0.00030525,1741836229.244681
-0.04025,-0.03975,0.27575,0.00030525,0.0275115,0.000122000005,1741836229.257876
-0.0365,-0.04175,0.28475,0.00102225,0.03221125,0.000824,1741836229.272151
-0.03775,-0.01875,0.2535,0.0015105,0.033966,0.00160225,1741836229.286701
-0.034,-0.009,0.23675,0.00099175,0.03462225,0.0020752498,1741836229.301286
-0.016,-0.011,0.22975,-0.00390625,0.03477475,0.00102225,1741836229.3161988
-0.0025,-0.022,0.23925,-0.00579825,0.0342865,0.000183,1741836229.3308039
0.0095,-0.033,0.25775,-0.00358575,0.036789,-0.00036625,1741836229.345595
0.007,-0.0195,0.2815,0.0005645,0.0405425,-0.00013725001,1741836229.360181
0.005,-0.01025,0.28025,0.00708,0.04682925,0.001648,1741836229.3745909
0.02325,-0.02775,0.261,0.0068665,0.048095748,0.0023497501,1741836229.38903
0.0275,-0.029,0.24975,0.00402825,0.04812625,0.00146475,1741836229.4034402
0.0415,-0.021,0.24825,0.00485225,0.047668498,-0.000473,1741836229.4181828
0.051,-0.02875,0.2615,0.011184749,0.04635625,-0.00369275,1741836229.432777
0.0565,-0.03225,0.26825,0.014495751,0.04609675,-0.0034484998,1741836229.447501
0.0565,-0.02375,0.24725,0.01446525,0.046081502,-0.0012817499,1741836229.462002
0.07525,-0.02225,0.199,0.01004025,0.04553225,-0.00027475,1741836229.4767082
0.08575,-0.0275,0.1755,0.0021515,0.041931253,0.00105275,1741836229.490977
0.09825,-0.0225,0.1455,0.001709,0.0395355,0.0012207499,1741836229.5053692
0.1075,-0.0255,0.13675,0.003952,0.03707875,0.00093075,1741836229.519806
0.116,-0.031,0.12775,0.0085602505,0.031066999,0.0001525,1741836229.534801
0.12025,-0.03375,0.0885,0.008255,0.027069,0.00033575002,1741836229.548722
0.116,-0.0295,0.05225,0.0058287503,0.0148315,0.0013885,1741836229.563157
0.09175,-0.0125,-0.08075,0.00567625,0.0048979996,0.001831,1741836229.577709
0.076,-0.004,-0.18125,0.0022125002,-0.032470748,0.0028535,1741836229.5922282
-0.00275,0.02475,-0.3225,-0.004074,-0.0604705,0.0030365,1741836229.607947
-0.0765,0.03325,-0.3605,-0.01756275,-0.127655,0.00213625,1741836229.621578
-0.33075,-0.00775,-0.327,-0.029068,-0.16419975,0.0026245,1741836229.636414
-0.47125,-0.02825,-0.21025,-0.06269825,-0.22628775,0.01295475,1741836229.651201
-0.61325,0.0165,0.1985,-0.07716375,-0.23678575,0.020629998,1741836229.665801
-0.61875,0.058,0.365,-0.062377997,-0.2104035,0.029419001,1741836229.6805189
-0.57575,0.02575,0.52375,-0.03866575,-0.18675224,0.02943425,1741836229.695315
-0.5385,0.013,0.65425,-0.01092525,-0.13703924,0.025970502,1741836229.709991
-0.383,0.01475,0.90525,-0.0013427499,-0.10850525,0.02433775,1741836229.724909
-0.3065,0.03375,0.87575,0.010681249,-0.044372503,0.0227355,1741836229.7391849
-0.247,0.127,0.4645,0.01326,-0.017395,0.02142325,1741836229.75388
-0.24075,0.15675,0.27125,0.016021749,0.0002595,0.01779175,1741836229.768279
-0.2325,0.1455,0.182,0.016327,0.01216125,0.004486,1741836229.782727
-0.20625,0.03425,0.239,0.01725775,0.01390075,-0.00177,1741836229.79718
-0.2085,-0.01625,0.2875,0.023773251,0.0229035,-0.0049285004,1741836229.811789
-0.22225,-0.03175,0.2575,0.02766425,0.029358,-0.002655,1741836229.8263948
-0.2375,-0.007,0.1945,0.02778625,0.032547,0.00109875,1741836229.841017
-0.2215,0.0215,0.08425,0.02348325,0.028900249,0.00109875,1741836229.855482
-0.1965,0.0075,0.08825,0.012267999,0.0196685,-0.00231925,1741836229.870075
-0.158,-0.04275,0.1725,0.006775,0.017929,-0.0033570002,1741836229.885186
-0.14725,-0.05825,0.20725,0.000885,0.02079775,-0.0021972498,1741836229.8992782
-0.16325,-0.042,0.22225,0.00137325,0.02342225,-0.00057975,1741836229.914892
-0.1705,-0.01775,0.1945,0.0042115003,0.02658075,0.00305175,1741836229.928392
-0.16175,0.01125,0.12925,0.0039825,0.02557375,0.00263975,1741836229.942836
-0.15475,0.00425,0.11725,0.00308225,0.022705,0.0008545,1741836229.9574049
-0.1505,-0.00975,0.11625,0.0020905002,0.015533499,-0.002655,1741836229.972085
-0.13975,-0.0405,0.143,0.00267025,0.01257325,-0.0033875,1741836229.986895
-0.132,-0.05425,0.17125,0.0029145,0.0090637505,-0.00163275,1741836230.003965
-0.1275,-0.0545,0.22125,0.0020295,0.0091705,0.0002595,1741836230.016184
-0.129,-0.04675,0.2435,0.00059500005,0.012985251,0.0023497501,1741836230.03071
-0.13625,-0.03425,0.272,-0.0001525,0.016021749,0.0025787498,1741836230.045622
-0.14475,-0.02075,0.25975,-0.0025025,0.021759002,0.0023039998,1741836230.0598872
-0.15525,0.00325,0.19725,-0.0043944996,0.02275075,0.001709,1741836230.075158
-0.15075,-0.00075,0.1785,-0.008224499,0.01927175,-0.00016775,1741836230.089091
-0.13075,-0.031,0.21175,-0.008026,0.01681525,-0.00068675,1741836230.103772
-0.11925,-0.04225,0.25475,-0.0028074998,0.01756275,-0.00029,1741836230.1186209
-0.10825,-0.039,0.32625,0.00065625,0.021484248,-4.575e-05,1741836230.133176
-0.11475,-0.0265,0.334,0.0061950004,0.031372,-1.5250001e-05,1741836230.147779
-0.135,-0.00125,0.278,0.0076142503,0.035202,3.0500001e-05,1741836230.162316
-0.13475,-0.00525,0.23275,0.00463875,0.036941502,-0.000412,1741836230.176963
-0.1035,-0.036,0.2005,0.000885,0.03515625,-0.0009765,1741836230.191583
-0.0855,-0.05575,0.21875,-0.0019989999,0.032943748,-0.0013885,1741836230.2067058
-0.05975,-0.0635,0.28375,-0.001709,0.032226503,-0.00064075,1741836230.221081
-0.05875,-0.047,0.3045,0.0013580001,0.034835752,-0.00010675,1741836230.235832
-0.06325,-0.0285,0.303,0.008667,0.042282,9.15e-05,1741836230.250415
-0.06525,-0.01775,0.25475,0.00924675,0.0449525,7.625e-05,1741836230.264992
-0.05675,-0.0285,0.2345,0.00367725,0.04515075,0.0007935,1741836230.279395
-0.03125,-0.05625,0.2175,0.0012665,0.043472253,0.0013885,1741836230.294852
-0.0185,-0.062,0.22925,0.0013580001,0.041977,0.0025787498,1741836230.308627
0.0025,-0.058,0.30075,0.003128,0.043578997,0.0032655,1741836230.3245351
0.00175,-0.04525,0.3175,0.00801075,0.05137625,0.0033264998,1741836230.337379
-0.007,-0.027,0.2575,0.00889575,0.05381775,0.0030365,1741836230.351907
0.00225,-0.037,0.2225,0.003769,0.050048754,0.0047302498,1741836230.366313
0.0315,-0.06425,0.211,0.00061025,0.0469055,0.00646975,1741836230.380757
0.04375,-0.06175,0.22275,-0.0012817499,0.04512025,0.00801075,1741836230.395336
0.05475,-0.041,0.24925,0.00102225,0.04745475,0.007782,1741836230.409837
0.059,-0.0395,0.2375,0.0055695,0.051056,0.0061035,1741836230.424993
0.067,-0.034,0.21925,0.0100707505,0.05252075,0.00396725,1741836230.438814
0.0815,-0.03125,0.1695,0.010238751,0.04966725,0.004013,1741836230.453386
0.086,-0.034,0.1415,0.00785825,0.0425415,0.0050812503,1741836230.467807
0.09375,-0.01875,0.0795,0.00738525,0.0388335,0.0058135,1741836230.482261
0.0805,0.0105,0.0105,0.0117035,0.024688749,0.0065002497,1741836230.496691
0.04475,0.0735,-0.2845,0.011673001,0.01019275,0.00587475,1741836230.511096
0.03,0.093,-0.45775,-0.0020295,-0.051239,-3.0500001e-05,1741836230.52571
-0.106,0.1515,-0.5015,-0.011016751,-0.09629825,-0.0069274995,1741836230.5404851
-0.22275,0.1625,-0.4655,-0.016723748,-0.1798705,-0.022934001,1741836230.555294
-0.53825,0.11075,-0.3365,-0.0174865,-0.21310425,-0.02876275,1741836230.5701
-0.69475,0.06525,-0.161,-0.01794425,-0.24368276,-0.03553775,1741836230.585258
-0.858,-0.118,0.32925,-0.0196075,-0.24134825,-0.03515625,1741836230.599597
-0.8305,-0.20975,0.65525,-0.03291325,-0.2277375,-0.02967825,1741836230.614759
-0.573,-0.23475,1.0,-0.0606995,-0.16331474,-0.00225825,1741836230.629174
-0.42725,-0.179,1.0,-0.04373175,-0.117157,0.0114135,1741836230.644871
-0.29875,0.0395,0.70375,0.0117035,-0.022918751,0.02186575,1741836230.6583722
-0.2825,0.1245,0.34925,0.0217285,0.0053709997,0.0199585,1741836230.674735
-0.249,0.13475,0.088,0.0186005,0.01452625,0.00737,1741836230.687244
-0.155,0.013,0.1,0.01446525,0.01004025,0.0013580001,1741836230.701725
-0.13275,-0.0365,0.21875,0.011321999,0.009597749,-0.0020295,1741836230.716296
-0.1595,-0.03575,0.325,0.011810251,0.0148315,-0.001419,1741836230.730887
-0.1885,-0.00925,0.2955,0.01339725,0.0266265,-0.0008545,1741836230.745416
-0.224,0.01825,0.124,0.012420749,0.027847249,-0.00154125,1741836230.760084
-0.22725,0.01675,0.0505,0.0033875,0.0179595,-0.0037995,1741836230.7748659
-0.18925,-0.0135,0.057,-0.0009765,0.01145925,-0.0042267498,1741836230.789265
-0.16775,-0.033,0.1195,-0.0049590003,0.0052185003,-0.00355525,1741836230.804039
-0.15075,-0.05975,0.22175,-0.00488275,0.0062712496,-0.0029145,1741836230.81886
-0.156,-0.0595,0.23875,-0.00283825,0.013290499,-0.00163275,1741836230.834618
-0.17125,-0.0425,0.221,-0.00119025,0.01693725,-0.00099175,1741836230.848489
-0.17575,-0.036,0.2005,0.00112925,0.02105725,9.15e-05,1741836230.8631308
-0.184,-0.034,0.16075,0.0023039998,0.021331752,0.000412,1741836230.8776152
-0.176,-0.03475,0.14875,0.0039825,0.020904498,0.0007325,1741836230.892212
-0.14875,-0.0495,0.159,0.0052795,0.01811225,0.00105275,1741836230.908041
-0.1405,-0.054,0.18825,0.00408925,0.0158845,0.0012207499,1741836230.9212968
-0.1395,-0.04775,0.219,0.003769,0.01548775,0.00175475,1741836230.935827
-0.14525,-0.019,0.2515,0.00396725,0.01719675,0.0021057501,1741836230.9502609
-0.14575,-0.012,0.24925,0.00148,0.02070625,0.00187675,1741836230.9649339
-0.146,-0.0205,0.23625,4.575e-05,0.0221405,0.00115975,1741836230.979255
-0.14575,-0.0275,0.23175,0.0007935,0.02401725,3.0500001e-05,1741836230.9950578
-0.138,-0.03675,0.24275,0.0028535,0.024932751,-0.00035100002,1741836231.008332
-0.1345,-0.039,0.2525,0.0065917503,0.02757275,-0.0012055,1741836231.0229619
-0.13325,-0.04175,0.26,0.0069580004,0.02867125,-0.000946,1741836231.037708
-0.133,-0.03525,0.2525,0.0052337497,0.028854249,0.00074775,1741836231.052186
-0.12775,-0.02425,0.22775,0.0041810004,0.028839001,0.0012055,1741836231.0667
-0.1165,-0.0325,0.217,0.0029907501,0.0289765,0.00115975,1741836231.081198
-0.09225,-0.05725,0.22175,7.625e-05,0.02867125,0.00054925,1741836231.095819
-0.08275,-0.0645,0.229,-0.00033575002,0.0282135,0.00074775,1741836231.110388
-0.0775,-0.06325,0.22825,0.0020752498,0.026825001,0.00181575,1741836231.1254258
-0.07825,-0.04125,0.2175,0.003006,0.02616875,0.0019989999,1741836231.139488
-0.07625,-0.031,0.21225,0.00109875,0.02534475,0.0013275,1741836231.154069
-0.0655,-0.0345,0.205,-0.00057975,0.024643,0.00074775,1741836231.168792
-0.06575,-0.046,0.20125,0.0003205,0.0249175,-0.00059500005,1741836231.185021
-0.0585,-0.057,0.20575,0.0038605002,0.02934275,-0.001526,1741836231.1980789
-0.04375,-0.0495,0.21675,0.0095672505,0.038681,-0.00074775,1741836231.2127502
-0.006,-0.02575,0.252,0.0089875,0.038345248,0.00057975,1741836231.2273018
0.00175,-0.02725,0.25725,0.0062407497,0.030731251,0.0020599999,1741836231.241714
-0.00525,-0.04525,0.2475,0.0045777503,0.02664175,0.00228875,1741836231.257788
-0.008,-0.05,0.24875,0.0046234997,0.02211,0.001953,1741836231.271049
-0.0045,-0.05075,0.2405,0.006607,0.021606501,0.00177,1741836231.28569
0.002,-0.04825,0.237,0.0076295,0.021103,0.001709,1741836231.30018
0.015,-0.04975,0.243,0.00611875,0.019989,0.001526,1741836231.314815
0.01825,-0.0525,0.25075,0.00511175,0.02038575,0.00146475,1741836231.329067
0.022,-0.059,0.2605,0.00491325,0.0241395,0.0016175,1741836231.344934
0.03525,-0.0715,0.278,0.0048065,0.02705375,0.001953,1741836231.35798
0.04125,-0.0725,0.28,0.00411975,0.03193675,0.00343325,1741836231.37242
0.043,-0.074,0.268,0.00384525,0.03331,0.0046539996,1741836231.387009
0.042,-0.07325,0.2585,0.003952,0.03508,0.00665275,1741836231.401561
0.047,-0.05825,0.236,0.0047150003,0.035202,0.006775,1741836231.416075
0.04975,-0.054,0.21575,0.0076142503,0.031433,0.0046539996,1741836231.43058
0.065,-0.06075,0.1955,0.00785825,0.02848825,0.0033264998,1741836231.444984
0.08025,-0.07025,0.2205,0.0059205,0.02749625,0.00320425,1741836231.4594061
0.098,-0.0705,0.26825,0.0062865,0.030136,0.00393675,1741836231.474745
0.0975,-0.06775,0.25175,0.0079345,0.03367625,0.004776,1741836231.488364
0.0995,-0.0765,0.216,0.0063325,0.037445,0.0070647504,1741836231.5029812
0.10175,-0.08625,0.17025,0.00149525,0.036148,0.00862125,1741836231.517405
0.101,-0.0745,0.157,-0.0036162501,0.0302735,0.01086425,1741836231.53188
0.0995,-0.0395,0.113,-0.0023345,0.026474,0.01091,1741836231.5463932
0.093,-0.0035,0.08325,0.00355525,0.01579275,0.0090485,1741836231.560863
0.037,0.1,-0.1155,0.0079345,0.0058899997,0.0077667497,1741836231.575159
0.0185,0.11,-0.329,0.0043182503,-0.0414275,0.00096125,1741836231.5898108
-0.08425,0.114,-0.576,-0.01036075,-0.08158875,-0.0058135,1741836231.6045692
-0.1945,0.18875,-0.5265,-0.018097,-0.16917425,-0.02610775,1741836231.6193411
-0.47,0.22,-0.36075,-0.0090637505,-0.20158376,-0.039382998,1741836231.63462
-0.62625,0.16425,-0.248,-0.02442925,-0.237259,-0.059326246,1741836231.648962
-0.87525,-0.0855,0.17525,-0.040039003,-0.24232475,-0.061264,1741836231.6648939
-0.9135,-0.22425,0.484,-0.069641,-0.2183075,-0.0383605,1741836231.678551
-0.76525,-0.32,1.0,-0.077362,-0.188095,-0.0150605,1741836231.694782
-0.584,-0.24775,1.0,-0.06466675,-0.1457215,0.00830075,1741836231.7080472
-0.3565,0.0605,0.86875,-0.0050355,-0.03692625,0.0272675,1741836231.722551
-0.32725,0.184,0.552,0.007965,0.0057220003,0.02230825,1741836231.737052
-0.29,0.20975,0.2235,0.0025634998,0.03244025,0.0030669998,1741836231.751389
-0.17125,0.072,0.0565,-0.001831,0.028244,-0.00325,1741836231.766075
-0.13525,0.00725,0.13425,0.0002595,0.020599252,-0.0052795,1741836231.780659
-0.13775,-0.018,0.2345,0.0016632499,0.02124025,-0.003952,1741836231.7953842
-0.165,-0.00175,0.22,-0.00061025,0.02560425,-0.0025940002,1741836231.810154
-0.21,0.01325,0.11725,-0.00292975,0.02545175,-0.00296025,1741836231.825296
-0.2085,0.0045,0.084,-0.00567625,0.020202748,-0.0040435,1741836231.8393989
-0.17825,-0.02175,0.10925,-0.0054932497,0.016876249,-0.0038605002,1741836231.85402
-0.163,-0.02475,0.15125,-0.0050965,0.014328,-0.0028074998,1741836231.868823
-0.15725,-0.009,0.21575,-0.00378425,0.016296498,-0.002884,1741836231.885052
-0.164,-0.002,0.2215,0.000473,0.022583,-0.00378425,1741836231.898171
-0.1745,-0.00975,0.20325,0.00143425,0.0250245,-0.0038605002,1741836231.912974
-0.1785,-0.02075,0.17725,0.002655,0.026397752,-0.00279225,1741836231.927688
-0.177,-0.042,0.13625,0.00402825,0.02510075,-0.0020295,1741836231.942407
-0.1605,-0.0485,0.1385,0.009552,0.020904498,0.0003205,1741836231.957278
-0.1305,-0.038,0.19,0.01065075,0.0178375,0.001587,1741836231.971549
-0.12675,-0.01875,0.22575,0.01036075,0.015457249,0.002365,1741836231.986136
-0.134,0.017,0.26275,0.009079001,0.017120251,0.00163275,1741836232.0005429
-0.1405,0.021,0.2645,0.007553,0.019806,0.00067150005,1741836232.015174
-0.146,0.0175,0.2565,0.00231925,0.023758,-0.00048825,1741836232.029501
-0.14575,-0.00725,0.2255,7.625e-05,0.0243225,-0.00065625,1741836232.045295
-0.13975,-0.01875,0.21825,-0.00035100002,0.0226745,-0.0005035,1741836232.0586839
-0.1195,-0.02425,0.24275,0.0013885,0.0213165,4.575e-05,1741836232.0747578
-0.113,-0.0135,0.26025,0.0050355,0.021209748,0.00029,1741836232.087976
-0.11575,0.00625,0.27175,0.0053709997,0.022934001,-0.00080875,1741836232.1025112
-0.11675,0.0005,0.27,0.00225825,0.03144825,-0.0042267498,1741836232.117066
-0.103,-0.022,0.26425,0.00051875,0.0365295,-0.0047912505,1741836232.131594
-0.09625,-0.0275,0.25525,0.00146475,0.038330004,-0.0031585,1741836232.146207
-0.08625,-0.0285,0.245,0.003128,0.0375365,-0.00239575,1741836232.16079
-0.08,-0.02425,0.245,0.0043944996,0.0373535,-0.00187675,1741836232.175471
-0.07125,-0.01225,0.24425,0.0040587503,0.03819275,-0.0014037499,1741836232.1900768
-0.065,-0.01625,0.2395,0.0031585,0.03816225,-0.0013885,1741836232.204632
-0.0535,-0.02625,0.2375,0.00187675,0.0358125,-0.00090025004,1741836232.21931
-0.03125,-0.041,0.252,0.00204475,0.035049498,1.5250001e-05,1741836232.235086
-0.023,-0.0325,0.25925,0.00488275,0.03553775,0.001648,1741836232.248251
-0.0105,-0.00175,0.26775,0.0065765,0.036148,0.001953,1741836232.2628438
-0.00775,0.00225,0.2635,0.00723275,0.039199747,0.0018615,1741836232.277214
0.003,-0.02175,0.252,0.0057220003,0.04116825,0.0014037499,1741836232.291668
0.01525,-0.043,0.261,0.0033875,0.0451355,0.0020905002,1741836232.307472
0.03675,-0.061,0.27575,0.00402825,0.04730225,0.00355525,1741836232.320651
0.03725,-0.0525,0.26325,0.00514225,0.04992675,0.0063934997,1741836232.335423
0.025,-0.01875,0.215,0.0040587503,0.049179003,0.00688175,1741836232.349417
0.03,-0.0065,0.20175,0.00245675,0.0467835,0.006668,1741836232.364581
0.043,-0.00375,0.205,0.00112925,0.039855998,0.0050965,1741836232.378268
0.0695,-0.01725,0.20425,0.0013885,0.0366515,0.00419625,1741836232.392681
0.07825,-0.02375,0.20025,0.002472,0.032516498,0.00314325,1741836232.407135
0.095,-0.04275,0.20675,0.00331125,0.0319215,0.0033264998,1741836232.421661
0.10125,-0.0475,0.21375,0.0064545004,0.03211975,0.00463875,1741836232.4361632
0.10975,-0.047,0.20775,0.00723275,0.032196,0.005783,1741836232.450669
0.10825,-0.03625,0.196,0.00384525,0.0317535,0.00874325,1741836232.465121
0.09775,-0.01875,0.15575,0.0012970001,0.03097525,0.0099945,1741836232.4794781
0.09775,-0.02175,0.1385,-0.0033875,0.025695749,0.012176501,1741836232.4948952
0.1205,-0.044,0.14325,-0.004593,0.0211335,0.013641249,1741836232.508544
0.12475,-0.0415,0.15025,-0.0038605002,0.01646425,0.0148925,1741836232.524964
0.11725,-0.0325,0.13925,0.00331125,0.007782,0.015029999,1741836232.5373461
0.09625,-0.031,0.07075,0.0067597497,0.0032347501,0.01531975,1741836232.5517921
0.064,-0.0195,0.015,0.010452249,-0.010528499,0.017455999,1741836232.5663218
0.00125,0.05325,-0.216,0.01133725,-0.0232085,0.01817325,1741836232.58077
-0.026,0.101,-0.38925,0.0077515002,-0.077865504,0.012557999,1741836232.5954401
-0.1875,0.202,-0.5935,0.00852975,-0.12680049,0.00216675,1741836232.610063
-0.32025,0.2215,-0.555,0.02757275,-0.2218475,-0.028244,1741836232.625141
-0.688,0.1195,-0.31475,0.03312675,-0.2451325,-0.04185475,1741836232.639672
-0.84875,0.0195,-0.06975,0.00962825,-0.2541045,-0.0604705,1741836232.6545348
-0.92125,-0.3175,0.63575,-0.01670825,-0.24491875,-0.058319,1741836232.669302
-0.82975,-0.4495,0.958,-0.0652465,-0.185608,-0.013412501,1741836232.68484
-0.572,-0.309,1.0,-0.045837503,-0.1386565,0.013214,1741836232.698762
-0.46825,-0.119,0.98925,0.02288825,-0.044128504,0.03173825,1741836232.714881
-0.35225,0.1875,0.5765,0.01899725,-0.0094604995,0.02760325,1741836232.727967
-0.29125,0.20825,0.31725,0.0022277501,0.0219115,0.00912475,1741836232.742346
-0.159,0.0785,0.14275,0.00137325,0.024383498,0.0022125002,1741836232.758039
-0.13325,0.0225,0.17725,0.001419,0.0245515,-0.00131225,1741836232.7713778
-0.1335,-0.012,0.20625,0.0018005001,0.02702325,-0.0026854998,1741836232.785982
-0.17325,-0.0375,0.18625,-0.00061025,0.0296325,-0.00245675,1741836232.800672
-0.20575,-0.02875,0.1345,-0.00125125,0.03025825,-0.001953,1741836232.8154938
-0.2165,-0.0135,0.00025,-0.00029,0.02545175,-0.00184625,1741836232.8301408
-0.1965,-0.018,-0.0005,-0.0013275,0.01033025,-0.002365,1741836232.845155
-0.16075,-0.028,0.125,-0.0012970001,0.0049285004,-0.0023345,1741836232.8597682
-0.15075,-0.0255,0.18625,0.000534,0.004547,-0.00267025,1741836232.875118
-0.15225,-0.0185,0.22475,0.00102225,0.007782,-0.0033722501,1741836232.889044
-0.1605,-0.0175,0.203,0.0003815,0.013443,-0.0040435,1741836232.903589
-0.17375,-0.0295,0.14075,0.0,0.0141145,-0.00396725,1741836232.918143
-0.1755,-0.03825,0.124,-0.0005645,0.01098625,-0.00263975,1741836232.9327738
-0.1725,-0.0445,0.13625,-3.0500001e-05,0.008545,-0.00163275,1741836232.947476
-0.17025,-0.0425,0.1505,0.00184625,0.0048065,-9.15e-05,1741836232.9621692
-0.163,-0.03675,0.189,0.001587,0.003952,0.0002595,1741836232.9766982
-0.1615,-0.03375,0.21,0.000412,0.0050812503,0.00019825,1741836232.991251
-0.1655,-0.02775,0.23675,0.0002595,0.0068665,-6.1000002e-05,1741836233.007204
-0.17075,-0.021,0.24175,0.000183,0.00903325,-0.00030525,1741836233.020523
-0.179,-0.008,0.242,1.5250001e-05,0.013290499,-0.000473,1741836233.03531
-0.177,-0.0085,0.2425,-0.000763,0.0151215,-0.0003815,1741836233.049943
-0.1745,-0.0095,0.24175,-0.00251775,0.0183715,-0.00070200005,1741836233.065181
-0.1665,-0.00975,0.23475,-0.0019225,0.019775499,-0.0013427499,1741836233.0794592
-0.159,-0.012,0.23925,0.00019825,0.02253725,-0.0027312501,1741836233.094775
-0.1515,-0.01275,0.254,0.000946,0.02433775,-0.00320425,1741836233.108577
-0.15625,-0.00975,0.2495,0.00083925005,0.027359,-0.00308225,1741836233.124685
-0.15575,-0.01675,0.23075,-0.0002135,0.02851875,-0.0030365,1741836233.1379259
-0.15,-0.02625,0.22525,-0.00112925,0.02949525,-0.0037995,1741836233.152759
-0.12975,-0.04875,0.22475,-0.000412,0.0289765,-0.0037385002,1741836233.1674728
-0.1165,-0.055,0.23775,0.00064075,0.028716998,-0.001831,1741836233.182028
-0.105,-0.03175,0.273,0.0017852499,0.030151252,-0.0008545,1741836233.196579
-0.109,-0.012,0.26725,0.006302,0.034484748,-0.0008545,1741836233.2111602
-0.109,-0.00175,0.2205,0.0070647504,0.035492,-0.001831,1741836233.2258759
-0.09925,-0.01625,0.209,0.00239575,0.034606997,-0.00320425,1741836233.2405398
-0.07175,-0.04575,0.241,-0.00010675,0.034149252,-0.0026854998,1741836233.2554328
-0.06225,-0.053,0.26575,0.00190725,0.039306752,-0.000824,1741836233.270036
-0.058,-0.02875,0.29,0.0046845004,0.04356375,-7.625e-05,1741836233.285239
-0.0605,-0.0065,0.27875,0.0065002497,0.046584997,0.00036625,1741836233.2992
-0.0545,0.00675,0.24375,0.0049895,0.047485247,-0.00042725,1741836233.31468
-0.04025,-0.006,0.24275,0.00204475,0.04667675,-0.001007,1741836233.328344
-0.0255,-0.0215,0.25225,-0.00216675,0.046264753,-0.00105275,1741836233.34467
-0.00475,-0.0295,0.26375,-0.00077825,0.04692075,-0.00096125,1741836233.357766
0.00175,-0.02675,0.25825,0.0062407497,0.04953,-0.00143425,1741836233.372204
0.012,-0.0265,0.24075,0.00801075,0.050003,-0.00181575,1741836233.386733
0.018,-0.03025,0.22975,0.0070342496,0.047622748,-0.0013885,1741836233.401382
0.0245,-0.03675,0.194,0.0061950004,0.045105,-0.00067150005,1741836233.4161081
0.028,-0.038,0.17725,0.00715625,0.03872675,0.000473,1741836233.430731
0.052,-0.0255,0.1755,0.008926501,0.0351715,0.00096125,1741836233.445305
0.06025,-0.019,0.1825,0.012680001,0.0298615,0.001236,1741836233.459661
0.07125,-0.03375,0.189,0.012405501,0.02870175,0.001648,1741836233.4749272
0.07775,-0.0475,0.189,0.006607,0.02696225,0.00408925,1741836233.488649
0.08625,-0.063,0.18525,0.0037995,0.02563475,0.0057525,1741836233.503196
0.089,-0.05875,0.18325,0.00169375,0.02433775,0.0075377496,1741836233.517676
0.089,-0.0115,0.16275,-0.0025025,0.02197275,0.00976575,1741836233.532159
0.0895,0.0065,0.148,-0.0054932497,0.020355249,0.009079001,1741836233.5468428
0.0935,0.00875,0.1325,-0.009582501,0.014800999,0.0056,1741836233.561137
0.093,-0.006,0.083,-0.00823975,0.01062,0.0037079998,1741836233.575706
0.07125,-0.0085,0.03975,0.0012207499,-0.0042725,0.002472,1741836233.590195
0.03625,-0.019,-0.1375,0.00637825,-0.017883249,0.00367725,1741836233.604774
0.021,-0.00225,-0.22725,-0.00080875,-0.06184375,0.00372325,1741836233.619443
-0.1185,0.08375,-0.33125,-0.00697325,-0.09199525,-0.00027475,1741836233.63447
-0.23425,0.10525,-0.35125,-0.01206975,-0.1594695,-0.012267999,1741836233.649004
-0.48575,0.06875,-0.29525,-0.0141145,-0.18878175,-0.016098,1741836233.664784
-0.59925,0.04525,-0.22775,-0.02342225,-0.23027025,-0.018753,1741836233.678702
-0.7625,-0.03475,0.133,-0.03395075,-0.24072275,-0.017151,1741836233.694655
-0.78775,-0.11325,0.4235,-0.0435485,-0.22224425,-0.00068675,1741836233.708565
-0.655,-0.246,0.98525,-0.0321655,-0.1934815,0.011810251,1741836233.7247722
-0.53375,-0.215,1.0,0.0043182503,-0.0950165,0.032409754,1741836233.7380831
-0.438,0.0765,0.72825,0.00587475,-0.03984075,0.035400502,1741836233.752522
-0.41925,0.1865,0.34,-0.0033875,0.01326,0.020477248,1741836233.767115
-0.27225,0.07775,0.07975,-0.0039215,0.013382,0.010437001,1741836233.781745
-0.19075,-0.0185,0.20925,-0.00228875,0.010559,0.0055847503,1741836233.796368
-0.14025,-0.0145,0.34225,0.0044555003,0.0203095,0.0086975,1741836233.810978
-0.163,0.0405,0.28825,0.0048979996,0.030014,0.00935375,1741836233.8254058
-0.194,0.06725,0.21875,0.00231925,0.04173275,0.00033575002,1741836233.839929
-0.2475,0.03275,0.14375,0.00267025,0.0421295,-0.0058135,1741836233.854531
-0.2505,0.00575,0.11825,0.0066985004,0.03524775,-0.0112305,1741836233.869119
-0.2235,-0.02625,0.12225,0.005783,0.0301665,-0.0106355,1741836233.884947
-0.2045,-0.0335,0.15925,0.0023497501,0.026245002,-0.00764475,1741836233.898338
-0.17925,-0.0335,0.2295,0.0021515,0.028427,-0.00640875,1741836233.913027
-0.17875,-0.028,0.2425,0.0017395001,0.03718575,-0.0047912505,1741836233.927552
-0.18675,-0.02325,0.22525,0.0023039998,0.041137747,-0.0042115003,1741836233.9421198
-0.19025,-0.0235,0.18825,0.0057677496,0.04341125,-0.00460825,1741836233.957417
-0.18075,-0.03275,0.13125,0.0069274995,0.04144275,-0.004593,1741836233.971571
-0.1675,-0.0435,0.13425,0.0066374997,0.0344695,-0.0030365,1741836233.9861288
-0.13475,-0.05675,0.19725,0.0070037497,0.03190625,-0.00204475,1741836234.000718
-0.1185,-0.0555,0.2425,0.0088805,0.032348752,-0.0005035,1741836234.0153239
-0.117,-0.0345,0.28525,0.00912475,0.035324,-0.0002595,1741836234.030098
-0.131,-0.01675,0.25925,0.00947575,0.039093,-0.00067150005,1741836234.0452118
-0.138,-0.006,0.1635,0.008194,0.0431365,-0.001526,1741836234.059327
-0.124,-0.01775,0.143,0.003769,0.0397645,-0.0010375,1741836234.0749178
-0.105,-0.03525,0.15475,-0.004074,0.028854249,4.575e-05,1741836234.088515
-0.071,-0.05925,0.23625,-0.0039825,0.0259095,0.00083925005,1741836234.103147
-0.0625,-0.05475,0.27575,-0.00096125,0.0280915,0.0020752498,1741836234.117846
-0.0715,-0.02225,0.29775,-0.00051875,0.0321045,0.001831,1741836234.132554
-0.0805,-0.0085,0.27725,-0.00086975005,0.037063498,0.00051875,1741836234.147131
-0.0805,-0.01075,0.21525,-0.00143425,0.035827752,-3.0500001e-05,1741836234.161852
-0.06925,-0.01875,0.20225,-0.00428775,0.029831,0.00051875,1741836234.17638
-0.04,-0.0385,0.23175,-0.00579825,0.0282135,0.00115975,1741836234.191005
-0.0275,-0.04275,0.257,-0.00747675,0.03059375,0.00193775,1741836234.205546
-0.0105,-0.0335,0.28775,-0.0075225,0.032897998,0.00198375,1741836234.22013
-0.007,-0.02625,0.28525,-0.00411975,0.0360565,0.00048825,1741836234.235331
-0.0065,-0.02575,0.2545,-0.00112925,0.0364685,-0.00062550005,1741836234.249554
-0.00575,-0.02725,0.2395,0.00154125,0.035431,-0.00154125,1741836234.264833
0.007,-0.03,0.23875,0.0015565,0.0346375,-0.001236,1741836234.278672
0.01575,-0.0335,0.2455,0.0019225,0.03421025,-0.00068675,1741836234.294635
0.02525,-0.03625,0.2575,0.0037079998,0.03556825,0.0005035,1741836234.3075578
0.04075,-0.02425,0.269,0.004593,0.03752125,0.000824,1741836234.322028
0.04225,-0.01775,0.258,0.00488275,0.042678747,0.00016775,1741836234.336419
0.0535,-0.0345,0.251,0.0035095,0.045898497,-1.5250001e-05,1741836234.350948
0.063,-0.04175,0.25125,0.00027475,0.05461125,0.00204475,1741836234.3653471
0.0715,-0.03275,0.213,0.00039675,0.057586752,0.0032347501,1741836234.379898
0.06925,-0.02625,0.169,-0.00039675,0.0516815,0.00396725,1741836234.3950322
0.08125,-0.0095,0.16125,-0.00184625,0.04393,0.00328075,1741836234.409159
0.092,-0.0065,0.17775,0.00071725,0.034866247,0.00068675,1741836234.424854
0.10575,-0.006,0.18025,0.0039215,0.032897998,-0.00030525,1741836234.438007
0.11375,-0.01475,0.17525,0.00694275,0.031158501,-0.00048825,1741836234.452448
0.12975,-0.0275,0.185,0.0072785,0.02920525,0.0012817499,1741836234.466932
0.13225,-0.0305,0.18625,0.0062255003,0.030136,0.002121,1741836234.481353
0.1335,-0.03625,0.17125,0.0036162501,0.03364575,0.0029907501,1741836234.4957492
0.1445,-0.0415,0.13275,0.0004425,0.032333247,0.0032195,1741836234.510182
0.1475,-0.02975,0.13575,-0.0026092501,0.02586375,0.00204475,1741836234.524957
0.15075,-0.013,0.12475,-0.00090025004,0.02439875,0.00061025,1741836234.53918
0.1545,-0.009,0.10175,0.00263975,0.019714251,-0.0016632499,1741836234.553733
0.134,0.00275,0.0735,0.0037079998,0.0149535,-0.00238025,1741836234.568227
0.1075,0.01675,0.03725,0.00741575,0.00115975,7.625e-05,1741836234.582582
0.06525,0.01,-0.22875,0.010391249,-0.013931249,0.0027312501,1741836234.597019
0.0435,0.004,-0.3645,0.010253999,-0.04005425,0.004013,1741836234.611534
-0.142,0.109,-0.43375,-0.0077210004,-0.11761475,-0.0023497501,1741836234.6263092
-0.28525,0.16325,-0.42425,-0.0163575,-0.15953074,-0.01048275,1741836234.641164
-0.46075,0.196,-0.38375,-0.034362752,-0.2313995,-0.0324555,1741836234.65802
-0.82375,0.087,-0.15375,-0.038955748,-0.25762948,-0.037094,1741836234.6707451
-0.88775,-0.073,0.223,-0.04293825,-0.26399225,-0.02345275,1741836234.68575
-0.7535,-0.24475,1.0,-0.05270375,-0.23948675,-0.0053252503,1741836234.700553
-0.639,-0.12775,1.0,-0.06422425,-0.14674374,0.02589425,1741836234.715275
-0.3815,0.059,0.9725,-0.048782248,-0.09686275,0.025360001,1741836234.729852
-0.2965,0.05775,0.8115,-0.018982,-0.02513125,0.01651,1741836234.7449868
-0.1985,0.082,0.3225,-0.00668325,-0.00691225,0.01608275,1741836234.7591429
-0.15125,0.13725,0.19225,0.0075835,0.0049742498,0.01649475,1741836234.774904
-0.091,0.19025,0.22275,0.0067597497,0.007309,0.01222225,1741836234.788096
-0.0905,0.14675,0.27675,0.0034484998,0.015090999,-0.0031889998,1741836234.802681
-0.1355,0.006,0.309,0.0035095,0.02053825,-0.007904,1741836234.8171709
-0.17575,-0.02075,0.2745,0.0078735,0.029601999,-0.0057220003,1741836234.8318179
-0.2375,-0.001,0.08275,0.00823975,0.028946,-0.0020905002,1741836234.846551
-0.22575,0.001,0.02025,0.0018615,0.0168,0.00061025,1741836234.8610618
-0.15925,-0.016,0.10525,-0.0012665,0.010589501,0.00062550005,1741836234.8756611
-0.1305,-0.0145,0.18925,-0.0020905002,0.00741575,0.00065625,1741836234.890242
-0.11675,-0.004,0.29525,0.0012207499,0.01177975,-0.000763,1741836234.9048
-0.133,0.0075,0.29125,0.0029755002,0.017624,-0.00201425,1741836234.91925
-0.153,0.0185,0.25925,0.00782775,0.02793875,-0.002884,1741836234.935264
-0.18825,0.02325,0.164,0.00935375,0.029907249,-0.0023039998,1741836234.948246
-0.19025,0.01625,0.1105,0.00419625,0.02417,-0.00086975005,1741836234.9627268
-0.1545,0.002,0.09625,-0.00010675,0.01849375,-0.000946,1741836234.977247
-0.1355,-0.00775,0.12575,-0.0002135,0.009094249,-0.0012665,1741836234.9918149
-0.1175,-0.01225,0.1805,0.0023497501,0.0063477503,-0.00070200005,1741836235.0073578
-0.11475,-0.01,0.199,0.00460825,0.0046539996,0.000473,1741836235.0209432
-0.1165,0.00075,0.2215,0.0041504996,0.0052642496,0.000534,1741836235.035298
-0.12325,0.0145,0.22625,0.0042725,0.007904,-0.00065625,1741836235.049939
-0.1375,0.02925,0.20825,0.00354,0.00874325,-0.00108325,1741836235.065071
-0.14075,0.02325,0.19675,0.001068,0.008407501,-0.0012055,1741836235.0790248
-0.13825,-0.0005,0.19925,-0.0027312501,0.0055695,-0.0012055,1741836235.094976
-0.13275,-0.008,0.21325,-0.00213625,0.00408925,-0.00093075,1741836235.108481
-0.12675,-0.00975,0.2335,0.00016775,0.0034637498,0.0002595,1741836235.124972
-0.119,-0.00025,0.27225,0.00059500005,0.0049285004,0.00068675,1741836235.137567
-0.118,0.00675,0.28225,0.00035100002,0.01086425,9.15e-05,1741836235.152023
-0.1245,0.01025,0.26075,0.00042725,0.0139465,-0.00067150005,1741836235.166657
-0.128,0.00675,0.237,0.00077825,0.0167695,-0.001831,1741836235.1811688
-0.12475,-0.0015,0.20575,0.00099175,0.01622,-0.001831,1741836235.195719
-0.11675,-0.00475,0.2105,0.00054925,0.013916001,-0.0012970001,1741836235.210233
-0.097,-0.0055,0.248,0.0003205,0.0139465,-0.0012055,1741836235.224908
-0.09075,-0.00275,0.26475,-6.1000002e-05,0.01808175,-0.0019225,1741836235.239629
-0.089,0.00275,0.277,-0.00033575002,0.0206605,-0.00238025,1741836235.2542238
-0.0915,0.0085,0.27425,6.1000002e-05,0.0245515,-0.002365,1741836235.268729
-0.0925,0.015,0.259,0.000885,0.025665252,-0.00216675,1741836235.2831528
-0.089,0.01375,0.25775,0.00119025,0.0264435,-0.0020599999,1741836235.297643
-0.0845,0.01325,0.2585,0.0004425,0.0283965,-0.0025025,1741836235.3121479
-0.072,0.01175,0.26725,0.00057975,0.029541,-0.00317375,1741836235.326648
-0.064,0.00875,0.271,0.0022735,0.031372,-0.00485225,1741836235.341227
-0.053,0.0085,0.26875,0.00325,0.03221125,-0.0056,1741836235.357271
-0.04725,0.01,0.267,0.0046539996,0.034057498,-0.0068055,1741836235.370144
-0.039,0.01375,0.26325,0.0047912505,0.0348205,-0.0066374997,1741836235.385154
-0.03675,0.0155,0.2615,0.0042572496,0.03585825,-0.005539,1741836235.3991392
-0.038,0.0135,0.2375,0.00440975,0.03610225,-0.005249,1741836235.414659
-0.03325,0.0035,0.21875,0.00354,0.0333405,-0.0057372497,1741836235.428253
-0.0105,-0.02125,0.21675,0.002777,0.030914249,-0.0059205,1741836235.442754
0.0055,-0.03,0.234,0.00399775,0.02778625,-0.00469975,1741836235.457658
0.02475,-0.021,0.25775,0.0055695,0.02772525,-0.00408925,1741836235.471841
0.02375,-0.0075,0.2565,0.0069274995,0.0285035,-0.0039825,1741836235.48641
0.0215,0.00475,0.25225,0.00596625,0.030365,-0.0047302498,1741836235.500894
0.02325,0.00425,0.23625,0.00396725,0.0305175,-0.005005,1741836235.51529
0.02525,-0.00575,0.22225,0.00077825,0.028442498,-0.00469975,1741836235.529781
0.0345,-0.0245,0.20125,0.00065625,0.02671825,-0.0041044997,1741836235.544566
0.04175,-0.02725,0.199,0.0031585,0.02253725,-0.00267025,1741836235.558989
0.055,-0.01925,0.19975,0.00466925,0.020218,-0.00245675,1741836235.574322
0.06025,-0.01425,0.19975,0.0056609996,0.01573175,-0.003296,1741836235.591278
0.0695,-0.0165,0.20975,0.0049742498,0.0141755,-0.0036162501,1741836235.602603
0.074,-0.02025,0.22,0.0036162501,0.01310725,-0.0026854998,1741836235.617106
0.07875,-0.01875,0.22125,0.00317375,0.012832751,-0.00154125,1741836235.631723
0.079,-0.01575,0.21375,0.00177,0.011535751,4.575e-05,1741836235.646091
0.077,-0.013,0.204,0.00160225,0.01036075,9.15e-05,1741836235.66049
0.08125,-0.017,0.2075,0.001831,0.008941749,3.0500001e-05,1741836235.6748621
0.08775,-0.0235,0.21775,0.00187675,0.00646975,-1.5250001e-05,1741836235.6893702
0.0985,-0.031,0.24875,0.00160225,0.00579825,0.0,1741836235.7037692
0.104,-0.0335,0.274,0.0016632499,0.00839225,0.00027475,1741836235.718387
0.112,-0.02675,0.295,0.00245675,0.011901749,0.000229,1741836235.732887
0.10775,-0.02075,0.2715,0.0032195,0.01747125,-0.0007325,1741836235.7474189
0.10375,-0.018,0.22375,0.002472,0.01823425,-0.0012207499,1741836235.761991
0.109,-0.02075,0.222,0.0017395001,0.018158002,-0.00160225,1741836235.7764852
0.127,-0.00425,0.24925,0.00239575,0.0190735,-0.0012817499,1741836235.790975
0.11725,0.0275,0.241,0.00590525,0.023697,-0.00061025,1741836235.805387
-0.00625,0.07725,-0.06775,0.011550999,0.020172002,0.000412,1741836235.819911
-0.049,0.01975,-0.424,0.018463248,0.0036162501,0.00216675,1741836235.8352158
-0.088,-0.043,-0.74775,0.009017999,-0.0823365,0.00511175,1741836235.848983
-0.28025,0.00975,-0.714,0.00358575,-0.13797,0.0059815003,1741836235.864701
-0.441,0.08175,-0.558,0.01734925,-0.221405,-0.0049895,1741836235.87831
-0.8255,0.13025,-0.16075,-0.0014037499,-0.24096675,-0.01564025,1741836235.8945699
-0.967,0.017,0.1885,-0.059676997,-0.2453765,-0.023468,1741836235.907786
-0.92125,-0.235,0.975,-0.073578,-0.22433475,-0.0104065,1741836235.924468
-0.7355,-0.21825,1.0,-0.06033325,-0.13070676,0.0282135,1741836235.937303
-0.367,0.091,0.99075,-0.030731251,-0.0750885,0.037262,1741836235.951937
-0.3015,0.2215,0.81275,0.01446525,0.0056915004,0.0218505,1741836235.9663308
-0.2245,0.20825,0.16475,0.017654499,0.02124025,0.00868225,1741836235.980746
-0.164,0.11575,0.02775,0.0056915004,0.0178375,-0.00505075,1741836235.995271
-0.07925,-0.03275,0.134,0.00555425,0.01326,-0.0055237496,1741836236.009799
-0.08,-0.05825,0.18425,0.0065002497,0.01092525,-0.001831,1741836236.025065
-0.1385,-0.0445,0.17075,0.00381475,0.010849,-0.00093075,1741836236.039087
-0.16025,-0.03425,0.1475,0.0014495,0.010528499,-0.000763,1741836236.0537019
-0.1625,-0.02375,0.126,-0.002472,0.00817875,0.00019825,1741836236.0682209
-0.15725,-0.01675,0.12725,-0.00378425,0.0070495,0.00112925,1741836236.082977
-0.1525,-0.01,0.1425,-0.0047302498,0.00646975,0.0020599999,1741836236.097512
-0.147,0.00275,0.199,-0.0044250004,0.0075682504,0.00163275,1741836236.112115
-0.14725,0.00625,0.21675,-0.0020905002,0.012756251,-0.0012970001,1741836236.126722
-0.157,-0.00175,0.219,-0.00039675,0.015625,-0.00279225,1741836236.1413162
-0.1675,-0.00625,0.214,0.00611875,0.02009575,-0.00270075,1741836236.1574342
-0.17375,-0.0115,0.1665,0.009277251,0.021331752,-0.0018615,1741836236.170523
-0.1715,-0.01475,0.14875,0.00830075,0.01864625,-0.00184625,1741836236.185267
-0.16225,-0.0215,0.1655,0.0070342496,0.016296498,-0.002472,1741836236.199798
-0.1595,-0.02325,0.18525,0.00590525,0.013336251,-0.00239575,1741836236.2148612
-0.1525,-0.023,0.2105,0.00491325,0.0129395,-0.0015105,1741836236.2290719
-0.14875,-0.0205,0.22475,0.0025940002,0.01380925,-0.00033575002,1741836236.2448268
-0.14975,-0.0095,0.24575,0.00184625,0.0149535,-0.000473,1741836236.258186
-0.15625,0.00175,0.23725,4.575e-05,0.01681525,-0.00146475,1741836236.272596
-0.16525,0.02,0.20725,-0.00080875,0.017151,-0.00216675,1741836236.287194
-0.1605,0.00975,0.20475,-0.00154125,0.01678475,-0.00308225,1741836236.301826
-0.15225,-0.00575,0.22,-0.0015105,0.0154725,-0.00416575,1741836236.316546
-0.1355,-0.02575,0.26325,-0.0003815,0.01631175,-0.0038757501,1741836236.331328
-0.127,-0.0295,0.283,0.0010375,0.0220185,-0.0029755002,1741836236.345887
-0.11625,-0.02325,0.30775,0.00163275,0.026474,-0.0029449998,1741836236.3606348
-0.11425,-0.0185,0.302,0.003296,0.035797,-0.0033570002,1741836236.3753421
-0.13325,-0.0055,0.2415,0.00325,0.03942875,-0.00367725,1741836236.389874
-0.13775,0.00075,0.20375,0.001953,0.04040525,-0.0044707498,1741836236.404493
-0.1075,-0.01575,0.19,0.0012207499,0.037048247,-0.004547,1741836236.419018
-0.086,-0.0335,0.2095,0.00096125,0.03067025,-0.0030365,1741836236.434567
-0.05475,-0.04325,0.2545,0.0022735,0.03050225,-0.0021972498,1741836236.44836
-0.0515,-0.03475,0.27225,0.0065765,0.035476748,-0.001709,1741836236.462921
-0.0545,-0.0065,0.2715,0.00798025,0.03816225,-0.00119025,1741836236.477526
-0.05725,0.00475,0.25275,0.0068969997,0.040283248,-9.15e-05,1741836236.4921138
-0.055,0.011,0.21925,0.0054015,0.039245497,-0.0002135,1741836236.507524
-0.04625,0.001,0.21675,0.004074,0.03683475,-0.00090025004,1741836236.5211022
-0.01825,-0.02425,0.24225,0.0028687501,0.033157248,-0.002777,1741836236.535688
-0.008,-0.0305,0.25375,0.00367725,0.0333405,-0.00308225,1741836236.550229
-0.004,-0.0305,0.259,0.0064850003,0.035492,-0.0025787498,1741836236.564955
-0.00225,-0.03,0.2565,0.00723275,0.036972,-0.00177,1741836236.579506
0.0055,-0.03575,0.25025,0.005539,0.039184503,0.00068675,1741836236.59472
0.029,-0.054,0.2535,0.00317375,0.03987125,0.002411,1741836236.608438
0.03525,-0.054,0.2605,-0.00057975,0.042572,0.0059205,1741836236.624676
0.0365,-0.0235,0.2575,-0.00010675,0.04429625,0.0060425,1741836236.637645
0.039,-0.01825,0.2505,0.003769,0.04682925,0.00314325,1741836236.652118
0.05,-0.0365,0.2445,0.00460825,0.047378503,0.002365,1741836236.666527
0.055,-0.0445,0.23575,0.0037537501,0.047165003,0.0037079998,1741836236.681064
0.061,-0.0505,0.212,0.0033264998,0.046569753,0.00535575,1741836236.695528
0.07025,-0.047,0.2085,0.0032655,0.04603575,0.0073547503,1741836236.710001
0.09175,-0.02,0.2005,0.0050812503,0.04647825,0.00935375,1741836236.724897
0.0965,0.0065,0.181,0.0057677496,0.046692003,0.008606,1741836236.738842
0.1015,0.0235,0.154,0.0032655,0.04470825,0.0056609996,1741836236.753272
0.117,0.02075,0.1055,0.00036625,0.042328,0.00460825,1741836236.767642
0.107,0.0315,0.06475,-0.0019225,0.0321655,0.0027465,1741836236.78213
0.059,0.06025,-0.07175,-6.1000002e-05,0.02272025,0.0020295,1741836236.796639
0.03275,0.06075,-0.19375,0.00862125,-0.01248175,0.00160225,1741836236.811108
-0.0235,0.0155,-0.48875,0.011078,-0.044403,-0.000763,1741836236.8258061
-0.1095,0.02725,-0.48675,0.0040587503,-0.1330415,-0.011078,1741836236.840514
-0.3745,0.11825,-0.3355,0.0025025,-0.17613225,-0.018219,1741836236.855267
-0.54575,0.14525,-0.27425,-0.015304499,-0.23197925,-0.032959,1741836236.870102
-0.813,0.06375,0.04725,-0.030746501,-0.2456055,-0.03762825,1741836236.8848362
-0.81225,-0.08125,0.401,-0.057586752,-0.23818974,-0.02964775,1741836236.899673
-0.597,-0.2335,1.0,-0.078003,-0.20680225,-0.0099945,1741836236.914554
-0.488,-0.1635,1.0,-0.0592345,-0.111221254,0.024108998,1741836236.929447
-0.33675,0.0375,0.89575,-0.0222015,-0.0699005,0.028183,1741836236.944664
-0.29875,0.0945,0.6775,0.00027475,-0.03677375,0.0267945,1741836236.958603
-0.21025,0.09475,0.31875,0.0102845,-0.0012970001,0.0151825,1741836236.9750102
-0.159,0.0725,0.26525,0.014572251,0.0056915004,0.0099945,1741836236.987594
-0.12025,0.05975,0.25925,0.02127075,0.0153655,0.0049590003,1741836237.001929
-0.11575,0.05725,0.27225,0.022232,0.019134501,0.00245675,1741836237.0163789
-0.135,0.05,0.2585,0.018707251,0.02452075,-0.0032195,1741836237.030886
-0.1785,0.024,0.1825,0.014053251,0.025055,-0.0052337497,1741836237.045509
-0.191,0.00725,0.1445,0.0051880004,0.0206145,-0.006073,1741836237.060089
-0.177,-0.0225,0.14575,0.002533,0.017807,-0.00514225,1741836237.075077
-0.16125,-0.02475,0.1765,0.001175,0.01628125,-0.0028074998,1741836237.0893052
-0.13975,-0.01825,0.23,0.00187675,0.01800525,-0.0024414998,1741836237.104059
-0.1415,-0.01525,0.23425,0.00463875,0.02421575,-0.0028687501,1741836237.1186051
-0.16625,-0.00825,0.19475,0.0055847503,0.026474,-0.00254825,1741836237.1332679
-0.17375,-0.009,0.15425,0.0042267498,0.02462775,-0.0012970001,1741836237.147906
-0.1585,-0.02325,0.10975,0.0018615,0.0207215,-0.0012055,1741836237.162535
-0.14425,-0.03275,0.12775,0.0,0.01617425,-0.001175,1741836237.177243
-0.12125,-0.0475,0.2015,-0.0011445,0.0100555,0.0002595,1741836237.191825
-0.11375,-0.04475,0.2355,-0.00067150005,0.0099639995,0.0014037499,1741836237.207602
-0.112,-0.03325,0.258,0.000229,0.0139465,0.0025025,1741836237.2210739
-0.13225,0.01325,0.26875,-0.0002595,0.01640325,0.00263975,1741836237.235609
-0.1415,0.028,0.24825,-0.0017242499,0.0207215,0.0021972498,1741836237.250232
-0.1405,0.01175,0.19025,-0.0033264998,0.020584,0.00119025,1741836237.2651079
-0.13,-0.003,0.19025,-0.00611875,0.016113251,-0.0012817499,1741836237.279628
-0.10425,-0.0325,0.25125,-0.0057372497,0.014343251,-0.0018005001,1741836237.294976
-0.092,-0.0435,0.2935,-0.0044250004,0.01675425,-0.00061025,1741836237.3090508
-0.09475,-0.02025,0.32375,-0.0031585,0.02130125,-1.5250001e-05,1741836237.3247921
-0.112,0.00625,0.3055,0.00204475,0.033035252,-0.0011445,1741836237.338421
-0.12125,0.03525,0.24075,0.0030669998,0.035843,-0.0013580001,1741836237.3528829
-0.1125,0.02225,0.21325,-0.0012665,0.03221125,-0.00115975,1741836237.367656
-0.0875,-0.0225,0.207,-0.00384525,0.029601999,-0.00157175,1741836237.38242
-0.06875,-0.0355,0.228,-0.00184625,0.0278015,-0.00198375,1741836237.397032
-0.0455,-0.02925,0.26525,0.001419,0.028411752,-0.00201425,1741836237.411614
-0.04775,-0.01125,0.26875,0.0040587503,0.02981575,-0.0023039998,1741836237.426307
-0.05275,0.00275,0.24675,0.0056,0.032180753,-0.0028229998,1741836237.440893
-0.0475,-0.008,0.2415,0.0041044997,0.03190625,-0.0024414998,1741836237.4555142
-0.0375,-0.0195,0.2445,0.00027475,0.030914249,-9.15e-05,1741836237.470062
-0.0215,-0.02225,0.2515,3.0500001e-05,0.031311,0.00093075,1741836237.4849238
-0.01675,-0.01775,0.2545,0.0022277501,0.0341035,0.00061025,1741836237.4992561
-0.00425,-0.0105,0.257,0.00308225,0.035278253,-0.000412,1741836237.5148642
0.001,-0.007,0.25525,0.002533,0.03468325,-0.00198375,1741836237.528369
0.00525,-0.00475,0.256,0.002121,0.0341645,-0.00198375,1741836237.542858
0.0095,-0.01125,0.255,0.0019225,0.034911998,-0.0002135,1741836237.5574121
0.02725,-0.0325,0.26025,0.00115975,0.03585825,0.001587,1741836237.5717351
0.03525,-0.03775,0.26025,0.00099175,0.040039003,0.00538625,1741836237.586236
0.04775,-0.02425,0.2425,0.00204475,0.041808996,0.0064850003,1741836237.6006122
0.05225,-0.01675,0.22875,0.00267025,0.04208375,0.0068665,1741836237.615106
0.06325,-0.0155,0.21725,0.00102225,0.039276,0.0060272496,1741836237.629517
0.06875,-0.0185,0.2245,0.00039675,0.037902746,0.00538625,1741836237.644786
0.075,-0.0205,0.2355,0.0030975002,0.03819275,0.0052337497,1741836237.658365
0.08225,0.00425,0.241,0.0052795,0.039566003,0.0050202496,1741836237.672744
0.0775,0.01225,0.21125,0.00555425,0.03984075,0.0025940002,1741836237.6870668
0.08225,-0.00425,0.168,0.00177,0.037201,0.00160225,1741836237.701474
0.096,-0.01075,0.179,-0.0023497501,0.032852247,0.00184625,1741836237.716118
0.12225,-0.00475,0.197,-4.575e-05,0.03259275,0.0021819999,1741836237.7306051
0.126,0.001,0.18525,0.0059205,0.03359975,0.0009765,1741836237.7454112
0.12775,0.00475,0.1485,0.00723275,0.03297425,-1.5250001e-05,1741836237.759556
0.13125,-0.00225,0.13475,0.00694275,0.031005751,-0.00068675,1741836237.774103
0.13375,0.00275,0.11525,0.00364675,0.02415475,-0.00125125,1741836237.788543
0.124,0.01325,0.08325,0.0030669998,0.02012625,-0.0020752498,1741836237.803047
0.10725,0.02825,0.035,0.0045777503,0.0072480002,-0.004776,1741836237.8174112
0.02925,0.06675,-0.1215,0.008499251,-0.0032347501,-0.0054015,1741836237.832135
-0.0005,0.06375,-0.237,0.0168305,-0.04679875,-0.00668325,1741836237.846813
-0.071,0.061,-0.313,0.01272575,-0.081833,-0.010101249,1741836237.8617432
-0.1635,0.08675,-0.28325,-0.00305175,-0.1541595,-0.02275075,1741836237.876485
-0.43675,0.04525,-0.26625,-0.00794975,-0.18492125,-0.0282745,1741836237.891341
-0.578,-0.01925,-0.2555,-0.012680001,-0.23928826,-0.03318775,1741836237.9077141
-0.80175,-0.12,0.06775,-0.019897498,-0.2552185,-0.032074,1741836237.9207969
-0.83525,-0.16,0.37,-0.03692625,-0.24249275,-0.01431275,1741836237.9355981
-0.74125,-0.16675,0.8885,-0.04458625,-0.214157,-0.001114,1741836237.9503732
-0.5895,-0.1465,1.0,-0.034652747,-0.13389575,0.017395,1741836237.965033
-0.3025,-0.03175,0.9925,-0.02111825,-0.0817565,0.021469,1741836237.979794
-0.2745,0.0525,0.7785,-0.00791925,0.011795,0.0244445,1741836237.994845
-0.2745,0.1505,0.063,-0.0033570002,0.027007999,0.021560749,1741836238.008831
-0.221,0.13575,-0.03025,-0.0017395001,0.01345825,0.00991825,1741836238.02485
-0.117,0.04925,0.233,-0.00068675,0.008361749,0.003662,1741836238.0380108
-0.114,0.018,0.32875,0.0012817499,0.010528499,-0.00119025,1741836238.052564
-0.16625,0.006,0.297,0.0070342496,0.026184,-0.0063477503,1741836238.0671391
-0.19475,-0.00375,0.22975,0.01071175,0.033035252,-0.00817875,1741836238.0816991
-0.22125,0.00025,0.1685,0.00817875,0.034011748,-0.008865249,1741836238.0962229
-0.21975,-0.001,0.0855,0.00570675,0.030777,-0.008072,1741836238.1109052
-0.199,-0.02175,0.07725,0.0048065,0.023193251,-0.00741575,1741836238.1254778
-0.1585,-0.0465,0.12475,0.0038757501,0.0192565,-0.0072175004,1741836238.140197
-0.14225,-0.058,0.18675,0.00184625,0.017028749,-0.00720225,1741836238.154869
-0.13875,-0.064,0.25975,0.0020752498,0.019867001,-0.00717175,1741836238.169467
-0.15525,-0.04625,0.25475,0.0054475004,0.0272675,-0.004013,1741836238.1852212
-0.17275,-0.016,0.2015,0.00782775,0.02978525,-0.0012817499,1741836238.1988149
-0.17475,-0.00925,0.1745,0.007904,0.0309295,0.001236,1741836238.2145832
-0.159,-0.0045,0.1385,0.00567625,0.02908325,0.0007935,1741836238.228055
-0.148,-0.0125,0.1475,0.000412,0.022064252,-0.00160225,1741836238.242595
-0.1175,-0.03425,0.21425,-0.0005035,0.01950075,-0.002411,1741836238.2575612
-0.1045,-0.0375,0.25175,-0.00190725,0.0208435,-0.00314325,1741836238.272158
-0.126,-0.0125,0.29325,-0.0034942501,0.02528375,-0.0033264998,1741836238.286963
-0.136,0.01075,0.285,-0.00325,0.0331115,-0.0007935,1741836238.301574
-0.129,0.0185,0.2265,-0.00193775,0.0328675,0.00039675,1741836238.316121
-0.125,0.0085,0.207,-0.00115975,0.031128,6.1000002e-05,1741836238.330615
-0.11775,-0.005,0.21025,-0.00068675,0.028778,-0.0032347501,1741836238.345271
-0.09675,-0.02725,0.25275,-7.625e-05,0.028900249,-0.0044555003,1741836238.360058
-0.09,-0.031,0.26675,0.001175,0.03019725,-0.0038605002,1741836238.3748071
-0.082,-0.01525,0.26325,0.00125125,0.0309295,-0.00279225,1741836238.389168
-0.0815,-0.0055,0.25475,0.000534,0.032196,-0.002472,1741836238.4039931
-0.0765,-0.001,0.23425,-9.15e-05,0.032516498,-0.0025787498,1741836238.418745
-0.06775,-0.01325,0.2265,-0.00267025,0.0319825,-0.0023039998,1741836238.434425
-0.0455,-0.0345,0.23475,-0.0038757501,0.031601,-0.00177,1741836238.448141
-0.036,-0.03775,0.24325,-0.0013275,0.03202825,-0.000412,1741836238.462888
-0.03625,-0.02175,0.2435,0.0012207499,0.032608002,-9.15e-05,1741836238.477592
-0.037,-0.0055,0.23125,0.00369275,0.03152475,0.00019825,1741836238.4920971
-0.02525,-0.0045,0.215,0.0021819999,0.029541,0.00067150005,1741836238.507791
-0.01175,-0.01825,0.218,-0.00440975,0.02633675,0.00302125,1741836238.52135
0.00975,-0.0295,0.234,-0.00646975,0.02645875,0.003662,1741836238.535897
0.0155,-0.02075,0.242,-0.00587475,0.028442498,0.00331125,1741836238.5504582
0.02225,-0.0005,0.25325,-0.00419625,0.029022248,0.00213625,1741836238.5649788
0.02875,-0.00125,0.26525,-0.00263975,0.02948,0.0007935,1741836238.579583
0.03875,0.006,0.28375,-0.00051875,0.0312195,0.00010675,1741836238.59468
0.04025,0.0045,0.276,0.00096125,0.032135,0.00070200005,1741836238.608186
0.039,-0.0,0.2645,0.0018005001,0.03335575,0.00148,1741836238.622578
0.04625,-0.01675,0.25425,0.00175475,0.03408825,0.000763,1741836238.637078
0.05475,-0.0205,0.2535,0.00305175,0.035461497,-0.00099175,1741836238.651715
0.06975,-0.019,0.25275,0.00428775,0.03627025,-0.00146475,1741836238.6664162
0.076,-0.01575,0.248,0.006073,0.03825375,-0.00108325,1741836238.680972
0.084,-0.0135,0.23675,0.0061035,0.03926075,-0.00029,1741836238.695446
0.0935,-0.0205,0.241,0.00413525,0.04173275,0.00239575,1741836238.7098901
0.1115,-0.0175,0.241,0.003769,0.043045,0.0037537501,1741836238.724726
0.113,-0.013,0.22275,0.004776,0.044051997,0.00469975,1741836238.738678
0.115,-0.01525,0.18575,0.0063934997,0.043975748,0.0064850003,1741836238.75327
0.12525,-0.007,0.18925,0.00453175,0.04331975,0.00782775,1741836238.7677
0.13325,0.0075,0.19325,0.00331125,0.043808,0.00811775,1741836238.782212
0.13475,0.01375,0.14525,0.00520325,0.0443115,0.0061645,1741836238.796603
0.13675,0.00875,0.12175,0.00935375,0.038818248,0.00198375,1741836238.810961
0.13825,0.01275,0.12475,0.01156625,0.0348205,0.00125125,1741836238.825925
0.13725,0.01825,0.11125,0.0175935,0.028656,0.001236,1741836238.839668
0.10975,0.04275,0.0395,0.01823425,0.02371225,0.0012970001,1741836238.854051
0.0825,0.052,-0.046,0.017212,0.0013275,0.0020599999,1741836238.8684642
0.01525,0.05775,-0.3875,0.013503999,-0.02371225,0.00354,1741836238.882925
-0.0345,0.05875,-0.53875,0.0055847503,-0.061264,0.0018615,1741836238.897608
-0.2575,0.097,-0.472,-0.015594499,-0.15538025,-0.01345825,1741836238.912452
-0.4145,0.09175,-0.391,-0.017120251,-0.19502251,-0.02130125,1741836238.927231
-0.6075,0.0835,-0.33325,-6.1000002e-05,-0.2516785,-0.0382995,1741836238.94207
-0.967,-0.0265,-0.015,0.00723275,-0.267273,-0.04885875,1741836238.956814
-0.986,-0.181,0.38575,-0.01498425,-0.2556915,-0.04916375,1741836238.9716501
-0.6855,-0.3265,1.0,-0.04220575,-0.21958925,-0.030761749,1741836238.9864352
-0.52025,-0.25175,1.0,-0.042724498,-0.11650075,0.00737,1741836239.001132
-0.31925,-0.02525,0.9235,-0.0133667495,-0.07197575,0.014618,1741836239.0159721
-0.28475,0.07075,0.73475,0.0067597497,-0.013061499,0.0160675,1741836239.030476
-0.21025,0.1255,0.32325,0.0033570002,0.00146475,0.013183501,1741836239.044928
-0.1625,0.098,0.2255,0.0023039998,0.012176501,0.00785825,1741836239.059387
-0.12175,0.04375,0.17725,0.0030975002,0.0122985,0.0057525,1741836239.074968
-0.12625,0.01275,0.1905,0.002121,0.01054375,0.00013725001,1741836239.088298
-0.16575,-0.04875,0.206,-0.00051875,0.010604749,-0.00157175,1741836239.102928
-0.18425,-0.05175,0.18575,-0.00328075,0.009811499,3.0500001e-05,1741836239.117677
-0.18075,-0.018,0.156,-0.00320425,0.00842275,0.00177,1741836239.132281
-0.1675,0.00325,0.1665,-0.0019225,0.0077972496,0.002411,1741836239.146781
-0.147,0.01975,0.202,-0.0016175,0.009430001,0.0008545,1741836239.161387
-0.142,0.00975,0.21575,-0.0016632499,0.01206975,-0.00143425,1741836239.175982
-0.1425,-0.00575,0.2175,0.0002595,0.01794425,-0.004242,1741836239.190669
-0.1575,-0.024,0.17975,0.00154125,0.01976025,-0.0038605002,1741836239.207603
-0.1655,-0.02775,0.1495,0.0021057501,0.01838675,-0.00160225,1741836239.220017
-0.1625,-0.0375,0.12875,0.001709,0.0157775,-0.00071725,1741836239.234797
-0.15725,-0.03875,0.145,0.0027312501,0.0109709995,0.00077825,1741836239.2493188
-0.1495,-0.03625,0.1855,0.00296025,0.009552,0.001419,1741836239.264925
-0.15425,-0.022,0.20575,0.00042725,0.00897225,0.002243,1741836239.278501
-0.16175,0.00425,0.21425,-0.0002595,0.01048275,0.00238025,1741836239.294823
-0.159,0.004,0.20325,-0.00228875,0.013046251,0.00184625,1741836239.307888
-0.1525,0.00175,0.18975,-0.0030975002,0.01266475,0.00112925,1741836239.322017
-0.14775,-0.0035,0.191,-0.0023497501,0.01042175,-0.00051875,1741836239.336865
-0.13675,-0.01575,0.2235,-0.0009765,0.009613,-0.001175,1741836239.351407
-0.13475,-0.01825,0.242,0.000763,0.01104725,-0.0014495,1741836239.3661098
-0.14125,-0.00975,0.25725,0.00061025,0.013031,-0.0012055,1741836239.380692
-0.1435,-0.004,0.25275,0.00036625,0.017028749,-0.00109875,1741836239.395296
-0.147,-0.0035,0.23075,1.5250001e-05,0.01988225,-0.0016785001,1741836239.409791
-0.14275,-0.00425,0.218,-0.0009765,0.02272025,-0.00251775,1741836239.42459
-0.13575,-0.0025,0.2075,-0.00245675,0.020477248,-0.00334175,1741836239.4394
-0.11825,-0.01175,0.213,-0.0019989999,0.017700251,-0.003891,1741836239.454171
-0.108,-0.02575,0.23125,-0.0022125002,0.018432502,-0.0054780003,1741836239.4691
-0.09425,-0.03625,0.27325,-0.00352475,0.021041749,-0.00511175,1741836239.485059
-0.0945,-0.024,0.28025,-0.0030975002,0.02595525,-0.0021515,1741836239.498386
-0.108,0.011,0.25125,-0.00030525,0.027832001,-0.0007325,1741836239.512863
-0.11,0.015,0.218,0.0033264998,0.027862499,0.0007325,1741836239.5272498
-0.10525,0.00625,0.1705,0.00238025,0.02575675,0.000473,1741836239.541641
-0.0955,0.00275,0.171,0.00204475,0.0199585,-0.001709,1741836239.557175
-0.06675,-0.01525,0.2045,0.00355525,0.016998248,-0.00289925,1741836239.570672
-0.056,-0.026,0.2215,0.0039825,0.01324475,-0.00369275,1741836239.585301
-0.05275,-0.0245,0.2435,0.0028535,0.013336251,-0.00354,1741836239.5998888
-0.058,-0.017,0.2525,0.00112925,0.01593025,-0.0016785001,1741836239.615145
-0.057,-0.0045,0.2665,0.00010675,0.01791375,4.575e-05,1741836239.629161
-0.05325,0.00025,0.27025,-0.00131225,0.0203705,0.0015565,1741836239.6449358
-0.05,0.00675,0.27425,-0.003952,0.02519225,0.00154125,1741836239.658439
-0.047,0.00075,0.27775,-0.0038757501,0.027069,0.00033575002,1741836239.674818
-0.04025,-0.01075,0.28575,-0.00064075,0.030578502,-0.0011445,1741836239.687666
-0.03375,-0.02225,0.27975,0.0020752498,0.0319825,-0.00119025,1741836239.702492
-0.03475,-0.01475,0.264,0.00621025,0.03253175,-0.0016785001,1741836239.717083
-0.02525,0.0,0.242,0.00617975,0.0318145,-0.0020752498,1741836239.731679
-0.01675,0.00025,0.2395,0.00331125,0.02977,-0.0025787498,1741836239.7463381
0.003,-0.0055,0.24525,0.00187675,0.0290375,-0.00254825,1741836239.760881
0.00975,-0.00975,0.2455,0.000824,0.02857975,-0.0025940002,1741836239.77549
0.01225,-0.01175,0.234,0.0010375,0.028366,-0.0028687501,1741836239.790093
0.01025,-0.00925,0.2255,0.0017242499,0.026657,-0.001892,1741836239.804577
0.02075,-0.009,0.206,0.00157175,0.024475,-0.00099175,1741836239.8189409
0.03,-0.013,0.20725,0.00064075,0.01893625,-0.000946,1741836239.835074
0.0465,-0.01925,0.232,0.00061025,0.017044,-0.00105275,1741836239.847979
0.05025,-0.019,0.24225,0.00065625,0.016128499,-0.00086975005,1741836239.862476
0.049,-0.0175,0.237,0.000885,0.016540501,-0.0007325,1741836239.8768919
0.051,-0.01975,0.2305,0.000885,0.01675425,-0.0009765,1741836239.891395
0.05425,-0.02175,0.2265,0.00051875,0.015335,-0.0020295,1741836239.907765
0.05725,-0.02225,0.228,0.00048825,0.014389,-0.002472,1741836239.920363
0.05975,-0.02025,0.23225,0.000885,0.012832751,-0.0014495,1741836239.93523
0.0695,-0.01275,0.24125,0.00115975,0.0122375,-0.00057975,1741836239.949357
0.07275,-0.0095,0.2445,0.00137325,0.0128632495,-0.000183,1741836239.964514
0.07575,-0.01525,0.2395,0.0009765,0.013717749,-0.00030525,1741836239.978462
0.07875,-0.021,0.2375,1.5250001e-05,0.014038,-0.00029,1741836239.9947689
0.08225,-0.02175,0.23125,0.0004425,0.0136565,-0.0004425,1741836240.0079842
0.08175,-0.021,0.224,0.0019989999,0.01251225,-0.001068,1741836240.021953
0.082,-0.01725,0.21275,0.00177,0.011688249,-0.00109875,1741836240.036476
0.08325,-0.01775,0.20975,0.0009155,0.010604749,-0.001007,1741836240.050965
0.08525,-0.02025,0.207,-0.00024425,0.0075377496,-0.00039675,1741836240.0654888
0.087,-0.0185,0.2,-0.000229,0.0056609996,-0.00010675,1741836240.0800178
0.08675,-0.0205,0.19575,6.1000002e-05,0.0017242499,-1.5250001e-05,1741836240.0946581
0.0905,-0.02625,0.1975,-0.00019825,-0.00013725001,-7.625e-05,1741836240.10932
0.09275,-0.02625,0.204,-0.0003205,-0.0029145,0.00013725001,1741836240.124568
