acc_x,acc_y,acc_z,gyro_x,gyro_y,gyro_z,timestamp
0.2405,0.00025,-0.0395,-6.1000002e-05,-0.00065625,-0.0004425,1741839248.353036
0.24125,-0.00275,-0.03675,-0.0002595,-0.00065625,-0.0002135,1741839248.3671172
0.242,-0.0035,-0.0365,-0.00080875,-0.0003205,0.00064075,1741839248.381943
0.2425,0.0005,-0.03725,-0.00074775,-0.00016775,0.0009155,1741839248.396527
0.24275,0.00325,-0.0365,-0.00030525,4.575e-05,0.00068675,1741839248.411073
0.24425,0.00425,-0.03575,0.0,1.5250001e-05,0.0003815,1741839248.425335
0.24475,0.00325,-0.03625,0.0003815,-0.00024425,-0.00013725001,1741839248.4407659
0.2465,0.001,-0.03475,0.00039675,-0.00036625,-0.000229,1741839248.454554
0.2475,0.0005,-0.03325,0.000412,-0.000412,-0.00019825,1741839248.4700558
0.247,0.0035,-0.034,0.0004425,-0.0001525,3.0500001e-05,1741839248.4837718
0.24575,0.0055,-0.036,0.00035100002,4.575e-05,0.00010675,1741839248.498188
0.24475,0.006,-0.03725,0.00035100002,0.00033575002,-9.15e-05,1741839248.512886
0.2435,0.00225,-0.0395,0.000473,0.00042725,-0.0002595,1741839248.5272589
0.24275,-0.00025,-0.04,0.00036625,0.0004425,-0.00019825,1741839248.541837
0.2425,-0.00075,-0.039,0.00045775,0.0004425,-0.000122000005,1741839248.556489
0.24175,-0.00075,-0.04025,0.00090025004,0.0003205,-0.0002595,1741839248.5710962
0.242,-0.00125,-0.04175,0.00099175,0.00016775,-0.00030525,1741839248.585848
0.24275,-0.00125,-0.04075,0.00093075,0.0,-0.00027475,1741839248.600523
0.24375,-0.0015,-0.038,0.0007325,3.0500001e-05,-0.000183,1741839248.615108
0.24425,-0.0025,-0.036,0.00030525,0.0001525,0.00016775,1741839248.630312
0.24375,-0.00225,-0.03525,0.0003815,0.00029,0.00027475,1741839248.6442099
0.24225,-0.00025,-0.037,0.0005645,0.00061025,0.00029,1741839248.658735
0.24075,0.0035,-0.0395,0.000534,0.00068675,0.000183,1741839248.6731572
0.2405,0.00275,-0.04125,0.00054925,0.00064075,1.5250001e-05,1741839248.6877282
0.24025,-0.00125,-0.047,0.0007325,0.00033575002,-0.000229,1741839248.702246
0.2405,-0.0025,-0.04725,0.0007935,6.1000002e-05,-0.000122000005,1741839248.7168262
0.241,-0.002,-0.04475,0.00062550005,-0.00029,0.00035100002,1741839248.731603
0.2405,0.0015,-0.0405,0.00033575002,-6.1000002e-05,0.0005035,1741839248.74596
0.237,0.0035,-0.04525,-0.00027475,0.00109875,0.00061025,1741839248.760406
0.21675,0.012,-0.07875,-0.00096125,0.001953,0.00074775,1741839248.774902
0.2045,0.01675,-0.11225,-0.00308225,0.0042572496,0.0014495,1741839248.789449
0.2095,0.0135,-0.222,-0.0042725,0.0055695,0.0016785001,1741839248.803919
0.22425,-0.00325,-0.288,-0.0038605002,0.0100555,-0.0005035,1741839248.818624
0.1885,-0.05925,-0.488,-0.0021057501,0.014434749,-0.002777,1741839248.8332942
0.13475,-0.0985,-0.60975,-0.00112925,0.0185395,-0.0026245,1741839248.848046
0.009,-0.156,-0.7505,-0.005539,0.013122501,0.0043182503,1741839248.8636858
-0.0275,-0.14425,-0.74175,-0.0204925,-0.00708,0.02766425,1741839248.8773131
-0.01675,-0.00025,-0.5275,-0.02174375,-0.019989,0.03404225,1741839248.8921092
0.042,0.06425,-0.308,-0.0091705,-0.05043025,0.02398675,1741839248.906801
0.28775,0.10075,0.31575,-0.00169375,-0.06228625,0.0160675,1741839248.921334
0.409,0.14825,0.64525,0.00187675,-0.0671845,0.01278675,1741839248.93577
0.48625,0.21125,0.893,-0.0032655,-0.05119325,0.01115425,1741839248.950652
0.50375,0.21325,0.981,-0.0031127501,-0.03224175,0.0041044997,1741839248.964771
0.44875,0.14725,0.86025,0.0040587503,0.00030525,-0.01513675,1741839248.98067
0.275,0.0185,0.56575,0.0067902496,0.00785825,-0.020049999,1741839248.993591
0.1925,-0.02525,0.4175,0.0080567505,0.017135499,-0.017974751,1741839249.0082371
0.0635,-0.057,0.09325,0.0069274995,0.01968375,-0.012832751,1741839249.022729
0.0295,-0.0475,-0.04375,0.00585925,0.0153502505,-0.001068,1741839249.037311
0.06575,-0.0025,-0.1495,0.0068665,0.00941475,0.00358575,1741839249.0518022
0.118,0.03575,-0.12925,0.00897225,-0.0016632499,0.009719751,1741839249.066313
0.2205,0.13275,-0.055,0.00785825,-0.00340275,0.0112,1741839249.0808299
0.25625,0.1605,-0.0275,0.0055237496,-0.0030365,0.011016751,1741839249.095389
0.298,0.1505,0.0225,0.0019225,-0.0009765,0.0052642496,1741839249.109858
0.308,0.1245,0.0505,0.0016175,-0.00045775,0.000885,1741839249.12428
0.31,0.0895,0.0735,0.00175475,0.0003205,-0.00671375,1741839249.138755
0.2925,0.012,0.07825,0.0017852499,0.0011445,-0.008590749,1741839249.153156
0.27875,-0.018,0.0635,0.00054925,0.0040587503,-0.0064239996,1741839249.167754
0.2555,-0.02375,0.028,-0.00065625,0.004547,-0.0036162501,1741839249.182314
0.248,-0.004,0.01375,-0.00115975,0.00352475,-0.00065625,1741839249.197102
0.2525,0.01975,0.00125,-0.001007,0.003418,-0.0011445,1741839249.2116868
0.259,0.0155,0.0,-0.0001525,0.0032195,-0.00354,1741839249.226124
0.2655,-0.00125,-0.00475,-9.15e-05,0.00279225,-0.00372325,1741839249.24129
0.26575,-0.003,-0.0055,-0.0016175,0.0032195,-0.000885,1741839249.255618
0.2585,0.01375,-0.0185,-0.00245675,0.00413525,0.00080875,1741839249.270654
0.255,0.02525,-0.0295,-0.00358575,0.0043335,0.0019225,1741839249.284899
0.25525,0.039,-0.03025,-0.00325,0.0033875,0.00090025004,1741839249.300416
0.25475,0.03675,-0.0235,-0.0025025,0.0024414998,-0.0007935,1741839249.314005
0.25275,0.028,-0.01725,-0.0025025,0.001648,-0.00296025,1741839249.328476
0.25075,0.0065,-0.008,-0.00328075,0.00163275,-0.0026245,1741839249.343147
0.24925,0.00125,-0.00525,-0.00416575,0.0020752498,-0.00065625,1741839249.357804
0.24275,0.006,-0.006,-0.0043182503,0.0025634998,0.00024425,1741839249.372385
0.23925,0.00925,-0.01125,-0.0048979996,0.0038605002,0.0011445,1741839249.3869262
0.23275,0.00875,-0.028,-0.0049285004,0.0043944996,0.00105275,1741839249.401435
0.23125,0.00425,-0.03425,-0.0033570002,0.0042725,0.000122000005,1741839249.415949
0.23325,-0.00025,-0.02925,-0.0017395001,0.00378425,-0.000412,1741839249.431017
0.233,0.0015,-0.02275,0.00149525,0.00334175,-0.001068,1741839249.44508
0.23475,0.0035,-0.01825,0.0021972498,0.00358575,-0.00086975005,1741839249.4597251
0.2365,0.0015,-0.021,0.00169375,0.004547,0.0003205,1741839249.474132
0.23425,0.00025,-0.03375,0.0011445,0.0052337497,0.00099175,1741839249.488595
0.23075,0.004,-0.0415,0.00093075,0.0057525,0.0014495,1741839249.503079
0.22875,0.014,-0.05025,0.00169375,0.0052642496,0.001175,1741839249.517618
0.2305,0.01725,-0.05,0.00238025,0.0043182503,0.00059500005,1741839249.532066
0.2335,0.019,-0.0475,0.00325,0.0023345,-0.00061025,1741839249.546412
0.24,0.01375,-0.04425,0.0033570002,0.001953,-0.00115975,1741839249.561017
0.24075,0.0065,-0.0465,0.00384525,0.0021819999,-0.0019225,1741839249.575412
0.23825,-0.00425,-0.05375,0.0040587503,0.0022277501,-0.00177,1741839249.59107
0.23625,-0.0025,-0.0555,0.004013,0.0018005001,-0.00059500005,1741839249.604795
0.235,0.00875,-0.054,0.00354,0.00146475,6.1000002e-05,1741839249.6192472
0.23675,0.014,-0.051,0.0027160002,0.000824,0.00033575002,1741839249.633606
0.2385,0.0135,-0.0485,0.00314325,0.00070200005,-0.0003815,1741839249.648153
0.239,0.00875,-0.05025,0.00428775,0.00093075,-0.00181575,1741839249.6632519
0.2365,0.0035,-0.05925,0.0044707498,0.001114,-0.001892,1741839249.6772218
0.235,0.00425,-0.064,0.00393675,0.00119025,-0.0013580001,1741839249.691734
0.23525,0.0065,-0.067,0.00131225,0.00093075,0.00057975,1741839249.7061372
0.23675,0.0095,-0.0765,0.00061025,0.00065625,0.000885,1741839249.720959
0.23725,0.00825,-0.0835,0.00108325,0.0,-6.1000002e-05,1741839249.735182
0.2365,0.00725,-0.09475,0.0017852499,-0.00024425,-0.00068675,1741839249.750457
0.23375,0.00675,-0.0995,0.0028687501,1.5250001e-05,-0.0015565,1741839249.7644072
0.22175,0.0015,-0.117,0.0024872501,0.000412,-0.0014037499,1741839249.780608
0.21325,-0.0005,-0.1325,0.00033575002,0.0005645,0.00039675,1741839249.7934022
0.208,-0.0005,-0.1775,0.00010675,0.00030525,0.00112925,1741839249.807931
0.2125,-0.00025,-0.20575,0.00254825,-0.00010675,0.00148,1741839249.8224819
0.23575,0.00825,-0.257,0.00369275,0.000183,0.0014495,1741839249.836949
0.2515,0.00975,-0.2875,0.007431,0.002777,0.000122000005,1741839249.851326
0.226,-0.01975,-0.3985,0.00912475,0.00434875,-0.00061025,1741839249.865982
0.18375,-0.04875,-0.46325,0.008255,0.005844,0.00067150005,1741839249.880874
0.12925,-0.07775,-0.53575,0.0013885,0.00672925,0.0110015,1741839249.894891
0.0195,-0.09475,-0.62925,-0.00469975,0.00289925,0.01940925,1741839249.909475
0.00475,-0.03025,-0.5915,-0.015152001,-0.0229645,0.032837003,1741839249.9241621
0.118,0.1625,-0.246,-0.010376001,-0.042221002,0.029449498,1741839249.938848
0.22625,0.2265,0.085,0.00918575,-0.0723115,0.0070342496,1741839249.9533389
0.446,0.232,0.84125,0.013198749,-0.075683504,-0.00352475,1741839249.9679449
0.4805,0.17625,1.0,-0.00175475,-0.0447235,-0.011764499,1741839249.982502
0.37875,0.01775,0.81175,-0.00767525,-0.021636998,-0.013046251,1741839249.9971359
0.305,-0.0525,0.68075,0.00355525,-0.0031585,-0.019104,1741839250.0138292
0.1815,-0.137,0.5025,0.00991825,0.00027475,-0.019439751,1741839250.026208
0.131,-0.14375,0.38775,0.009384249,0.011901749,-0.00747675,1741839250.041492
0.06225,-0.065,0.12125,0.006012,0.01593025,0.0012665,1741839250.055105
0.04775,-0.001,0.005,0.00292975,0.01719675,0.00852975,1741839250.071119
0.054,0.05725,-0.08575,0.0025025,0.01171875,0.013702501,1741839250.083893
0.12875,0.14425,-0.1175,0.004303,0.0059205,0.012375,1741839250.098304
0.17625,0.17325,-0.07375,0.0045625,-0.00320425,0.006775,1741839250.11394
0.25,0.17175,0.01325,0.00279225,-0.0041044997,0.0033722501,1741839250.127275
0.27725,0.14125,0.048,0.00036625,-0.0021057501,-0.003296,1741839250.141868
0.31275,0.06625,0.10675,3.0500001e-05,-0.00070200005,-0.00543225,1741839250.156435
0.31625,0.03675,0.1195,-0.0003205,0.00254825,-0.0063477503,1741839250.171283
0.30125,-0.001,0.1045,-0.0009155,0.00466925,-0.0054932497,1741839250.185492
0.28975,-0.009,0.08525,-0.0018005001,0.0081635,-0.0029449998,1741839250.2008598
0.268,0.001,0.04275,-0.00204475,0.00891125,-0.0017852499,1741839250.214665
0.26175,0.01125,0.03275,-0.0022277501,0.008850001,-0.00115975,1741839250.23135
0.26225,0.01725,0.039,-0.0023497501,0.007782,-0.00160225,1741839250.243585
0.265,0.0085,0.04175,-0.0025634998,0.00764475,-0.00190725,1741839250.258174
0.267,-0.002,0.0405,-0.0022277501,0.008133001,-0.00131225,1741839250.272792
0.263,-0.00475,0.03575,-0.0020905002,0.008667,-0.00035100002,1741839250.28748
0.25825,0.00575,0.02975,-0.002365,0.009674,0.001587,1741839250.301878
0.2485,0.031,0.01525,-0.00251775,0.009674,0.0017242499,1741839250.3162959
0.24575,0.0395,0.01225,-0.00190725,0.0088805,-0.0005035,1741839250.3314629
0.24325,0.03775,0.00975,-0.000946,0.00891125,-0.0022735,1741839250.345422
0.24025,0.029,0.0025,0.00064075,0.0095672505,-0.0047455,1741839250.359854
0.23025,0.01125,-0.014,0.000763,0.00947575,-0.0047607496,1741839250.374363
0.22625,0.013,-0.01625,0.00019825,0.00889575,-0.00358575,1741839250.3889248
0.22225,0.015,-0.0195,4.575e-05,0.008606,-0.0033570002,1741839250.40338
0.22325,0.00775,-0.022,1.5250001e-05,0.00842275,-0.00334175,1741839250.417902
0.22575,0.00075,-0.02525,0.00083925005,0.0085602505,-0.0028535,1741839250.4323862
0.22675,0.00325,-0.031,0.0014037499,0.008636501,-0.00231925,1741839250.4468942
0.22425,0.01,-0.0305,0.0009155,0.00845325,-0.0012817499,1741839250.4635258
0.21925,0.014,-0.032,0.00067150005,0.0081635,-0.00119025,1741839250.475928
0.22,0.011,-0.0345,0.00137325,0.00697325,-0.0015105,1741839250.4912798
0.22625,0.0105,-0.0415,0.0017395001,0.0061339997,-0.00148,1741839250.504912
0.23,0.0115,-0.0425,0.00181575,0.0046234997,-0.0009765,1741839250.5209558
0.2355,0.01625,-0.03675,0.00149525,0.0043944996,-0.00070200005,1741839250.5339122
0.23425,0.01925,-0.036,0.000946,0.004837,-0.00064075,1741839250.548384
0.229,0.0205,-0.04175,0.0007935,0.0049590003,-0.00086975005,1741839250.563325
0.2275,0.018,-0.0455,0.00054925,0.004303,-0.00148,1741839250.577356
0.2315,0.01075,-0.0515,0.00059500005,0.00367725,-0.0017852499,1741839250.5918322
0.2345,0.00975,-0.05175,0.0007935,0.00308225,-0.0019989999,1741839250.606379
0.2355,0.01275,-0.05025,0.00051875,0.002777,-0.0024872501,1741839250.620922
0.23575,0.027,-0.04025,0.0,0.0033722501,-0.0032347501,1741839250.635419
0.24,0.02875,-0.03875,-0.00083925005,0.0051574996,-0.0053405,1741839250.6506062
0.2465,0.01725,-0.04425,-0.00086975005,0.0052337497,-0.0057525,1741839250.664468
0.244,0.00875,-0.0475,0.00051875,0.0040587503,-0.0053252503,1741839250.680914
0.235,0.0005,-0.0545,0.0013580001,0.0035704998,-0.005249,1741839250.693326
0.23325,0.0,-0.061,0.001648,0.00308225,-0.0045165,1741839250.707907
0.2295,0.00025,-0.0725,0.001236,0.00245675,-0.00334175,1741839250.7223601
0.22925,0.00175,-0.07425,0.00108325,0.00051875,-0.0020599999,1741839250.736844
0.23225,-0.00175,-0.076,0.0016785001,-0.00010675,-0.0024872501,1741839250.751591
0.23425,-0.008,-0.08175,0.00254825,-0.00030525,-0.00317375,1741839250.7663171
0.23625,-0.02025,-0.1005,0.00325,-9.15e-05,-0.0029755002,1741839250.781076
0.2375,-0.02,-0.111,0.0023345,0.000183,-0.0016632499,1741839250.795706
0.23975,-0.01825,-0.122,4.575e-05,0.000763,0.00099175,1741839250.810168
0.2435,-0.013,-0.154,1.5250001e-05,0.00086975005,0.0013427499,1741839250.824663
0.24475,-0.008,-0.181,0.0025025,0.0023039998,0.000824,1741839250.839116
0.24775,0.006,-0.27175,0.0042572496,0.0047607496,0.00086975005,1741839250.853599
0.252,0.014,-0.341,0.00773625,0.010666001,0.0029755002,1741839250.8680232
0.21875,0.02575,-0.489,0.0097045,0.01257325,0.0055237496,1741839250.88252
0.17025,0.049,-0.5655,0.007553,0.01763925,0.01266475,1741839250.896987
0.02675,0.071,-0.68875,0.0019989999,0.019012501,0.013793999,1741839250.911381
-0.049,0.03225,-0.72,-0.0064850003,0.00801075,0.01033025,1741839250.925946
-0.14975,-0.06875,-0.6525,-0.01004025,-0.00697325,0.012130749,1741839250.940724
-0.1215,-0.062,-0.457,-0.01576225,-0.0288085,0.01835625,1741839250.95546
0.1415,0.102,0.37225,-0.0175935,-0.0789185,0.02835075,1741839250.97102
0.3135,0.171,0.77525,-0.009842,-0.09187325,0.02418525,1741839250.984388
0.444,0.18625,0.9945,-0.00048825,-0.07070925,0.007904,1741839251.000674
0.53275,0.10375,0.967,-0.00054925,-0.047699,0.00115975,1741839251.0136452
0.50575,0.05775,0.8655,0.00328075,-0.010818499,-0.010818499,1741839251.02786
0.3515,-0.02275,0.59825,0.006607,0.0012055,-0.0153807495,1741839251.042361
0.25025,-0.057,0.41525,0.00962825,0.018127501,-0.01564025,1741839251.056895
0.102,-0.0795,0.07525,0.00811775,0.02186575,-0.010727,1741839251.071341
0.07225,-0.05425,-0.0285,0.0043639997,0.018615749,0.00302125,1741839251.085889
0.07925,0.04375,-0.12125,0.00393675,0.0134735005,0.0075682504,1741839251.10112
0.11075,0.09125,-0.1095,0.0063934997,0.00042725,0.007782,1741839251.1148171
0.2045,0.14275,-0.015,0.0067597497,-0.0040435,0.00561525,1741839251.130947
0.24425,0.1435,0.02225,0.00505075,-0.005539,0.0039215,1741839251.1437702
0.2705,0.1325,0.04125,-0.00093075,-0.00267025,0.0018005001,1741839251.158303
0.2905,0.08775,0.055,-0.0021057501,-0.00102225,-1.5250001e-05,1741839251.172986
0.2915,0.0645,0.062,-0.0010375,0.00016775,-0.00390625,1741839251.187399
0.2835,0.03,0.059,-0.00074775,0.0002595,-0.0045012496,1741839251.201878
0.27975,0.019,0.05725,-0.001236,7.625e-05,-0.00369275,1741839251.2164302
0.27775,0.0095,0.065,-0.0017395001,0.00013725001,-0.00305175,1741839251.2312698
0.27525,0.00775,0.062,-0.00334175,0.00112925,-0.0017852499,1741839251.245413
0.26875,0.00375,0.052,-0.0045012496,0.00175475,-0.0010375,1741839251.25987
0.2675,0.0045,0.05475,-0.006302,0.0032195,0.00016775,1741839251.274231
0.2615,0.01375,0.0615,-0.00643925,0.0042572496,0.0002135,1741839251.2887151
0.25575,0.0115,0.06075,-0.00585925,0.0052795,-0.0002135,1741839251.303169
0.26275,-0.0125,0.0445,-0.00169375,0.0063477503,-0.00065625,1741839251.317774
0.2625,-0.01825,0.03325,0.00013725001,0.0064850003,-0.00033575002,1741839251.332342
0.25525,-0.00925,0.02475,-0.00054925,0.00782775,0.0026854998,1741839251.346847
0.2385,0.03825,0.011,-0.0017852499,0.008590749,0.0043182503,1741839251.363221
0.23475,0.057,0.006,-0.0016175,0.0086975,0.002243,1741839251.3757088
0.22925,0.05075,-0.00575,-0.000229,0.007965,-0.00102225,1741839251.391291
0.22775,0.03575,-0.0105,0.0015565,0.0064850003,-0.0055847503,1741839251.404841
0.22725,0.01075,-0.00975,0.00160225,0.00596625,-0.0057677496,1741839251.420346
0.22875,0.00975,-0.00425,0.0004425,0.00564575,-0.0030365,1741839251.433921
0.2295,0.03575,-0.0015,0.0002595,0.0061035,-0.0017242499,1741839251.448367
0.227,0.05075,-0.0085,0.000946,0.007019,-0.002243,1741839251.462927
0.224,0.051,-0.0265,0.00096125,0.0068665,-0.0037079998,1741839251.4773388
0.22425,0.03675,-0.0325,0.000885,0.0061950004,-0.0052642496,1741839251.491851
0.225,0.02,-0.0345,0.00125125,0.00419625,-0.00672925,1741839251.506368
0.227,0.003,-0.03,0.0013885,0.0034637498,-0.0061950004,1741839251.520888
0.22875,0.00575,-0.02625,0.0014037499,0.00302125,-0.00396725,1741839251.535375
0.23125,0.02075,-0.02725,0.0012817499,0.003006,-0.0032195,1741839251.5506911
0.23275,0.02375,-0.031,0.00071725,0.00245675,-0.00340275,1741839251.564363
0.23675,0.0115,-0.038,0.00051875,0.0019685,-0.00393675,1741839251.580876
0.2395,0.00275,-0.039,0.00093075,0.0011445,-0.00440975,1741839251.593355
0.245,-0.003,-0.037,0.001709,0.00074775,-0.0042725,1741839251.607918
0.2445,0.0015,-0.035,0.00242625,0.00016775,-0.00355525,1741839251.622356
0.24175,0.01125,-0.03025,0.0017852499,0.000122000005,-0.0032655,1741839251.636832
0.24275,0.0115,-0.02675,0.00105275,3.0500001e-05,-0.00325,1741839251.6512902
0.2505,-0.003,-0.02875,0.0020599999,-0.00039675,-0.00444025,1741839251.665969
0.25175,-0.01275,-0.03425,0.00352475,-0.0003815,-0.0050812503,1741839251.680966
0.25125,-0.0175,-0.03975,0.0051574996,1.5250001e-05,-0.0041504996,1741839251.6951559
0.249,-0.00625,-0.0395,0.004593,9.15e-05,-0.002655,1741839251.7097569
0.24925,0.005,-0.0345,0.00169375,6.1000002e-05,-3.0500001e-05,1741839251.72421
0.25025,0.01725,-0.02625,0.00083925005,0.00010675,9.15e-05,1741839251.740204
0.2495,0.01475,-0.02575,0.0021972498,0.00074775,-0.001953,1741839251.753236
0.24725,-0.0025,-0.03275,0.0034790002,0.00112925,-0.00308225,1741839251.767885
0.24725,-0.01,-0.0365,0.0047302498,0.00154125,-0.0028687501,1741839251.78243
0.2445,-0.0065,-0.0455,0.0043639997,0.00181575,-0.00157175,1741839251.79701
0.24175,0.00175,-0.051,0.0023039998,0.00263975,0.0008545,1741839251.813144
0.236,0.00975,-0.06525,0.00143425,0.00289925,0.001007,1741839251.8257768
0.23575,0.006,-0.07275,0.001068,0.00289925,0.0004425,1741839251.841226
0.2375,-0.00825,-0.091,0.00204475,0.0025634998,-0.001175,1741839251.854938
0.23875,-0.01025,-0.10275,0.0022125002,0.0025940002,-0.00112925,1741839251.870441
0.238,-0.0085,-0.11525,0.00143425,0.00283825,0.00070200005,1741839251.884001
0.2155,0.0115,-0.15725,0.0009765,0.00292975,0.0016785001,1741839251.8984718
0.1935,0.02575,-0.19575,-0.00010675,0.00437925,0.0027312501,1741839251.913624
0.1655,0.03925,-0.3455,-0.000885,0.0065612504,0.0032655,1741839251.927614
0.15575,0.023,-0.443,-0.0045012496,0.011749251,0.0060425,1741839251.942088
0.093,-0.0315,-0.6305,-0.00485225,0.01440425,0.0077667497,1741839251.956713
0.032,-0.0835,-0.716,-0.00953675,0.016296498,0.0155030005,1741839251.9712582
-0.10875,-0.129,-0.786,-0.016723748,0.009262,0.024947999,1741839251.9859798
-0.1315,-0.0865,-0.71125,-0.0269165,-0.030883752,0.04302975,1741839252.000907
0.04325,0.1725,-0.0905,-0.02076725,-0.060379002,0.041092,1741839252.015466
0.237,0.3095,0.40775,0.0029755002,-0.09692375,0.01266475,1741839252.0315468
0.62175,0.33925,1.0,0.0072175004,-0.08851625,-0.0029907501,1741839252.044373
0.6785,0.243,1.0,0.00402825,-0.06144725,-0.011901749,1741839252.0588758
0.45825,0.003,0.73725,-0.008484,0.0071105,-0.013137749,1741839252.073365
0.293,-0.05975,0.45325,-0.0085602505,0.02537525,-0.0114744995,1741839252.087919
0.17375,-0.07575,0.21825,0.0001525,0.025833251,-0.008148249,1741839252.1023722
0.105,-0.053,0.0805,0.00437925,0.01849375,-0.0059510004,1741839252.116854
0.10625,-0.03325,0.06925,0.00567625,0.008590749,0.00154125,1741839252.131774
0.116,0.031,-0.0155,0.0038299998,0.0061035,0.0060882503,1741839252.1456482
0.13125,0.07025,-0.04575,0.0022277501,0.000229,0.0102845,1741839252.160036
0.18775,0.1305,-0.01575,0.00228875,-0.0030365,0.009262,1741839252.174579
0.215,0.141,0.00975,0.0014037499,-0.0062407497,0.0042267498,1741839252.1889641
0.24675,0.126,0.0285,0.00057975,-0.00531,0.001587,1741839252.203257
0.25525,0.102,0.0295,-0.0003205,-0.00334175,-0.00074775,1741839252.2178612
0.262,0.071,0.03275,-0.00090025004,-0.0003815,-0.0042267498,1741839252.2324102
0.272,0.016,0.047,-0.0009155,-0.000122000005,-0.0044555003,1741839252.246968
0.27425,0.005,0.05625,-0.00109875,0.000412,-0.00228875,1741839252.263521
0.273,0.012,0.079,-0.000885,0.0012665,-0.0013885,1741839252.2759418
0.2715,0.01875,0.08825,-0.00070200005,0.00343325,-0.0013427499,1741839252.2914891
0.26525,0.024,0.08075,-0.000885,0.0044707498,-0.001587,1741839252.3048792
0.2605,0.021,0.06525,-0.0012207499,0.0061950004,-0.0016785001,1741839252.320846
0.25,0.0185,0.03575,-0.000946,0.0067445002,-0.00181575,1741839252.333796
0.24575,0.0185,0.02475,-0.000534,0.0070647504,-0.00154125,1741839252.348326
0.24075,0.02425,0.014,-0.001068,0.00691225,-0.00061025,1741839252.36375
0.24,0.03325,0.01325,-0.0019989999,0.0067902496,0.0005035,1741839252.37725
0.2435,0.0465,0.01575,-0.0027312501,0.00637825,0.00061025,1741839252.391656
0.248,0.04275,0.01875,-0.0020295,0.0059510004,-0.000763,1741839252.406154
0.253,0.032,0.023,0.00054925,0.0055695,-0.0036315,1741839252.421129
0.258,0.012,0.024,0.0017395001,0.0061339997,-0.00384525,1741839252.43491
0.2555,0.01525,0.01875,0.00190725,0.0080872495,-0.0014495,1741839252.450635
0.243,0.03925,0.0005,0.0008545,0.008788999,-4.575e-05,1741839252.463754
0.23675,0.0465,-0.00875,-0.00016775,0.00868225,-0.00010675,1741839252.478258
0.23575,0.043,-0.01175,0.0008545,0.00798025,-0.00175475,1741839252.492749
0.23925,0.036,-0.0095,0.0033264998,0.0067445002,-0.0050202496,1741839252.5073001
0.2435,0.0205,-0.00825,0.00354,0.006668,-0.00535575,1741839252.521837
0.24175,0.0165,-0.0105,0.0033264998,0.0068969997,-0.00491325,1741839252.5363111
0.23525,0.01475,-0.0145,0.002411,0.007187,-0.00331125,1741839252.550913
0.23425,0.01675,-0.01325,0.0019685,0.0069274995,-0.0026854998,1741839252.565359
0.2355,0.01925,-0.01225,0.001709,0.0061339997,-0.00242625,1741839252.581085
0.2395,0.019,-0.011,0.0015565,0.006073,-0.0025634998,1741839252.59427
0.24075,0.0145,-0.013,0.0015565,0.0066985004,-0.00270075,1741839252.6087291
0.243,0.00875,-0.0195,0.001526,0.0072175004,-0.0025025,1741839252.623256
0.2415,0.011,-0.0225,0.0019685,0.00747675,-0.00231925,1741839252.63781
0.23625,0.0165,-0.0295,0.00239575,0.007187,-0.0025940002,1741839252.652361
0.2355,0.01225,-0.0325,0.00320425,0.0056915004,-0.00320425,1741839252.666847
0.23775,0.005,-0.0335,0.0036315,0.00505075,-0.00317375,1741839252.681321
0.24125,0.00875,-0.0295,0.0043182503,0.0056915004,-0.0024872501,1741839252.695798
0.2425,0.024,-0.033,0.00428775,0.00672925,-0.0020599999,1741839252.7103171
0.2395,0.0305,-0.04125,0.00367725,0.0076142503,-0.001648,1741839252.724787
0.23675,0.03325,-0.04975,0.00228875,0.0075835,-0.00181575,1741839252.740344
0.23375,0.02725,-0.05875,0.0026854998,0.006607,-0.0027465,1741839252.7538078
0.23225,0.019,-0.06125,0.004837,0.004486,-0.00511175,1741839252.768312
0.234,0.00525,-0.06275,0.0057220003,0.0037995,-0.0055695,1741839252.7828522
0.23525,0.008,-0.06025,0.0060577504,0.0032655,-0.004242,1741839252.797311
0.23575,0.03175,-0.054,0.0053405,0.0034484998,-0.00340275,1741839252.8133812
0.2355,0.035,-0.05675,0.00358575,0.00444025,-0.0037995,1741839252.826379
0.23575,0.0165,-0.07,0.0036162501,0.0046539996,-0.0047302498,1741839252.8408582
0.2355,0.0065,-0.07575,0.0050355,0.0041044997,-0.00587475,1741839252.855346
0.233,-0.00025,-0.08475,0.0051574996,0.00378425,-0.0055237496,1741839252.870614
0.23275,0.00275,-0.086,0.0046234997,0.0034790002,-0.0046234997,1741839252.8843148
0.235,0.01775,-0.0825,0.00325,0.0031585,-0.00328075,1741839252.89944
0.23525,0.02025,-0.08575,0.0030669998,0.00334175,-0.0036162501,1741839252.913878
0.23425,0.015,-0.0945,0.00334175,0.0037995,-0.00531,1741839252.9278479
0.23175,-0.00225,-0.11825,0.0032655,0.00381475,-0.00555425,1741839252.942451
0.23025,-0.005,-0.1315,0.0020752498,0.0039825,-0.0041810004,1741839252.957053
0.22675,-0.00125,-0.166,0.00143425,0.0042115003,-0.0031889998,1741839252.971691
0.22625,-0.0,-0.18875,0.0015565,0.00494375,-0.00131225,1741839252.986176
0.2305,0.0085,-0.25425,0.0024872501,0.0061035,-0.00042725,1741839253.000919
0.237,0.02175,-0.30225,0.004547,0.0089875,-1.5250001e-05,1741839253.0151749
0.2545,0.02275,-0.3925,0.0043944996,0.00930775,-0.00042725,1741839253.031067
0.24775,0.00425,-0.42425,0.0031585,0.01042175,6.1000002e-05,1741839253.044064
0.17675,-0.0295,-0.501,0.00143425,0.012557999,0.0032347501,1741839253.0585332
0.12125,-0.03075,-0.55875,-0.00016775,0.014145001,0.0078735,1741839253.0730822
0.0585,-0.01975,-0.6025,-0.0052795,0.0080415,0.017425502,1741839253.087716
-0.03025,0.03825,-0.534,-0.0102845,-0.0021515,0.0218505,1741839253.102449
-0.0245,0.06525,-0.38975,-0.013778751,-0.032074,0.023285,1741839253.117167
0.1495,0.0825,0.141,-0.00579825,-0.046997003,0.01779175,1741839253.131658
0.26775,0.07775,0.43,0.012054499,-0.058883753,0.0017242499,1741839253.146049
0.3995,0.04325,0.725,0.010147001,-0.05084225,-0.002411,1741839253.160579
0.41875,0.0185,0.72425,-0.003296,-0.02230825,-0.00086975005,1741839253.17518
0.38925,-0.03075,0.5985,-0.00708,-0.01115425,0.00048825,1741839253.1906939
0.33675,-0.04,0.49975,-0.0007935,0.001068,-0.00399775,1741839253.204341
0.20925,-0.0395,0.227,0.004593,0.00460825,-0.0072480002,1741839253.218796
0.173,-0.03675,0.12175,0.008788999,0.0045165,-0.006775,1741839253.233291
0.155,-0.017,0.03575,0.008270251,0.00228875,-0.00331125,1741839253.2477381
0.15875,0.004,0.01625,0.00708,0.00045775,0.000473,1741839253.263724
0.16875,0.033,-0.003,0.006363,-0.00112925,0.00469975,1741839253.276695
0.204,0.09025,-0.022,0.00637825,-0.0014037499,0.0048217503,1741839253.2915561
0.225,0.0975,-0.013,0.0044250004,-0.00187675,0.00334175,1741839253.3056252
0.2605,0.085,0.01525,0.0030975002,-0.001648,0.0028229998,1741839253.321154
0.2725,0.08125,0.023,0.00064075,-0.0003815,0.002472,1741839253.334398
0.286,0.07025,0.03675,-0.000473,0.0002135,0.00190725,1741839253.350715
0.29,0.05775,0.044,-0.0012665,0.000885,-0.00059500005,1741839253.363487
0.28725,0.0275,0.05,-0.0012970001,0.0009765,-0.00190725,1741839253.377812
0.28275,0.01325,0.052,-0.0013275,0.0009765,-0.0032195,1741839253.39233
0.2685,-0.002,0.04525,-0.0018005001,0.0013580001,-0.00251775,1741839253.406967
0.25925,-0.00175,0.0375,-0.00283825,0.00184625,-0.00102225,1741839253.421569
0.2495,0.00675,0.02075,-0.00488275,0.0024872501,0.00154125,1741839253.436012
0.2495,0.0075,0.01375,-0.00517275,0.00276175,0.00160225,1741839253.450936
0.2495,0.005,0.00775,-0.00367725,0.0032347501,0.0003815,1741839253.464927
0.25,0.00175,-0.00475,-0.00279225,0.00355525,0.00027475,1741839253.48106
0.249,0.0055,-0.01025,-0.001648,0.0047302498,0.0012665,1741839253.4940438
0.23875,0.02725,-0.02475,-0.00083925005,0.00517275,0.001648,1741839253.508605
0.233,0.04025,-0.03375,0.000122000005,0.0047607496,0.000946,1741839253.523056
0.23325,0.04925,-0.0455,0.00019825,0.00402825,-0.00042725,1741839253.5375638
0.23825,0.041,-0.04525,0.00086975005,0.0025787498,-0.0037385002,1741839253.5520582
0.24275,0.0165,-0.03575,0.000763,0.002411,-0.0041504996,1741839253.566719
0.2395,0.0105,-0.0275,-0.00109875,0.00325,-0.0018615,1741839253.581355
0.22725,0.0175,-0.01625,-0.00175475,0.00384525,-0.00051875,1741839253.5960479
0.2225,0.0255,-0.02075,-0.0012665,0.0044250004,-0.00019825,1741839253.610633
0.22675,0.02775,-0.03925,-0.00074775,0.0043182503,-0.00096125,1741839253.6253572
0.23425,0.0215,-0.046,-0.000183,0.0040587503,-0.00181575,1741839253.640544
0.23975,0.0105,-0.05225,0.000946,0.0038605002,-0.0021972498,1741839253.654561
0.2375,0.015,-0.05175,0.000885,0.004013,-0.0013427499,1741839253.6702988
0.233,0.02375,-0.0505,-0.000885,0.00440975,0.00067150005,1741839253.683563
0.228,0.03575,-0.05125,-0.0013885,0.004242,0.000534,1741839253.698072
0.22875,0.03225,-0.05275,0.00039675,0.00283825,-0.002243,1741839253.713293
0.2325,0.013,-0.05425,0.00177,0.0020295,-0.0036010002,1741839253.727075
0.2355,0.00625,-0.0515,0.00267025,0.00112925,-0.003662,1741839253.741545
0.24275,0.014,-0.03825,0.0021515,0.00115975,-0.0025634998,1741839253.756078
0.245,0.0255,-0.033,0.00086975005,0.00177,-0.00108325,1741839253.7708569
0.2435,0.03225,-0.03975,0.0003205,0.0021972498,-0.00146475,1741839253.7850518
0.24025,0.023,-0.05025,-4.575e-05,0.0025940002,-0.003296,1741839253.8004448
0.2365,-0.00075,-0.06525,0.0001525,0.0023345,-0.00378425,1741839253.814218
0.237,-0.003,-0.06375,0.00059500005,0.00177,-0.00364675,1741839253.828823
0.23825,0.0045,-0.05775,0.0011445,0.0008545,-0.0021972498,1741839253.843322
0.23825,0.02325,-0.0465,0.00062550005,0.0007935,-0.00169375,1741839253.857706
0.23875,0.02475,-0.044,0.000122000005,0.00181575,-0.00279225,1741839253.872242
0.2415,0.00625,-0.05125,0.0009765,0.0026092501,-0.0040435,1741839253.886815
0.24025,-0.00425,-0.0575,0.0029907501,0.00283825,-0.0049590003,1741839253.901432
0.23725,-0.006,-0.0645,0.00334175,0.0024872501,-0.0042572496,1741839253.9160378
0.23525,0.004,-0.0645,0.00225825,0.0015565,-0.0019989999,1741839253.930801
0.2355,0.02,-0.065,0.00148,0.00102225,-0.00149525,1741839253.945032
0.238,0.01775,-0.06925,0.00160225,0.000534,-0.0027160002,1741839253.9595141
0.24325,-0.0015,-0.08975,0.00228875,0.00080875,-0.00354,1741839253.974158
0.2435,-0.00725,-0.10325,0.00283825,0.001526,-0.0029907501,1741839253.988754
0.2425,-0.0035,-0.12225,0.00201425,0.0015105,-0.001526,1741839254.0033212
0.24375,0.00175,-0.12825,0.0007325,0.00137325,0.00010675,1741839254.01773
0.2445,0.00575,-0.137,-0.00077825,0.001419,0.00149525,1741839254.032235
0.246,0.00725,-0.16525,-0.00051875,0.0015105,0.001068,1741839254.0467782
0.24775,0.006,-0.18625,0.00131225,0.00193775,4.575e-05,1741839254.0633159
0.25475,0.01575,-0.24375,0.00157175,0.0028074998,0.000122000005,1741839254.0757198
0.26275,0.029,-0.27125,0.0008545,0.00428775,0.00051875,1741839254.09116
0.28075,0.038,-0.32825,0.0013275,0.0042572496,-0.00024425,1741839254.104597
0.2805,0.0185,-0.363,0.004547,0.00688175,-0.00289925,1741839254.1207528
0.24025,-0.00775,-0.46425,0.00535575,0.010024999,-0.0021819999,1741839254.133852
0.18175,-0.01525,-0.5345,-0.008285499,0.016570998,0.009521499,1741839254.148405
0.03225,-0.0375,-0.6355,-0.01924125,0.0157165,0.019516,1741839254.163568
-0.0195,-0.0135,-0.62625,-0.025940001,-0.00579825,0.0317535,1741839254.1778681
-0.02225,0.144,-0.31775,-0.021286,-0.025238002,0.028946,1741839254.1924381
0.0515,0.2125,-0.002,-0.01374825,-0.046584997,0.020218,1741839254.207047
0.28525,0.17125,0.69075,0.005005,-0.07342525,-0.0070647504,1741839254.221528
0.3855,0.078,0.94225,0.0114440005,-0.072113,-0.018707251,1741839254.236023
0.44575,-0.02875,1.0,0.007187,-0.0382995,-0.02088925,1741839254.250773
0.38125,-0.14575,0.76225,0.0014037499,-0.013092,-0.0129700005,1741839254.265235
0.29,-0.1315,0.545,0.0008545,0.01731875,-0.00314325,1741839254.281279
0.1575,-0.10025,0.21925,0.0058135,0.01908875,-0.0036010002,1741839254.294378
0.1255,-0.09025,0.116,0.00897225,0.011031999,0.0021515,1741839254.308827
0.09925,-0.00375,-0.0215,0.0059205,0.00791925,0.00912475,1741839254.32334
0.1025,0.059,-0.05925,0.00263975,0.0037537501,0.014785751,1741839254.3378701
0.14775,0.135,-0.08175,0.00416575,0.0005035,0.01150525,1741839254.352243
0.186,0.14225,-0.06425,0.00694275,-0.00646975,0.002472,1741839254.366741
0.25675,0.11425,0.00875,0.00614925,-0.00767525,-0.000122000005,1741839254.3812082
0.27775,0.088,0.04,0.0042572496,-0.0068665,-0.0012207499,1741839254.395743
0.28675,0.06525,0.0545,0.0007935,-0.002411,-0.001236,1741839254.410199
0.28825,0.04,0.04875,0.00010675,-0.000763,-0.00115975,1741839254.42475
0.2885,0.031,0.0475,0.00030525,9.15e-05,-0.001831,1741839254.44064
0.28525,0.00625,0.05275,0.00030525,0.00016775,-0.0018615,1741839254.453643
0.279,-0.001,0.05075,-0.000534,0.00109875,-0.0001525,1741839254.468244
0.2545,0.00775,0.03725,-0.00059500005,0.0014037499,0.001236,1741839254.48266
0.257,0.0145,0.02525,0.0002595,0.000473,0.0041504996,1741839254.497131
0.26325,0.024,0.00575,-0.00074775,0.00057975,0.00372325,1741839254.512863
0.25975,0.0265,0.00625,-0.00238025,0.0020905002,0.0012207499,1741839254.5259142
0.25925,0.02775,0.02125,-0.00213625,0.00251775,0.0002135,1741839254.54048
0.25775,0.028,0.02775,-0.00184625,0.00279225,-0.00059500005,1741839254.554925
0.25425,0.02525,0.02825,-0.0019989999,0.0035704998,-0.00169375,1741839254.571061
0.25125,0.00725,0.0235,-0.00225825,0.0041504996,-0.0016785001,1741839254.5841181
0.24875,-0.0025,0.0175,-0.00119025,0.00491325,-0.000412,1741839254.6004841
0.239,-0.0025,0.0055,-0.0009155,0.00488275,0.00096125,1741839254.6133099
0.23575,0.0095,0.0075,-0.0012055,0.0046539996,0.00334175,1741839254.6277308
0.23225,0.0395,0.01625,-0.00112925,0.0047912505,0.00320425,1741839254.642154
0.231,0.0435,0.01475,-0.00068675,0.0052947504,0.00070200005,1741839254.65671
0.23225,0.02225,-0.0015,0.00019825,0.0053252503,-0.00065625,1741839254.671285
0.23425,0.0085,-0.012,0.0015105,0.0052642496,-0.0013427499,1741839254.685765
0.23625,0.0095,-0.023,0.0013275,0.0053252503,-0.0003205,1741839254.7006369
0.2345,0.02825,-0.023,-0.00099175,0.00555425,0.0025787498,1741839254.714943
0.23175,0.07125,-0.00925,-0.002121,0.005539,0.002655,1741839254.730923
0.23375,0.07725,-0.00625,-0.00198375,0.0051880004,0.00099175,1741839254.743916
0.23825,0.04375,-0.022,0.00057975,0.004074,-0.004837,1741839254.7584472
0.237,0.021,-0.032,0.0013885,0.0036010002,-0.006668,1741839254.772952
0.2345,0.00525,-0.03575,0.001114,0.00267025,-0.0061950004,1741839254.787483
0.23175,0.00325,-0.02475,0.00065625,0.0022735,-0.004776,1741839254.80192
0.23125,0.01175,-0.0185,-0.000122000005,0.0019989999,-0.00225825,1741839254.816555
0.237,0.0165,-0.022,-0.00033575002,0.0021515,-0.001831,1741839254.8314822
0.2435,0.00725,-0.031,0.00065625,0.0023497501,-0.00238025,1741839254.845609
0.2525,-0.00775,-0.04425,0.0012817499,0.00228875,-0.00225825,1741839254.8603
0.25475,-0.00125,-0.0435,0.0016175,0.00204475,-0.0002135,1741839254.875011
0.25275,0.03075,-0.04175,0.001007,0.00213625,0.00102225,1741839254.889539
0.249,0.04075,-0.04525,-0.0013427499,0.0030669998,0.0016632499,1741839254.904056
0.2455,0.03425,-0.05225,-0.0018005001,0.00340275,0.0007325,1741839254.9185522
0.24475,0.0255,-0.0535,-0.00109875,0.0032655,-0.000885,1741839254.933047
0.2455,0.008,-0.045,0.000763,0.00177,-0.0034942501,1741839254.947545
0.24725,0.003,-0.03525,0.00074775,0.0012207499,-0.0033264998,1741839254.963287
0.24725,0.0015,-0.02775,-0.0005645,0.0021057501,-0.00083925005,1741839254.9767199
0.2435,0.002,-0.02975,-0.001175,0.0032347501,0.00035100002,1741839254.99139
0.2425,0.00075,-0.0335,-4.575e-05,0.0046845004,0.0003815,1741839255.005905
0.24225,-0.007,-0.0385,0.0012207499,0.0047607496,-0.0003815,1741839255.021195
0.24325,-0.01425,-0.04225,0.0021057501,0.00491325,-0.00027475,1741839255.035328
0.24275,-0.0145,-0.0555,0.00181575,0.0053405,0.00109875,1741839255.05057
0.241,-0.00175,-0.06625,0.00061025,0.0062712496,0.00381475,1741839255.0643609
0.2385,0.024,-0.08425,9.15e-05,0.00631725,0.003769,1741839255.0787442
0.2395,0.0265,-0.094,0.000412,0.005844,0.00119025,1741839255.093111
0.23925,0.01925,-0.12625,0.0007935,0.00564575,-1.5250001e-05,1741839255.1077042
0.238,0.02525,-0.15025,-0.00027475,0.00485225,-0.0007935,1741839255.12229
0.2405,0.05025,-0.203,-0.00154125,0.00428775,-0.00108325,1741839255.137037
0.244,0.05825,-0.23075,-0.0025634998,0.00369275,-0.001831,1741839255.151638
0.24875,0.0605,-0.25825,-0.00231925,0.00193775,-0.0045165,1741839255.166156
0.2525,0.0785,-0.31925,-0.0019225,0.000946,-0.0057525,1741839255.18073
0.24825,0.0925,-0.354,-0.0056915004,0.00149525,-0.00773625,1741839255.195233
0.2335,0.0405,-0.402,-0.007599,0.0021972498,-0.009155249,1741839255.210043
0.2195,-0.0205,-0.418,-0.008773751,0.00251775,-0.00891125,1741839255.224705
0.172,-0.11975,-0.43775,-0.0095672505,0.00216675,-0.0054780003,1741839255.239386
0.1265,-0.13225,-0.45025,-0.018890498,0.000946,0.009552,1741839255.253973
-0.004,-0.066,-0.4895,-0.02616875,-0.0012207499,0.018448,1741839255.2689018
-0.0475,-0.0155,-0.45275,-0.02359,-0.02323925,0.022705,1741839255.283766
-0.0225,0.04325,-0.13125,-0.01661675,-0.040802,0.01911925,1741839255.2985861
0.0285,0.0795,0.111,-0.008850001,-0.06213375,0.015213001,1741839255.313675
0.18725,0.17175,0.58525,-0.0086975,-0.06233225,0.014358499,1741839255.3276212
0.27525,0.17475,0.71475,-0.0078125,-0.0477295,0.0078125,1741839255.3421981
0.396,0.10325,0.79525,-0.0037995,-0.038971,0.0023039998,1741839255.356747
0.39875,0.062,0.743,0.0063934997,-0.016876249,-0.00708,1741839255.3712919
0.30125,-0.00775,0.4815,0.0072937496,-0.00453175,-0.008072,1741839255.385941
0.25225,-0.03475,0.33725,0.0072937496,0.0054015,-0.0072785,1741839255.400828
0.19375,-0.03475,0.13175,0.0081025,0.01187125,-0.00160225,1741839255.4152699
0.17425,0.00025,0.0675,0.00640875,0.010437001,0.00325,1741839255.43105
0.16325,0.03825,0.01675,0.0038605002,0.0070952503,0.00811775,1741839255.4440498
0.177,0.073,-0.0645,0.004486,0.00561525,0.00717175,1741839255.45858
0.20275,0.07825,-0.0715,0.0053252503,-0.0002135,0.00494375,1741839255.473254
0.26675,0.1045,-0.00275,0.0047912505,-0.00334175,0.00469975,1741839255.4877388
0.2865,0.11575,0.0345,0.00054925,-0.0041044997,0.0042115003,1741839255.502213
0.29575,0.0945,0.06925,-0.00054925,-0.00263975,0.0024872501,1741839255.516734
0.29425,0.06725,0.0725,0.00059500005,-4.575e-05,-0.00190725,1741839255.531512
0.28825,0.03025,0.073,0.00067150005,0.000473,-0.00238025,1741839255.5459032
0.28475,0.0285,0.0735,-0.000473,0.0012970001,-0.0012207499,1741839255.560512
0.269,0.02875,0.061,-0.0005035,0.0021057501,-0.0012665,1741839255.575018
0.25625,0.02475,0.04375,-0.00039675,0.0031127501,-0.001526,1741839255.590739
0.23975,0.0155,0.01875,-0.00096125,0.00411975,-0.001236,1741839255.604034
0.24125,0.01,0.02075,-0.00077825,0.0037995,-0.00109875,1741839255.6185548
0.246,0.0065,0.0305,0.00064075,0.002533,-0.00083925005,1741839255.632916
0.2585,0.01025,0.0625,0.000946,0.0021057501,-0.00027475,1741839255.647299
0.26275,0.016,0.075,0.0009765,0.0029907501,0.00064075,1741839255.663414
0.25975,0.025,0.07425,0.000824,0.0042725,0.00071725,1741839255.676128
0.25475,0.02575,0.06225,0.000946,0.0068055,1.5250001e-05,1741839255.691395
0.24325,0.019,0.02675,0.00105275,0.0075072497,-0.00036625,1741839255.7051258
0.23725,0.018,0.01075,0.00077825,0.007431,-7.625e-05,1741839255.7210839
0.2315,0.03025,0.008,0.0003815,0.006546,0.00033575002,1741839255.734038
0.23125,0.04075,0.0205,-6.1000002e-05,0.00541675,0.000473,1741839255.74842
0.2355,0.042,0.038,-6.1000002e-05,0.0042725,-0.001068,1741839255.763613
0.2415,0.0275,0.0375,0.001007,0.0046539996,-0.0024414998,1741839255.777283
0.24525,0.01125,0.031,0.00466925,0.0061645,-0.003891,1741839255.791729
0.238,0.00475,0.011,0.0050965,0.0068969997,-0.00289925,1741839255.806131
0.23275,0.01975,0.00725,0.001831,0.00764475,0.000946,1741839255.820432
0.22525,0.05375,0.00375,0.00045775,0.007782,0.00146475,1741839255.834795
0.2255,0.05325,-0.0045,0.00143425,0.00697325,-0.0016632499,1741839255.8504472
0.2355,0.02,-0.01875,0.00267025,0.0061645,-0.003296,1741839255.863908
0.23925,0.00925,-0.02075,0.00372325,0.0057372497,-0.0028535,1741839255.878431
0.2405,0.02325,-0.015,0.00317375,0.0061950004,-0.001175,1741839255.892895
0.23975,0.041,-0.01,0.0021515,0.0069580004,0.0003205,1741839255.907327
0.238,0.05775,-0.007,0.0001525,0.0079345,0.0004425,1741839255.921741
0.2335,0.052,-0.01975,0.000229,0.0074920002,-0.00125125,1741839255.9361842
0.23375,0.025,-0.03225,0.003006,0.0057372497,-0.00535575,1741839255.9508321
0.23675,-0.023,-0.04325,0.0045777503,0.00488275,-0.0056304997,1741839255.965281
0.24025,-0.024,-0.03725,0.00541675,0.0044555003,-0.001709,1741839255.9808059
0.23925,0.0145,-0.02275,0.004486,0.00535575,0.000824,1741839255.9945312
0.23425,0.0385,-0.02325,0.0018005001,0.0070037497,0.0030365,1741839256.0089211
0.23325,0.052,-0.032,0.0013427499,0.0068512503,0.00201425,1741839256.023326
0.2385,0.0395,-0.034,0.00369275,0.00546275,-0.0021972498,1741839256.0379572
0.24875,0.006,-0.03125,0.0053709997,0.0050355,-0.0037079998,1741839256.0524201
0.24925,-0.005,-0.0315,0.006302,0.0047607496,-0.0031889998,1741839256.067007
0.241,0.00375,-0.041,0.0055847503,0.0048217503,-0.0015105,1741839256.0815191
0.235,0.02075,-0.0445,0.00463875,0.0049285004,0.00010675,1741839256.09588
0.23075,0.036,-0.04675,0.0035704998,0.00419625,0.00019825,1741839256.110324
0.229,0.037,-0.054,0.00393675,0.00355525,-0.0012055,1741839256.124903
0.232,0.02675,-0.055,0.0050812503,0.00334175,-0.003952,1741839256.140217
0.2375,0.004,-0.0595,0.005539,0.0036162501,-0.00434875,1741839256.153974
0.23775,0.00075,-0.06475,0.0045777503,0.00364675,-0.0020752498,1741839256.168427
0.2335,0.0235,-0.0795,0.00331125,0.00343325,-0.00035100002,1741839256.182962
0.23425,0.037,-0.08425,0.0007325,0.00317375,0.0011445,1741839256.1974819
0.24325,0.0305,-0.09625,0.00019825,0.00283825,0.0005035,1741839256.212714
0.25025,0.01625,-0.104,0.0016785001,0.0022735,-0.0022277501,1741839256.2264261
0.25925,-0.0025,-0.1315,0.0029145,0.00213625,-0.0031127501,1741839256.2412999
0.2595,0.00075,-0.15475,0.00343325,0.0025940002,-0.00267025,1741839256.2555761
0.2485,0.03875,-0.2315,0.001648,0.0061035,0.001114,1741839256.27114
0.23925,0.0565,-0.29125,-7.625e-05,0.00852975,0.0025025,1741839256.284817
0.23525,0.05175,-0.3735,0.00016775,0.01431275,0.001175,1741839256.300469
0.19625,0.03825,-0.5985,0.0034637498,0.016021749,0.00010675,1741839256.313677
0.14575,0.055,-0.71175,0.0041044997,0.010498,0.00381475,1741839256.328188
0.02225,0.08075,-0.8205,-0.0042572496,0.0026245,0.009262,1741839256.34268
-0.0255,0.05975,-0.78925,-0.0247345,-0.019927999,0.021087749,1741839256.357557
-0.09025,0.0355,-0.55275,-0.026886,-0.034606997,0.02297975,1741839256.372253
-0.05875,0.082,-0.259,-0.010528499,-0.0704955,0.0128785,1741839256.3869581
0.20025,0.15575,0.61125,-0.00216675,-0.084015,0.004776,1741839256.4014568
0.347,0.15125,0.95725,0.00096125,-0.076156504,-0.0080872495,1741839256.41591
0.4765,0.03275,1.0,-0.00030525,-0.0540925,-0.01216125,1741839256.431096
0.456,-0.03525,0.99525,-0.0029907501,-0.003952,-0.013412501,1741839256.445227
0.27475,-0.07725,0.7265,-0.00065625,0.011550999,-0.01367175,1741839256.459842
0.17975,-0.08625,0.51975,0.00340275,0.0219115,-0.01445,1741839256.4743402
0.04675,-0.097,0.0925,0.00668325,0.03256225,-0.010299751,1741839256.4889631
0.0105,-0.073,-0.07175,0.0044707498,0.031570498,-0.0028535,1741839256.503537
0.00575,-0.0295,-0.173,0.00154125,0.018402,0.011917,1741839256.5180218
0.08825,0.0875,-0.17325,0.00352475,0.007904,0.014267,1741839256.532536
0.15675,0.14125,-0.11575,0.0060882503,-0.00785825,0.011123749,1741839256.547074
0.26675,0.1965,-0.01125,0.00460825,-0.009933501,0.00798025,1741839256.56351
0.29725,0.18925,0.02275,0.000885,-0.006073,-0.00067150005,1741839256.576242
0.3225,0.11975,0.07975,0.0002135,-0.00308225,-0.0052642496,1741839256.591558
0.3255,0.068,0.10275,0.001587,0.0026245,-0.0103455,1741839256.605626
0.30625,-0.02,0.097,0.00169375,0.0047302498,-0.00976575,1741839256.6209338
0.287,-0.04175,0.07325,-0.0015105,0.00617975,-0.0040435,1741839256.6347451
0.2545,-0.03125,0.02625,-0.0025940002,0.00587475,-0.001068,1741839256.6508422
0.24825,-0.01025,0.01525,-0.0015565,0.0050812503,0.0010375,1741839256.663834
0.255,0.012,0.018,-0.00051875,0.0049895,0.000412,1741839256.678454
0.2635,0.011,0.0275,6.1000002e-05,0.00511175,-0.00035100002,1741839256.692796
0.27,0.00825,0.03525,-0.00051875,0.00546275,-0.0002595,1741839256.7072692
0.266,0.00775,0.03375,-0.001114,0.00561525,0.00062550005,1741839256.7219388
0.264,0.01025,0.025,-0.00105275,0.0058287503,0.002655,1741839256.736307
0.26025,0.02225,0.005,-0.000763,0.0062407497,0.002243,1741839256.751018
0.25275,0.029,-0.00025,-0.001007,0.00770575,-0.00061025,1741839256.7654898
0.2455,0.02975,-0.0065,-0.0011445,0.008072,-0.00175475,1741839256.7815738
0.2465,0.0245,-0.01075,-0.0002595,0.00767525,-0.0026092501,1741839256.79472
0.24325,0.01125,-0.027,-0.00016775,0.0074615004,-0.0021972498,1741839256.80925
0.24175,0.0085,-0.02925,-0.000885,0.007309,-0.00035100002,1741839256.823902
0.24125,0.0195,-0.027,-0.0005645,0.00717175,0.00010675,1741839256.838518
0.23975,0.029,-0.02875,-0.000122000005,0.006607,-0.00019825,1741839256.853316
0.241,0.03425,-0.0295,-0.000473,0.0064239996,-0.00068675,1741839256.8680189
0.2425,0.02925,-0.02675,-0.00086975005,0.006256,-0.00190725,1741839256.882733
0.24725,0.01525,-0.01825,-0.00093075,0.0061645,-0.0021057501,1741839256.8972611
0.2475,0.01325,-0.01575,-0.0009765,0.00614925,-0.0017852499,1741839256.913407
0.24025,0.02525,-0.022,-0.00163275,0.0064850003,-0.0003205,1741839256.926443
0.23475,0.029,-0.03075,-0.0025940002,0.006775,0.000122000005,1741839256.9409971
0.23025,0.027,-0.03975,-0.00270075,0.006546,-0.0010375,1741839256.955611
0.23175,0.0115,-0.041,-0.00115975,0.005844,-0.00239575,1741839256.971073
0.23475,0.0045,-0.03625,0.0013275,0.003952,-0.0036162501,1741839256.9846752
0.23925,-0.00525,-0.029,0.0014037499,0.00352475,-0.00292975,1741839257.0005639
0.2405,-0.003,-0.02675,0.001114,0.00428775,-0.00077825,1741839257.0139751
0.2365,0.0135,-0.0315,0.0013885,0.0048217503,-0.00033575002,1741839257.028513
0.23275,0.0185,-0.03625,0.00125125,0.00469975,-0.00068675,1741839257.043521
0.232,0.01175,-0.03925,0.0010375,0.0042725,-0.0010375,1741839257.057811
0.2355,0.00375,-0.0385,0.00245675,0.004074,-0.0020295,1741839257.072547
0.24225,-0.0095,-0.0365,0.0037079998,0.00416575,-0.0024414998,1741839257.0871959
0.2445,-0.01225,-0.037,0.0047912505,0.00419625,-0.001526,1741839257.1019351
0.24125,0.00075,-0.04275,0.0046539996,0.0043944996,-0.0003815,1741839257.116392
0.23575,0.014,-0.0495,0.00428775,0.0047455,0.000534,1741839257.130859
0.22975,0.02775,-0.05875,0.00314325,0.0046539996,0.000412,1741839257.145279
0.2305,0.025,-0.0605,0.0032195,0.0040435,-0.00068675,1741839257.159816
0.231,0.0195,-0.06225,0.0047912505,0.0029755002,-0.003128,1741839257.174507
0.22925,0.00875,-0.06925,0.0052185003,0.0026854998,-0.00352475,1741839257.188951
0.22725,0.0065,-0.0745,0.0045165,0.0021972498,-0.0023497501,1741839257.203518
0.227,0.0135,-0.08275,0.0038299998,0.00184625,-0.0015565,1741839257.218152
0.22775,0.02,-0.08475,0.00302125,0.00093075,-0.001419,1741839257.232716
0.22975,0.0185,-0.08975,0.0028535,0.0004425,-0.00198375,1741839257.247115
0.23175,0.01,-0.0945,0.00328075,-0.00016775,-0.003128,1741839257.263327
0.24025,-0.00125,-0.10775,0.0036162501,-0.0003205,-0.0032347501,1741839257.2763698
0.246,0.00075,-0.1135,0.0033264998,-0.00093075,-0.0017395001,1741839257.291414
0.2515,0.0145,-0.127,0.00267025,-0.001068,-0.00074775,1741839257.30563
0.252,0.01825,-0.1345,0.00070200005,-0.000473,0.00030525,1741839257.320948
0.25075,0.009,-0.15525,4.575e-05,0.000229,0.00033575002,1741839257.334636
0.249,0.0005,-0.175,-0.00019825,0.0009765,0.00042725,1741839257.350786
0.2485,-0.0015,-0.2045,-0.0003815,0.00308225,0.0021515,1741839257.3636942
0.263,0.01275,-0.28775,-0.0013275,0.0045625,0.00378425,1741839257.378179
0.27125,0.0285,-0.3265,-0.00331125,0.00621025,0.005005,1741839257.3927019
0.25075,0.064,-0.39725,-0.00381475,0.00631725,0.00402825,1741839257.407292
0.21825,0.06625,-0.437,-0.0075835,0.0071105,0.0020599999,1741839257.421963
0.1075,0.0265,-0.53425,-0.012313751,0.00842275,0.002884,1741839257.436439
0.03425,-0.009,-0.5885,-0.02424625,0.0070342496,0.011245751,1741839257.451009
-0.1025,-0.0325,-0.641,-0.0289765,-0.000122000005,0.018035999,1741839257.465794
-0.12975,0.0125,-0.547,-0.02265925,-0.03591925,0.021988,1741839257.481079
0.00425,0.1145,0.0435,-0.009842,-0.059387248,0.0141145,1741839257.495404
0.1745,0.13375,0.47275,0.011886501,-0.0832825,-0.00723275,1741839257.5099578
0.4935,0.09825,1.0,0.012802,-0.074768,-0.01136775,1741839257.524373
0.55925,0.0495,1.0,-0.00149525,-0.02737425,-0.0059205,1741839257.539005
0.457,-0.0025,0.798,-0.0048065,-0.00505075,-0.00413525,1741839257.553686
0.3615,-0.013,0.63275,-0.00198375,0.008545,-0.00555425,1741839257.568269
0.184,-0.0375,0.29575,0.0036010002,0.021469,-0.00785825,1741839257.582886
0.10625,-0.03775,0.12175,0.002472,0.02500925,-0.00440975,1741839257.59741
0.0455,-0.02075,-0.03125,0.00035100002,0.022033751,0.0059967497,1741839257.613733
0.02925,0.0445,-0.1805,0.00096125,0.0157165,0.00897225,1741839257.626414
0.08,0.07925,-0.15675,0.00585925,-0.0024414998,0.0070952503,1741839257.641
0.22375,0.12875,-0.024,0.00747675,-0.008514499,0.0043182503,1741839257.655721
0.27675,0.1375,0.03025,0.0040435,-0.008285499,0.000824,1741839257.6711612
0.31625,0.108,0.071,0.00148,-0.0037995,-0.000473,1741839257.684791
0.30925,0.07775,0.061,-0.001175,0.00440975,-0.0032347501,1741839257.700917
0.282,0.0205,0.02775,-0.0010375,0.0056609996,-0.0042267498,1741839257.7138739
0.27025,0.0035,0.017,0.00013725001,0.00428775,-0.0045777503,1741839257.728286
0.26,-0.008,0.01775,0.00030525,0.0030365,-0.00402825,1741839257.74277
0.26125,-0.009,0.02475,1.5250001e-05,0.0019685,-0.00317375,1741839257.757291
0.262,-0.01,0.02725,-0.00064075,0.00105275,-0.0015565,1741839257.771961
0.2585,-0.0075,0.02175,-0.00077825,0.0013427499,-0.00096125,1741839257.786583
0.2525,-0.004,0.01625,-0.00080875,0.0029907501,-0.00051875,1741839257.801203
0.2435,0.00025,0.02075,-0.00062550005,0.0036162501,-0.00062550005,1741839257.815677
0.2415,-0.0015,0.0265,0.0007935,0.0038299998,-0.0012817499,1741839257.8315258
0.2445,-0.01075,0.0255,0.001709,0.00384525,-0.0015565,1741839257.844897
0.246,-0.015,0.017,0.0024414998,0.0045012496,-0.0005645,1741839257.85937
0.244,-0.00075,0.00075,0.0020905002,0.0049590003,0.00083925005,1741839257.873908
0.24275,0.01925,-0.0005,-0.000229,0.0056,0.00340275,1741839257.8884149
0.23325,0.0575,-0.003,-0.001007,0.0056915004,0.00317375,1741839257.902993
0.22525,0.0645,-0.01,-0.0009765,0.0047302498,-0.0008545,1741839257.917691
0.2235,0.03325,-0.0205,-0.000473,0.00364675,-0.0034484998,1741839257.932365
0.2295,0.00275,-0.023,0.00193775,0.0019989999,-0.0060272496,1741839257.9469419
0.2365,-0.03,-0.0185,0.00267025,0.0022735,-0.0047607496,1741839257.9635122
0.23775,-0.01825,-0.01525,0.002533,0.00320425,-0.0019685,1741839257.9761012
0.23225,0.041,-0.026,0.000183,0.0051880004,0.0038605002,1741839257.990933
0.2285,0.064,-0.03675,-0.00163275,0.0056,0.0047302498,1741839258.005103
0.22775,0.067,-0.0485,-0.00317375,0.0048065,0.0009155,1741839258.021012
0.236,0.0245,-0.05975,-0.00184625,0.00411975,-0.0021819999,1741839258.034173
0.24,0.00025,-0.0555,0.001953,0.0028074998,-0.0049742498,1741839258.050493
0.24175,-0.00975,-0.03325,0.0030669998,0.00231925,-0.00411975,1741839258.0637052
0.24,0.001,-0.026,0.0029145,0.00251775,-0.001175,1741839258.077719
0.23475,0.02325,-0.02825,0.0019225,0.0029449998,-0.00024425,1741839258.092159
0.236,0.0245,-0.03475,0.00143425,0.0032655,-0.00125125,1741839258.1066828
0.24175,0.0055,-0.04825,0.00201425,0.00305175,-0.002472,1741839258.121242
0.24725,-0.001,-0.05025,0.0035704998,0.0021819999,-0.00296025,1741839258.135919
0.25275,0.0225,-0.04875,0.0038605002,0.00190725,-0.001892,1741839258.1508741
0.25275,0.04625,-0.043,0.0033570002,0.00169375,-0.00068675,1741839258.164995
0.25375,0.06125,-0.03425,0.00231925,0.00193775,-0.0020752498,1741839258.1812422
0.254,0.04525,-0.0355,0.0028229998,0.0022735,-0.0048065,1741839258.19413
0.25175,0.02175,-0.04125,0.00408925,0.0025634998,-0.008712751,1741839258.208607
0.24075,-0.0075,-0.04675,0.0038757501,0.00263975,-0.008712751,1741839258.22324
0.237,-0.0135,-0.04075,0.0017395001,0.002655,-0.0065765,1741839258.237866
0.23425,-0.026,-0.0325,0.001068,0.002655,-0.0055695,1741839258.252477
0.23475,-0.0335,-0.03525,0.0017242499,0.0029449998,-0.00440975,1741839258.266995
0.24375,-0.0385,-0.04025,0.00263975,0.00320425,-0.0037995,1741839258.2816389
0.2485,-0.0315,-0.04225,0.00369275,0.00419625,-0.00177,1741839258.296187
0.252,-0.00925,-0.05025,0.0033570002,0.00469975,-0.00057975,1741839258.310923
0.25225,-0.0025,-0.05525,0.002777,0.0050965,0.00033575002,1741839258.325376
0.2495,-0.0055,-0.06975,0.00320425,0.00511175,-0.00019825,1741839258.3411992
0.24825,-0.01175,-0.07925,0.0044555003,0.005249,-0.0012665,1741839258.354568
0.25225,-0.0165,-0.10325,0.0048674997,0.0055237496,-0.00119025,1741839258.3691678
0.25425,-0.01325,-0.1205,0.004837,0.0059205,-0.00064075,1741839258.383778
0.25775,-0.00125,-0.16675,0.0026245,0.0072785,0.0017852499,1741839258.398305
0.256,0.012,-0.1975,0.0013885,0.008133001,0.0031889998,1741839258.413532
0.2525,0.033,-0.23575,0.0012970001,0.01065075,0.004013,1741839258.427274
0.24025,0.059,-0.3655,0.00270075,0.01272575,0.002655,1741839258.441646
0.2275,0.054,-0.44975,0.00567625,0.01573175,-0.00065625,1741839258.456048
0.158,0.06575,-0.6075,0.0037079998,0.01525875,0.00048825,1741839258.470904
0.101,0.0635,-0.692,-0.0095672505,0.011810251,0.0065307496,1741839258.4850829
-0.03275,0.0195,-0.77325,-0.014679,0.004593,0.008545,1741839258.500719
-0.09125,0.00325,-0.714,-0.014099,-0.02819825,0.00930775,1741839258.516278
-0.14525,0.01025,-0.36275,-0.0149535,-0.04609675,0.010681249,1741839258.5312
-0.11875,0.03475,-0.095,-0.02079775,-0.0647735,0.0139465,1741839258.543943
0.06525,0.02725,0.43575,-0.01867675,-0.06501775,0.012832751,1741839258.558493
0.20375,0.02125,0.6885,-0.00640875,-0.05947875,0.0104065,1741839258.573026
0.49875,0.0505,1.0,-0.00193775,-0.054367002,0.009506251,1741839258.5875142
0.57,0.04775,1.0,0.000763,-0.043151747,0.00646975,1741839258.6019552
0.55175,0.02475,0.93225,0.004013,-0.00514225,-0.00325,1741839258.616404
0.3785,-0.014,0.56425,0.0046234997,0.01150525,-0.0055695,1741839258.6312268
0.295,-0.0195,0.38025,0.00567625,0.02822875,-0.0051269997,1741839258.645625
0.14625,0.00025,0.03425,0.00485225,0.029068,-0.0028229998,1741839258.660011
0.0975,0.01675,-0.1075,0.00115975,0.02197275,0.00283825,1741839258.674449
0.11375,0.0415,-0.18,0.00216675,0.013839751,0.00328075,1741839258.68895
0.16225,0.051,-0.1305,0.008148249,-0.002533,0.00067150005,1741839258.703431
0.26175,0.0805,-0.00525,0.0077972496,-0.00535575,0.0014037499,1741839258.7178721
0.28825,0.0955,0.02975,0.00149525,-0.00036625,0.00390625,1741839258.732318
0.30125,0.09175,0.04475,-9.15e-05,0.00393675,0.00238025,1741839258.746681
0.29725,0.06925,0.04,-0.00016775,0.0067902496,-0.00051875,1741839258.761285
0.29175,0.0425,0.03525,0.000473,0.0074615004,-0.0041504996,1741839258.775904
0.27825,0.00675,0.0365,0.00035100002,0.006836,-0.0039825,1741839258.7910988
0.27075,-0.001,0.03775,-0.00059500005,0.0060425,-0.001953,1741839258.805158
0.25625,0.00225,0.0355,-0.00099175,0.005539,-0.0009155,1741839258.820927
0.2515,0.0085,0.03425,-0.00213625,0.00453175,0.00036625,1741839258.8340878
0.245,0.00875,0.0175,-0.0029449998,0.00488275,0.000473,1741839258.848495
0.2415,0.0025,0.0065,-0.0024872501,0.00646975,-0.00064075,1741839258.863307
0.23425,-0.0075,-0.009,-0.00131225,0.00691225,-0.0013580001,1741839258.877682
0.2285,-0.007,-0.01225,0.00068675,0.0070952503,-0.00160225,1741839258.8921652
0.22325,0.0145,-0.0105,0.00083925005,0.00691225,-0.001236,1741839258.906673
0.2275,0.02225,-0.01,0.0007325,0.00640875,-0.000885,1741839258.921366
0.23275,0.02275,-0.0255,0.00090025004,0.0062407497,-0.00093075,1741839258.935644
0.22975,0.0195,-0.0375,0.00071725,0.00611875,-0.000885,1741839258.950729
0.2265,0.01625,-0.04475,0.0005645,0.005783,-0.000885,1741839258.964669
0.22175,0.02425,-0.0385,0.0012970001,0.005249,-0.0012970001,1741839258.980918
0.2205,0.03125,-0.03125,0.001709,0.0041044997,-0.0020599999,1741839258.9936562
0.2245,0.02425,-0.0295,0.0012817499,0.0040435,-0.00228875,1741839259.00805
0.228,0.01175,-0.0365,0.00169375,0.0047150003,-0.0025634998,1741839259.022605
0.22825,-0.006,-0.054,0.0019989999,0.0047607496,-0.00190725,1741839259.037305
0.228,-0.00425,-0.057,0.00160225,0.00411975,0.0012055,1741839259.051807
0.22525,0.0225,-0.05275,0.00157175,0.0038299998,0.0024414998,1741839259.066188
0.22375,0.041,-0.047,0.0012665,0.00308225,0.002411,1741839259.0808818
0.22475,0.0495,-0.04225,0.001007,0.0026092501,0.0012207499,1741839259.095011
0.2305,0.036,-0.04275,0.0013275,0.00204475,-0.00057975,1741839259.109544
0.23575,0.017,-0.04325,0.0025787498,0.0007935,-0.0032347501,1741839259.124119
0.243,-0.00775,-0.0385,0.0021972498,0.0005645,-0.002533,1741839259.1386619
0.2445,-0.00475,-0.0335,0.00090025004,0.001007,0.001114,1741839259.153108
0.2405,0.01775,-0.028,0.000473,0.001236,0.00239575,1741839259.1674979
0.23675,0.026,-0.03,-0.0003815,0.001236,0.00231925,1741839259.1820889
0.234,0.01825,-0.03875,-0.000473,0.00093075,0.0013275,1741839259.1966012
0.2385,0.00525,-0.03925,0.00051875,0.0007325,-0.000122000005,1741839259.211169
0.25,-0.0035,-0.03575,0.00115975,0.001236,0.00030525,1741839259.2256372
0.24775,0.01175,-0.03775,0.00068675,0.003128,0.0028229998,1741839259.240878
0.23625,0.054,-0.04025,-0.00074775,0.0041044997,0.0035095,1741839259.2545989
0.23525,0.0575,-0.04025,-0.00305175,0.00535575,0.0016632499,1741839259.269208
0.243,0.02975,-0.048,-0.0026245,0.0055237496,-9.15e-05,1741839259.284002
0.2455,0.0155,-0.05375,-0.0012055,0.0051574996,-0.0016785001,1741839259.298597
0.2405,-0.0035,-0.05725,0.00231925,0.00305175,-0.0028074998,1741839259.313319
0.23875,-0.0015,-0.0515,0.00296025,0.00238025,-0.00216675,1741839259.327841
0.24,0.00475,-0.0435,0.00254825,0.001892,-0.00068675,1741839259.3422568
0.24625,0.01925,-0.0415,0.0021819999,0.00184625,-0.00051875,1741839259.3567822
0.24825,0.0185,-0.04825,0.0017395001,0.0017852499,-0.00057975,1741839259.371259
0.24875,0.00125,-0.06375,0.0019225,0.0016632499,-0.00059500005,1741839259.385762
0.247,-0.006,-0.06825,0.00384525,0.0018615,-0.00090025004,1741839259.400783
0.24125,0.00075,-0.07225,0.00485225,0.0020599999,-0.000946,1741839259.4147918
0.239,0.0105,-0.075,0.00419625,0.0028074998,0.00019825,1741839259.430774
0.239,0.015,-0.08575,0.00308225,0.0027465,0.00090025004,1741839259.443712
0.23825,0.01125,-0.09525,0.002777,0.0016175,0.00030525,1741839259.458101
0.23775,0.0025,-0.11175,0.0032195,0.00070200005,-0.00019825,1741839259.472596
0.239,0.00375,-0.11725,0.0037385002,-7.625e-05,-0.00016775,1741839259.487139
0.24125,0.01125,-0.12225,0.00354,-0.0007325,0.001175,1741839259.501599
0.25,0.03,-0.142,0.002365,-0.001007,0.00198375,1741839259.516078
0.25725,0.0345,-0.1595,0.00064075,-0.00137325,0.0025025,1741839259.530897
0.26825,0.042,-0.22575,0.00109875,-0.0012970001,0.0020905002,1741839259.545046
0.27025,0.0585,-0.282,0.0045625,0.0028535,0.0013580001,1741839259.55949
0.26975,0.13575,-0.418,0.00570675,0.0051269997,0.00119025,1741839259.5739741
0.27425,0.15175,-0.47925,0.00193775,0.0062407497,-0.00143425,1741839259.588594
0.24,0.06425,-0.60725,-0.00090025004,0.008606,-0.0043182503,1741839259.603203
0.19675,0.023,-0.65375,-0.0002595,0.00741575,-0.0063325,1741839259.617763
0.06,0.02575,-0.59475,-0.00254825,-0.0037079998,-0.001709,1741839259.6324842
-0.0085,0.02375,-0.488,-0.012756251,-0.017883249,0.0084379995,1741839259.647074
-0.049,0.0315,-0.16075,-0.02893075,-0.03872675,0.02519225,1741839259.663518
-0.016,0.0465,0.0605,-0.021041749,-0.048019502,0.019744748,1741839259.676557
0.13325,0.0455,0.51875,-0.0026092501,-0.0626525,0.00175475,1741839259.6915898
0.23225,0.0705,0.7475,0.00039675,-0.063384995,-0.00027475,1741839259.705657
0.32225,0.074,0.90875,0.002655,-0.046569753,-0.0047607496,1741839259.721227
0.38275,-0.0375,0.87475,0.00325,-0.0285035,-0.00868225,1741839259.7347991
0.3435,-0.08725,0.7315,0.0057525,0.0024872501,-0.009521499,1741839259.750623
0.234,-0.1,0.40925,0.00741575,0.011123749,-0.00688175,1741839259.7638268
0.193,-0.0755,0.2665,0.01206975,0.0168915,-0.0003815,1741839259.778271
0.133,-0.01075,0.0345,0.011123749,0.01620475,0.00355525,1741839259.7927182
0.1175,0.01825,-0.0545,0.0077667497,0.013916001,0.008194,1741839259.807179
0.13725,0.06525,-0.1455,0.008270251,0.010788,0.0076905,1741839259.82158
0.174,0.09125,-0.125,0.0074004997,-0.0002135,0.00567625,1741839259.836093
0.262,0.138,-0.015,0.0050965,-0.00402825,0.0047302498,1741839259.8510132
0.29475,0.13975,0.0335,0.0022735,-0.00463875,0.0031585,1741839259.864959
0.31475,0.1225,0.0655,-0.000885,0.0003815,-0.0019989999,1741839259.8813481
0.31575,0.0585,0.07375,-0.00093075,0.0030975002,-0.00444025,1741839259.894002
0.30275,0.0325,0.05775,-0.0020905002,0.00567625,-0.0049742498,1741839259.9085839
0.27775,0.00125,0.024,-0.00270075,0.0057677496,-0.00378425,1741839259.923074
0.27125,-0.0065,0.01875,-0.00263975,0.0046539996,-0.0020599999,1741839259.937678
0.26775,-0.00825,0.03125,-0.00242625,0.00369275,-0.001419,1741839259.952123
0.26775,-0.0025,0.04,-0.002655,0.0033264998,-0.00033575002,1741839259.966679
0.26675,0.006,0.04325,-0.0029449998,0.00460825,-7.625e-05,1741839259.981306
0.2635,0.00525,0.02975,-0.00343325,0.00842275,0.0009155,1741839259.995678
0.25125,0.012,-0.00875,-0.00393675,0.009491,0.00187675,1741839260.0100732
0.24625,0.02425,-0.0195,-0.0047607496,0.00953675,0.0028535,1741839260.02455
0.24175,0.05,-0.01075,-0.00541675,0.007843,0.002533,1741839260.0390651
0.24225,0.0535,-0.001,-0.00413525,0.0069580004,0.0003205,1741839260.053683
0.243,0.04625,0.0055,-9.15e-05,0.0060425,-0.0052947504,1741839260.068167
0.248,0.0155,0.013,0.000763,0.0059815003,-0.0063934997,1741839260.082614
0.24825,0.0045,0.012,-0.000824,0.0069885002,-0.00413525,1741839260.097305
0.24125,0.00575,-0.00125,-0.0022277501,0.00782775,-0.00216675,1741839260.11357
0.2375,0.0105,-0.00825,-0.0034484998,0.0084379995,3.0500001e-05,1741839260.1263628
0.2325,0.01225,-0.01525,-0.0027312501,0.008346501,3.0500001e-05,1741839260.140961
0.2305,0.0085,-0.01775,-0.0001525,0.0080567505,-0.00057975,1741839260.155699
0.23025,0.01375,-0.018,0.00061025,0.00791925,-0.00042725,1741839260.1712582
0.23125,0.02375,-0.01575,0.0008545,0.00767525,-0.00013725001,1741839260.1847339
0.2315,0.037,-0.01425,0.0009155,0.00764475,-0.00061025,1741839260.2005172
0.23,0.0345,-0.01775,0.00112925,0.0076599997,-0.0014495,1741839260.2137809
0.22525,0.01625,-0.02825,0.00125125,0.00747675,-0.00267025,1741839260.228246
0.22275,0.0065,-0.03075,0.00125125,0.0071409997,-0.00267025,1741839260.2428522
0.2225,0.0015,-0.03075,0.0017852499,0.0061645,-0.00193775,1741839260.25737
0.222,0.0045,-0.03275,0.00216675,0.0057372497,-0.00148,1741839260.271801
0.22325,0.0115,-0.03775,0.0016632499,0.0056304997,-0.00059500005,1741839260.2863529
0.22825,0.033,-0.046,0.00112925,0.00579825,-0.0004425,1741839260.300918
0.22925,0.03725,-0.0485,0.001419,0.005783,-0.00169375,1741839260.315368
0.22925,0.02375,-0.05175,0.0023039998,0.0053709997,-0.0025787498,1741839260.331448
0.23175,0.01275,-0.0505,0.0044707498,0.003891,-0.00343325,1741839260.344341
0.239,-0.0015,-0.055,0.00517275,0.0036162501,-0.0030975002,1741839260.3589451
0.2405,-0.00075,-0.06,0.0050965,0.00437925,-0.000946,1741839260.373656
0.23775,0.01825,-0.06775,0.00453175,0.0049895,0.000122000005,1741839260.388097
0.23275,0.02725,-0.073,0.00408925,0.0051880004,0.00045775,1741839260.402538
0.221,0.0295,-0.07675,0.00343325,0.00393675,-0.00024425,1741839260.417274
0.21875,0.0235,-0.0745,0.0037079998,0.00283825,-0.00090025004,1741839260.431778
0.21925,0.01525,-0.0725,0.00561525,0.0012665,-0.00270075,1741839260.446286
0.2245,0.0045,-0.07325,0.006775,0.00074775,-0.00340275,1741839260.460945
0.22625,0.002,-0.075,0.0081025,-0.00036625,-0.00343325,1741839260.4756281
0.22925,0.00275,-0.0765,0.0077667497,-0.0005645,-0.00267025,1741839260.491306
0.2295,0.01025,-0.07825,0.00567625,-0.000122000005,-0.0009765,1741839260.504867
0.23,0.02675,-0.08425,0.0045165,0.0,-0.00071725,1741839260.5209029
0.23375,0.0265,-0.0905,0.00325,-4.575e-05,-0.001419,1741839260.533927
0.24125,0.018,-0.1155,0.003418,0.000183,-0.00204475,1741839260.548662
0.244,0.017,-0.1315,0.0038757501,0.0007935,-0.0023497501,1741839260.5637739
0.24875,0.03775,-0.168,0.0038299998,0.00109875,-0.00216675,1741839260.577675
0.24975,0.05475,-0.19,0.0014495,0.00225825,-0.002365,1741839260.5922701
0.2475,0.07275,-0.247,-0.00057975,0.0032655,-0.00254825,1741839260.606952
0.24125,0.07075,-0.29075,-0.00228875,0.00434875,-0.0025940002,1741839260.621671
0.2425,0.052,-0.38775,-0.00538625,0.0046845004,-0.001587,1741839260.636288
0.24825,0.04325,-0.4235,-0.0068665,0.00390625,-0.00039675,1741839260.6508632
0.2495,0.0385,-0.452,-0.011169501,0.00434875,0.00325,1741839260.6652548
0.1995,0.04225,-0.4965,-0.01474,0.0068665,0.005783,1741839260.6809
0.14525,0.05025,-0.51275,-0.0211945,0.009445249,0.010101249,1741839260.694255
0.01525,0.0315,-0.526,-0.02421575,0.0052642496,0.0129395,1741839260.7088661
-0.0185,0.017,-0.4715,-0.0249175,-0.0180665,0.01893625,1741839260.723477
0.0745,0.043,-0.087,-0.0196685,-0.034011748,0.01753225,1741839260.738077
0.19,0.07825,0.21975,-0.001526,-0.05343625,0.0041810004,1741839260.7526982
0.37575,0.115,0.6705,0.003296,-0.04971325,-0.0027312501,1741839260.767352
0.39725,0.08275,0.7185,-0.00744625,-0.023758,-0.00213625,1741839260.781926
0.35125,-0.00375,0.59675,-0.0128175,-0.011321999,0.00231925,1741839260.796459
0.31875,-0.02425,0.5195,-0.00596625,-0.002411,-0.0010375,1741839260.811212
0.2515,-0.06625,0.39,0.00137325,-0.00216675,-0.0068512503,1741839260.8256261
0.211,-0.08975,0.29875,0.00596625,-0.00086975005,-0.00924675,1741839260.841446
0.14825,-0.06125,0.10425,0.0047302498,0.00369275,0.001587,1741839260.854796
0.134,-0.00525,0.0295,0.0016175,0.0052337497,0.009521499,1741839260.87088
0.1275,0.06025,-0.036,-0.00010675,0.00546275,0.0139770005,1741839260.883898
0.151,0.14825,-0.11725,0.0013580001,0.00320425,0.010162249,1741839260.898516
0.1845,0.15225,-0.105,0.0038757501,-0.0048979996,-0.00010675,1741839260.913738
0.2545,0.11275,-0.0265,0.0032655,-0.007553,-0.0030975002,1741839260.927995
0.279,0.0835,0.00625,7.625e-05,-0.007309,-0.0041044997,1741839260.9425569
0.30225,0.03275,0.03675,-0.0008545,-0.005783,-0.003891,1741839260.9571688
0.306,0.01475,0.04525,-0.0005035,-0.0036010002,-0.00402825,1741839260.971943
0.297,-0.01175,0.04275,0.00016775,-0.0028229998,-0.004013,1741839260.9865139
0.2875,-0.01875,0.03275,0.00051875,-0.001114,-0.00267025,1741839261.001038
0.2765,-0.018,0.026,0.00080875,-0.00048825,-0.00213625,1741839261.0156858
0.27675,-0.009,0.02725,0.00163275,0.001175,-0.002121,1741839261.0313861
0.2775,0.01175,0.01875,0.00115975,0.0023497501,-0.001831,1741839261.0448582
0.27475,0.01725,0.01,-0.0010375,0.00413525,-0.00090025004,1741839261.059467
0.26425,0.02125,-0.00025,-0.00148,0.00413525,-0.0012817499,1741839261.074027
0.2615,0.017,0.00275,-0.001068,0.0033875,-0.00238025,1741839261.088557
0.262,0.0085,0.007,0.00112925,0.00193775,-0.00437925,1741839261.102935
0.2615,0.001,0.00775,0.0014495,0.00225825,-0.00408925,1741839261.117463
0.2585,0.00425,0.00425,-1.5250001e-05,0.00367725,-0.00169375,1741839261.1319208
0.25275,0.01875,0.00125,-0.00105275,0.00399775,-0.0005645,1741839261.14654
0.24825,0.02625,0.0,-0.002365,0.0038757501,-0.00057975,1741839261.161066
0.24275,0.0225,0.00475,-0.002411,0.0035704998,-0.0018005001,1741839261.175515
0.2475,0.00925,0.01275,-0.00016775,0.0036162501,-0.0047302498,1741839261.1909409
0.25,-0.01425,0.013,0.0012055,0.00437925,-0.00491325,1741839261.204536
0.24675,-0.013,0.0095,0.00061025,0.0071105,-0.0007325,1741839261.21904
0.239,0.01875,0.00275,-0.0001525,0.008545,0.0012207499,1741839261.2336059
0.232,0.03275,-0.00725,-0.0004425,0.00935375,0.00160225,1741839261.248044
0.226,0.034,-0.02175,-0.00059500005,0.00845325,-0.001007,1741839261.263231
0.2285,0.021,-0.0225,-0.00036625,0.0074004997,-0.00267025,1741839261.277382
0.23225,0.00825,-0.0205,0.0005645,0.0065002497,-0.0043335,1741839261.291811
0.2365,0.0015,-0.01875,0.00099175,0.0068512503,-0.0043335,1741839261.30628
0.23425,0.00625,-0.022,0.001114,0.007904,-0.0036010002,1741839261.321137
0.23,0.01925,-0.03625,0.00108325,0.00839225,-0.00340275,1741839261.335336
0.2295,0.02125,-0.046,0.001587,0.00811775,-0.0045777503,1741839261.350687
0.2325,0.0065,-0.06,0.0019989999,0.00715625,-0.0056915004,1741839261.364295
0.235,-0.0135,-0.06175,0.00334175,0.0043182503,-0.0068207504,1741839261.378848
0.23725,-0.035,-0.055,0.0042725,0.00340275,-0.00617975,1741839261.393364
0.237,-0.0245,-0.05125,0.00505075,0.00390625,-0.0034484998,1741839261.407959
0.23625,0.0105,-0.054,0.0047150003,0.0047912505,-0.00239575,1741839261.4226408
0.233,0.01775,-0.0645,0.00331125,0.0057220003,-0.0022735,1741839261.437202
0.22925,0.005,-0.08675,0.0026092501,0.00514225,-0.0028535,1741839261.451946
0.2305,-0.00925,-0.08975,0.00239575,0.003952,-0.0034637498,1741839261.466626
0.2385,-0.0245,-0.075,0.00381475,0.001648,-0.0034637498,1741839261.4814432
0.2405,-0.01825,-0.0695,0.00469975,0.0015565,-0.0026245,1741839261.496088
0.238,-0.00675,-0.07075,0.00463875,0.0028074998,-0.000229,1741839261.5127318
0.23125,0.01425,-0.0825,0.00419625,0.0031127501,0.00027475,1741839261.5251079
0.22875,0.019,-0.089,0.0037385002,0.0020295,-0.000885,1741839261.5411258
0.22625,0.00825,-0.10175,0.0037079998,0.00108325,-0.00175475,1741839261.554343
0.227,0.0005,-0.10475,0.0045012496,-0.00064075,-0.002655,1741839261.568942
0.2325,-0.00275,-0.1025,0.004593,-0.0012207499,-0.00239575,1741839261.583625
0.2335,0.0005,-0.104,0.0036315,-0.00096125,-0.00102225,1741839261.5983942
0.2305,0.009,-0.12375,0.0028687501,-0.0004425,-0.00048825,1741839261.61345
0.22775,0.00675,-0.13825,0.0016175,-0.00013725001,-0.00024425,1741839261.6275132
0.21975,-0.0085,-0.16725,0.0016632499,-0.000473,-0.00024425,1741839261.642095
0.21725,-0.01075,-0.17775,0.00213625,-0.0012665,0.00086975005,1741839261.6567612
0.2025,0.0075,-0.22,0.00146475,-0.0007935,0.0024872501,1741839261.6712608
0.188,0.02,-0.2635,-0.001831,0.0025787498,0.006546,1741839261.6858099
0.17575,0.01125,-0.3535,-0.003006,0.00369275,0.00715625,1741839261.700671
0.172,-0.01175,-0.385,-0.003418,0.003296,0.00668325,1741839261.714936
0.16025,-0.02775,-0.409,-0.00640875,0.001419,0.0102235,1741839261.730885
0.09625,0.018,-0.50025,-0.0112305,0.0024872501,0.015686,1741839261.743951
0.03925,0.0475,-0.566,-0.02557375,0.00201425,0.025512751,1741839261.758461
-0.0745,0.04125,-0.6215,-0.02845775,-0.00646975,0.02619925,1741839261.77313
-0.094,0.0295,-0.52625,-0.018097,-0.04110725,0.021698,1741839261.787932
0.0715,0.14,0.023,-0.0080415,-0.0576325,0.0169525,1741839261.802465
0.24325,0.2,0.41,0.011917,-0.070465,-0.0049742498,1741839261.8169699
0.54325,0.128,0.93775,0.01396175,-0.061752252,-0.01560975,1741839261.8318489
0.59375,0.04725,0.99925,0.0001525,-0.03025825,-0.017578252,1741839261.8459609
0.51825,-0.064,0.8325,-0.0037537501,-0.0162505,-0.015075751,1741839261.860617
0.41675,-0.09825,0.6705,0.001831,0.0077515002,-0.015747,1741839261.8752792
0.20925,-0.1365,0.33575,0.00302125,0.019714251,-0.013183501,1741839261.891254
0.1295,-0.123,0.17425,0.00051875,0.02851875,-0.00593575,1741839261.904259
0.036,-0.051,-0.1,-0.0054780003,0.03186025,0.0119934995,1741839261.918868
0.036,-0.00425,-0.172,-0.00416575,0.02661125,0.01678475,1741839261.933446
0.0715,0.046,-0.17625,0.0049285004,0.00665275,0.0169525,1741839261.9479082
0.20625,0.1605,-0.057,0.00773625,-0.00177,0.01519775,1741839261.963497
0.266,0.202,0.001,0.00520325,-0.0063477503,0.0094604995,1741839261.976938
0.31975,0.18775,0.04425,0.0035095,-0.004593,0.00466925,1741839261.9913652
0.32575,0.1445,0.04775,0.0021515,-0.000122000005,-0.00428775,1741839262.005953
0.32425,0.04525,0.06725,0.0012207499,0.002243,-0.00593575,1741839262.0209658
0.31725,0.01,0.073,-0.00029,0.007019,-0.0047302498,1741839262.034923
0.291,-0.0215,0.0595,-0.00051875,0.008545,-0.00340275,1741839262.050621
0.2745,-0.02375,0.04025,-0.00105275,0.009719751,-0.00039675,1741839262.064045
0.24725,-0.011,0.00425,-0.0012207499,0.009842,0.00071725,1741839262.0785768
0.24325,-0.00275,0.00075,-0.0009765,0.009781,0.00093075,1741839262.09297
0.24375,-0.00075,0.00325,0.00061025,0.009155249,-0.000473,1741839262.10746
0.2495,-0.0105,0.00975,0.00149525,0.008590749,-0.00061025,1741839262.121963
0.2515,-0.00825,0.01175,0.0027160002,0.00794975,0.0013580001,1741839262.136367
0.25325,0.01725,0.003,0.0025940002,0.008133001,0.0024872501,1741839262.1508029
0.253,0.0275,-0.00325,0.0020295,0.00868225,0.00279225,1741839262.16518
0.247,0.037,-0.01775,0.0019225,0.00897225,0.0021057501,1741839262.181185
0.2435,0.03525,-0.02625,0.000824,0.009597749,0.00086975005,1741839262.1939578
0.24825,0.019,-0.03,0.00068675,0.009521499,0.00036625,1741839262.208308
0.25075,0.01275,-0.03225,0.0019685,0.0099945,-0.00019825,1741839262.222954
0.24475,0.0195,-0.044,0.0020599999,0.010879501,0.00036625,1741839262.237451
0.2385,0.03075,-0.0495,0.0014037499,0.0117035,0.0013885,1741839262.25195
0.231,0.0435,-0.053,-0.0002135,0.012252751,0.00213625,1741839262.266469
0.2225,0.0515,-0.058,-0.000183,0.011856,0.00080875,1741839262.281132
0.22225,0.039,-0.0615,0.00154125,0.010162249,-0.00352475,1741839262.2954628
0.2225,0.0005,-0.07425,0.0022277501,0.00935375,-0.0048217503,1741839262.3099499
0.2225,-0.01175,-0.07875,0.002884,0.008590749,-0.0042267498,1741839262.324599
0.22475,0.002,-0.07825,0.0030669998,0.0085602505,-0.0028229998,1741839262.339283
0.2245,0.0255,-0.07625,0.00131225,0.0093385,0.0002135,1741839262.353674
0.22025,0.0615,-0.082,-4.575e-05,0.00982675,0.00048825,1741839262.3682282
0.21825,0.06025,-0.091,-0.00090025004,0.00918575,-0.002472,1741839262.382818
0.21675,0.029,-0.10875,3.0500001e-05,0.00794975,-0.0047150003,1741839262.397248
0.216,0.012,-0.11175,0.0022277501,0.0043639997,-0.00717175,1741839262.413038
0.21775,-0.0035,-0.0945,0.0029145,0.0026854998,-0.0069580004,1741839262.4265652
0.22175,0.00075,-0.07975,0.00355525,0.0017395001,-0.006363,1741839262.441153
0.2255,0.00775,-0.06925,0.00402825,0.00279225,-0.0050355,1741839262.455457
0.23025,0.01025,-0.0735,0.0033875,0.0044250004,-0.00416575,1741839262.470753
0.22725,0.007,-0.087,0.0009155,0.007309,-0.0019225,1741839262.484524
0.22125,0.00425,-0.11025,0.00024425,0.007843,-0.0012207499,1741839262.5004318
0.21725,0.0065,-0.11675,0.0014495,0.00643925,-0.0020295,1741839262.5134542
0.21625,0.00625,-0.11425,0.00276175,0.0047912505,-0.00302125,1741839262.528172
0.218,0.0045,-0.11025,0.00485225,0.0021972498,-0.0043944996,1741839262.542441
0.22325,0.006,-0.1045,0.0051269997,0.00187675,-0.0044250004,1741839262.5568829
0.225,0.0085,-0.106,0.00411975,0.003006,-0.0034484998,1741839262.57156
0.21825,0.01275,-0.1265,0.0030669998,0.0037995,-0.002472,1741839262.585919
0.213,0.016,-0.1395,0.0019685,0.0042115003,-0.00149525,1741839262.6009002
0.21125,0.01975,-0.156,0.00074775,0.0034942501,-0.00070200005,1741839262.614922
0.2145,0.01925,-0.157,0.0010375,0.00267025,-0.00102225,1741839262.631238
0.21775,0.0205,-0.15825,0.0012970001,0.0021057501,-0.0012817499,1741839262.6439
0.215,0.02375,-0.17975,0.00045775,0.00270075,-0.00065625,1741839262.658509
0.21075,0.02125,-0.2055,-0.0021515,0.0047455,0.00177,1741839262.6729212
0.1985,0.01475,-0.28775,-0.00352475,0.0057525,0.0033875,1741839262.687451
0.1955,0.0165,-0.33725,-0.0049895,0.006607,0.00668325,1741839262.70194
0.20825,0.0285,-0.43575,-0.0040587503,0.0061645,0.0070342496,1741839262.716589
0.2015,0.04075,-0.485,-0.0021057501,0.0056304997,0.0057525,1741839262.7313972
0.11575,0.04525,-0.59675,-0.0056,0.0055237496,0.00715625,1741839262.745546
0.03525,0.01325,-0.658,-0.016037,0.00276175,0.01368725,1741839262.759938
-0.1545,-0.07425,-0.72675,-0.017730748,-0.004486,0.01776125,1741839262.774716
-0.215,-0.062,-0.67975,-0.01855475,-0.017334,0.0232085,1741839262.790621
-0.1425,0.11975,-0.258,-0.015915,-0.055404752,0.030578502,1741839262.80415
0.00225,0.2075,0.11675,-0.00785825,-0.07495125,0.0245515,1741839262.818657
0.19575,0.232,0.53325,0.01295475,-0.0926665,-0.0022125002,1741839262.833365
0.529,0.141,1.0,0.01779175,-0.08450325,-0.012436,1741839262.847877
0.60575,0.07175,1.0,0.01193225,-0.03942875,-0.01988225,1741839262.86371
0.5395,-0.0975,0.8845,0.00688175,-0.013427749,-0.018890498,1741839262.8770502
0.4045,-0.14425,0.6645,4.575e-05,0.02630625,-0.008590749,1741839262.891499
0.151,-0.10125,0.16875,-0.00033575002,0.03312675,-0.0038299998,1741839262.906017
0.07425,-0.04775,-0.0095,0.00204475,0.025177,0.001419,1741839262.921275
0.0285,0.02425,-0.198,0.00390625,0.017151,0.00239575,1741839262.934884
0.0545,0.0415,-0.20275,0.008255,0.00109875,0.0032347501,1741839262.950783
0.1645,0.08025,-0.0935,0.008667,-0.0042725,0.0040435,1741839262.963812
0.218,0.10525,-0.036,0.00744625,-0.00671375,0.0052337497,1741839262.9783528
0.28275,0.13775,0.03475,0.003662,-0.0049285004,0.0054932497,1741839262.992914
0.29625,0.12475,0.049,0.00239575,-0.00228875,0.0031585,1741839263.007353
0.29775,0.09275,0.05075,0.0013885,0.0020905002,-0.00228875,1741839263.021889
0.2785,0.0265,0.0275,0.00070200005,0.0031585,-0.00276175,1741839263.03632
0.26775,0.0125,0.016,-0.00030525,0.00283825,-0.00086975005,1741839263.0510259
0.26075,0.018,0.0215,-0.00033575002,0.001892,-0.00029,1741839263.06521
0.262,0.02375,0.02825,-0.00016775,0.001419,-0.00099175,1741839263.081562
0.2585,0.01375,0.0165,-0.00059500005,0.00204475,-0.001419,1741839263.094212
0.25925,0.006,0.01275,-0.002472,0.0030669998,-0.00061025,1741839263.1086311
0.25825,0.01675,0.01275,-0.00305175,0.0034637498,0.00024425,1741839263.1231868
0.25325,0.028,0.00825,-0.0038299998,0.00393675,0.00125125,1741839263.137533
0.2485,0.0385,0.003,-0.003662,0.00381475,0.00070200005,1741839263.151854
0.2485,0.036,0.0025,-0.0029755002,0.0034790002,-0.00062550005,1741839263.1664472
0.25,0.02875,0.00475,-0.00184625,0.0028229998,-0.0034790002,1741839263.180932
0.251,0.00975,0.006,-0.00157175,0.0031585,-0.00402825,1741839263.195522
0.24725,0.009,0.002,-0.0026092501,0.0053405,-0.0020752498,1741839263.20997
0.23325,0.027,-0.014,-0.00369275,0.00640875,-0.0005645,1741839263.2246988
0.228,0.03325,-0.026,-0.00538625,0.00708,0.00068675,1741839263.240431
0.22125,0.0285,-0.04475,-0.0053252503,0.00671375,7.625e-05,1741839263.253829
0.2195,0.01725,-0.04975,-0.0045165,0.0056609996,-0.0009765,1741839263.268363
0.2235,0.00625,-0.0505,-0.0039825,0.00517275,-0.000824,1741839263.283167
0.228,0.00725,-0.04675,-0.0031127501,0.0047455,-7.625e-05,1741839263.2977438
0.237,0.01625,-0.03775,-0.00283825,0.0049590003,0.00045775,1741839263.313898
0.239,0.0235,-0.0355,-0.002777,0.0063477503,0.00108325,1741839263.326617
0.23525,0.02725,-0.04075,-0.00314325,0.0072175004,0.001114,1741839263.341107
0.23125,0.028,-0.0475,-0.00343325,0.00764475,0.001007,1741839263.355742
0.2285,0.029,-0.054,-0.0034790002,0.006607,0.000183,1741839263.371051
0.2275,0.023,-0.06025,-0.0033875,0.00561525,-0.000229,1741839263.384813
0.22725,0.01825,-0.06125,-0.00225825,0.003769,-0.0010375,1741839263.400624
0.229,0.00425,-0.057,-0.0012207499,0.00320425,-0.0015565,1741839263.414034
0.23325,-0.005,-0.05275,0.00187675,0.00367725,-0.00190725,1741839263.428494
0.241,-0.011,-0.05075,0.00305175,0.0042725,-0.0014495,1741839263.4430232
0.24425,-0.0055,-0.0535,0.00177,0.0055847503,0.00131225,1741839263.4574678
0.24525,0.01875,-0.06025,-9.15e-05,0.0062712496,0.0029449998,1741839263.471945
0.24725,0.02825,-0.059,-0.00198375,0.0076142503,0.00369275,1741839263.486469
0.24525,0.0325,-0.0685,-0.0011445,0.008484,0.0026092501,1741839263.501089
0.24025,0.02425,-0.0805,0.00080875,0.010086001,0.00029,1741839263.515348
0.2285,0.0015,-0.10175,0.001709,0.0100707505,-0.0003815,1741839263.531324
0.2225,-0.00325,-0.10625,0.002884,0.0090485,-0.00074775,1741839263.544534
0.217,-0.001,-0.10575,0.006012,0.0051574996,-0.001587,1741839263.5589728
0.211,0.0065,-0.10075,0.0070952503,0.0034637498,-0.00204475,1741839263.573575
0.21,0.0035,-0.09975,0.00744625,0.0021515,-0.00177,1741839263.588046
0.2105,0.0005,-0.1055,0.00817875,0.00187675,-0.0016632499,1741839263.60255
0.21125,-0.00275,-0.11175,0.01095575,-0.00013725001,-0.002121,1741839263.6171389
0.2125,-0.0035,-0.122,0.012176501,-0.0013580001,-0.0020905002,1741839263.631805
0.21375,0.00475,-0.12975,0.012207,-0.0024414998,-0.00042725,1741839263.6464472
0.22275,0.0505,-0.1465,0.0104674995,-0.00242625,0.00093075,1741839263.660901
0.229,0.07075,-0.15925,0.00643925,-0.00239575,0.00157175,1741839263.6754408
0.2395,0.0755,-0.19825,0.0061339997,-0.00238025,-0.00059500005,1741839263.69128
0.24075,0.072,-0.227,0.00744625,-0.0021819999,-0.00668325,1741839263.704723
0.232,0.061,-0.30625,0.00631725,-0.00184625,-0.0076599997,1741839263.720942
0.22425,0.04025,-0.35675,0.00372325,-0.0013427499,-0.0063325,1741839263.734145
0.214,0.01475,-0.45325,-0.00187675,-0.00109875,-0.00035100002,1741839263.7505689
0.2175,0.03975,-0.478,-0.0038605002,-0.0017395001,0.0024414998,1741839263.763413
0.20075,0.0935,-0.51975,-0.0088805,0.00102225,0.0068665,1741839263.777878
0.052,0.1525,-0.655,-0.01579275,0.0048674997,0.00785825,1741839263.792448
-0.027,0.10725,-0.693,-0.024231002,0.00016775,0.00254825,1741839263.807174
-0.05125,0.01275,-0.514,-0.020462,-0.016128499,-0.00320425,1741839263.821899
0.0025,0.01175,-0.236,-0.0102845,-0.05815125,-0.009140001,1741839263.836732
0.17525,0.0675,0.4155,-0.010757499,-0.065567,-0.0080415,1741839263.851317
0.26775,0.064,0.6465,-0.012924249,-0.047165003,-0.0062407497,1741839263.865969
0.396,0.01775,0.8165,-0.012909001,-0.03202825,-0.00535575,1741839263.881424
0.415,0.00375,0.787,-0.014419501,-0.0087585,-0.00019825,1741839263.895444
0.354,-0.03875,0.59225,-0.013702501,-0.00064075,0.0022277501,1741839263.910021
0.289,-0.0625,0.4305,-0.008224499,0.011535751,0.004593,1741839263.924497
0.1935,-0.055,0.152,-0.0027465,0.011749251,0.00384525,1741839263.939183
0.18625,-0.0325,0.09275,0.0066985004,0.0021819999,0.002533,1741839263.953536
0.20275,0.0,0.04025,0.0075682504,-0.000824,0.0037079998,1741839263.96804
0.19625,0.0155,-0.00475,0.00517275,-0.00027475,0.0065612504,1741839263.982563
0.18175,0.0355,-0.062,-0.0007325,0.0035704998,0.011245751,1741839263.996918
0.18525,0.06725,-0.1215,0.00027475,0.0018615,0.010314999,1741839264.011298
0.21075,0.07025,-0.09625,0.0059967497,-0.00643925,0.006073,1741839264.0259001
0.27625,0.08325,0.00925,0.00665275,-0.008026,0.0052947504,1741839264.041645
0.29675,0.09225,0.047,0.00296025,-0.0042115003,0.00460825,1741839264.054927
0.307,0.07275,0.06625,0.00201425,-0.001587,0.002777,1741839264.070833
0.3015,0.0505,0.05325,0.0025940002,0.0013275,-0.000824,1741839264.0837219
0.285,0.013,0.0225,0.00254825,0.00160225,-0.0009155,1741839264.098161
0.279,0.004,0.017,0.0021819999,0.00109875,0.0012817499,1741839264.1135402
0.28075,0.01825,0.027,0.0017395001,0.0009765,0.0027312501,1741839264.126805
0.28075,0.035,0.03,0.00143425,0.00131225,0.0033875,1741839264.1411352
0.2755,0.05075,0.028,0.00096125,0.0036162501,0.0017852499,1741839264.1555169
0.25825,0.055,0.01,0.00045775,0.0050812503,0.000473,1741839264.171253
0.249,0.04325,-0.00625,0.0007325,0.0065612504,-0.0016175,1741839264.184412
0.24025,0.017,-0.01875,0.00146475,0.00579825,-0.001892,1741839264.2006772
0.23925,0.01325,-0.014,0.00225825,0.0033722501,-0.00048825,1741839264.21348
0.238,0.02675,0.00475,0.00187675,0.00245675,0.00071725,1741839264.2278268
0.241,0.03625,0.01975,0.00093075,0.0020295,0.001892,1741839264.2421088
0.24675,0.04275,0.02225,0.0005645,0.0028687501,0.0014037499,1741839264.256441
0.246,0.03725,0.00775,6.1000002e-05,0.00399775,0.000824,1741839264.2709692
0.245,0.0325,-0.00525,-0.0004425,0.004776,0.00035100002,1741839264.285286
0.24675,0.03625,-0.0075,-0.00064075,0.0043944996,0.00048825,1741839264.30066
0.246,0.04625,-0.00275,-0.0013275,0.003891,0.0010375,1741839264.314201
0.236,0.06325,0.002,-0.00160225,0.0041044997,0.00057975,1741839264.3286889
0.23225,0.05425,0.003,-0.0012207499,0.0047912505,-0.0021515,1741839264.34318
0.2295,0.00825,0.003,3.0500001e-05,0.0048979996,-0.00328075,1741839264.357667
0.22875,-0.00525,-0.0005,0.002243,0.0052642496,-0.0023345,1741839264.372447
0.22925,0.00525,-0.01725,0.00231925,0.005539,-0.00064075,1741839264.386917
0.227,0.0265,-0.0275,0.0011445,0.0059815003,0.00160225,1741839264.4013498
0.224,0.06125,-0.0395,0.00065625,0.00579825,0.0009765,1741839264.415812
0.22425,0.0635,-0.04075,0.000763,0.00543225,-0.00077825,1741839264.431401
0.231,0.03075,-0.0415,0.00239575,0.00408925,-0.00511175,1741839264.4449291
0.23725,0.00675,-0.03975,0.0036162501,0.00328075,-0.00640875,1741839264.459476
0.242,-0.00775,-0.03825,0.00514225,0.0028687501,-0.00546275,1741839264.4740071
0.24275,0.00575,-0.035,0.0044250004,0.0033264998,-0.0033264998,1741839264.488489
0.241,0.024,-0.03175,0.0016632499,0.00517275,0.00068675,1741839264.5029728
0.2355,0.0525,-0.037,0.00105275,0.0059815003,0.00096125,1741839264.517432
0.23425,0.05125,-0.047,0.0021819999,0.00614925,-0.00213625,1741839264.53192
0.238,0.0235,-0.0615,0.003418,0.00555425,-0.0041044997,1741839264.5464478
0.23875,0.0085,-0.06125,0.005005,0.0047912505,-0.0050812503,1741839264.560919
0.234,0.00175,-0.056,0.0049285004,0.0046234997,-0.00390625,1741839264.5753841
0.231,0.014,-0.05525,0.0035704998,0.0049742498,-0.0008545,1741839264.590692
0.233,0.04925,-0.05975,0.00305175,0.0050812503,-0.000534,1741839264.604327
0.23825,0.05375,-0.063,0.0027465,0.0048674997,-0.0012665,1741839264.620472
0.244,0.04775,-0.06475,0.0025634998,0.00440975,-0.003418,1741839264.633541
0.24275,0.03,-0.067,0.0027160002,0.00469975,-0.00408925,1741839264.6481762
0.23575,0.02525,-0.06825,0.0034637498,0.0054780003,-0.0045625,1741839264.663507
0.22125,0.01425,-0.07475,0.00402825,0.0052947504,-0.0046845004,1741839264.6771991
0.219,0.0095,-0.0745,0.00531,0.0037079998,-0.00463875,1741839264.691819
0.226,0.00425,-0.07,0.00596625,0.00317375,-0.0045625,1741839264.70629
0.23075,0.00425,-0.07125,0.00617975,0.0041810004,-0.00354,1741839264.720927
0.2395,0.011,-0.08725,0.0054475004,0.00543225,-0.002365,1741839264.7354372
0.24275,0.02125,-0.1055,0.00317375,0.0078735,-0.00033575002,1741839264.7505422
0.2485,0.03975,-0.15825,0.0021515,0.008926501,-0.000229,1741839264.764483
0.25,0.04175,-0.192,0.00184625,0.010299751,-0.0015105,1741839264.780454
0.24075,0.02925,-0.2795,0.0026854998,0.01048275,-0.00204475,1741839264.793643
0.2285,0.02475,-0.335,0.00402825,0.0105742505,-0.001953,1741839264.808218
0.18975,0.04,-0.49,0.0058287503,0.011886501,0.00051875,1741839264.8227599
0.165,0.0525,-0.58,0.00378425,0.0135345,0.0028074998,1741839264.837166
0.131,0.066,-0.6615,-0.008346501,0.013564999,0.008773751,1741839264.851634
0.0325,0.0455,-0.76275,-0.017044,0.011535751,0.01200875,1741839264.866219
-0.038,0.008,-0.7895,-0.03344725,0.00245675,0.02241525,1741839264.881275
-0.15675,0.01225,-0.70375,-0.03721625,-0.00738525,0.0282745,1741839264.895561
-0.142,0.07775,-0.5085,-0.02439875,-0.044372503,0.024353001,1741839264.9102132
0.119,0.21,0.21025,-0.0115205,-0.06314075,0.012420749,1741839264.9246788
0.2935,0.20125,0.58575,0.0023345,-0.0747985,-0.01260375,1741839264.940355
0.551,0.044,1.0,0.00013725001,-0.065399244,-0.017547501,1741839264.9538949
0.5755,-0.05375,1.0,-0.00830075,-0.02401725,-0.014572251,1741839264.968629
0.4235,-0.1625,0.7535,-0.008194,-0.0045625,-0.0110015,1741839264.9833071
0.30175,-0.17075,0.53575,-0.0025634998,0.018188499,-0.004303,1741839264.9979122
0.1225,-0.13175,0.15175,-0.00125125,0.02067575,0.00181575,1741839265.012685
0.08675,-0.06775,0.03875,-0.00148,0.018158002,0.0094604995,1741839265.026931
0.1035,0.08075,-0.04325,0.000824,0.00770575,0.017028749,1741839265.041445
0.13175,0.13425,-0.06475,0.004242,0.00428775,0.014846751,1741839265.0558379
0.16375,0.17375,-0.083,0.00671375,0.00201425,0.00845325,1741839265.071098
0.21525,0.19525,-0.09325,0.0057220003,0.0012970001,0.0057220003,1741839265.0846348
0.23725,0.1755,-0.07575,0.00393675,-0.00149525,0.000412,1741839265.100755
0.2685,0.1055,-0.03225,0.00334175,-0.00225825,-0.0015565,1741839265.113933
0.2765,0.07225,-0.01175,0.00296025,-0.0021515,-0.00305175,1741839265.1284668
0.28525,0.03,0.0205,0.0029755002,-0.0016785001,-0.0029449998,1741839265.142911
0.2865,0.01575,0.0285,0.001953,-0.00024425,-0.00169375,1741839265.157429
0.2665,-0.00625,0.00125,0.00115975,0.00093075,-0.00062550005,1741839265.1718981
0.25025,-0.00825,-0.0235,0.0013427499,0.0020295,0.00086975005,1741839265.186425
0.23975,-0.00125,-0.04175,0.00216675,0.0013885,0.00080875,1741839265.2010272
0.2485,0.001,-0.03125,0.0031127501,0.00035100002,0.00042725,1741839265.215401
0.26025,0.0005,-0.017,0.0040435,-0.00036625,0.000412,1741839265.231584
0.27525,0.006,-0.00025,0.00354,0.0005035,0.001526,1741839265.244441
0.2745,0.01675,-0.00125,0.0025787498,0.0033264998,0.00390625,1741839265.2587361
0.2595,0.04575,-0.02,0.0026854998,0.0044250004,0.0039825,1741839265.273325
0.24925,0.055,-0.0335,0.00283825,0.004547,0.002411,1741839265.287849
0.234,0.0545,-0.04825,0.0030975002,0.0036162501,0.00131225,1741839265.3022451
0.23375,0.05225,-0.0425,0.00367725,0.001068,-0.00042725,1741839265.316669
0.23825,0.05,-0.023,0.00308225,0.00035100002,-0.000534,1741839265.3313909
0.23975,0.048,-0.015,0.0012665,0.00045775,-4.575e-05,1741839265.345907
0.241,0.04025,-0.0105,0.00096125,0.00096125,4.575e-05,1741839265.3604748
0.239,0.036,-0.0125,0.0008545,0.0016175,0.00030525,1741839265.374937
0.2305,0.03875,-0.0215,0.00064075,0.00292975,0.00131225,1741839265.389581
0.227,0.04325,-0.02575,0.0004425,0.0031585,0.00163275,1741839265.4041119
0.22425,0.0475,-0.02775,0.0003815,0.0023345,0.00115975,1741839265.41852
0.22675,0.055,-0.0205,0.0007935,0.00157175,0.0003205,1741839265.433069
0.23125,0.053,-0.0185,0.00181575,0.00067150005,-0.0017852499,1741839265.4476118
0.239,0.04,-0.0195,0.00201425,0.000763,-0.0021972498,1741839265.463443
0.23975,0.038,-0.02125,0.00157175,0.00149525,-0.001175,1741839265.4766889
0.23825,0.047,-0.02375,0.00099175,0.001892,-0.00033575002,1741839265.491355
0.23825,0.05425,-0.0265,0.000412,0.0022735,-0.000122000005,1741839265.505909
0.238,0.06225,-0.0345,0.00048825,0.0020295,-0.0009765,1741839265.521163
0.23875,0.05725,-0.037,0.00070200005,0.0010375,-0.0032347501,1741839265.5350962
0.24025,0.04125,-0.0375,0.000824,0.00065625,-0.004074,1741839265.550556
0.241,0.03375,-0.0345,0.001236,0.00036625,-0.0046234997,1741839265.564082
0.2415,0.02775,-0.02725,0.00175475,0.000412,-0.0045777503,1741839265.578618
0.24175,0.028,-0.026,0.00201425,0.0005645,-0.00437925,1741839265.5932531
0.243,0.0265,-0.02675,0.0009765,0.0013580001,-0.0028687501,1741839265.607687
0.24475,0.02825,-0.033,0.00039675,0.0019685,-0.001831,1741839265.622221
0.246,0.03175,-0.03775,-1.5250001e-05,0.00320425,-0.0007935,1741839265.636926
0.2455,0.0305,-0.05175,0.00010675,0.0036162501,-0.00090025004,1741839265.651513
0.24475,0.02925,-0.0575,0.000534,0.00340275,-0.00119025,1741839265.6661298
0.2435,0.032,-0.05825,0.00074775,0.00292975,-0.00143425,1741839265.68097
0.24275,0.0315,-0.056,0.001526,0.0019225,-0.002472,1741839265.6952431
0.24525,0.027,-0.0465,0.00184625,0.001648,-0.0027465,1741839265.709694
0.2465,0.027,-0.0425,0.00148,0.0022735,-0.00216675,1741839265.724154
0.24425,0.0315,-0.044,0.00108325,0.0029755002,-0.0016632499,1741839265.7402618
0.2405,0.032,-0.0505,-0.0003205,0.00402825,-0.00064075,1741839265.753417
0.2325,0.032,-0.06475,-0.00067150005,0.00390625,-0.00061025,1741839265.767898
0.2315,0.028,-0.06775,-0.00070200005,0.00331125,-0.000946,1741839265.7825122
0.236,0.0195,-0.06175,0.000122000005,0.0016632499,-0.00177,1741839265.797011
0.24,0.01775,-0.05325,0.000763,0.00102225,-0.00190725,1741839265.812545
0.244,0.019,-0.0435,0.0013427499,0.0012207499,-0.001419,1741839265.826124
0.2425,0.028,-0.04275,0.0013580001,0.0019989999,-0.00112925,1741839265.841274
