acc_x,acc_y,acc_z,gyro_x,gyro_y,gyro_z,timestamp
0.24625,-0.0095,-0.0025,-0.004242,-0.0036315,-0.0087585,1741839181.733441
0.24525,-0.01475,-0.0025,-0.00460825,-0.0039825,-0.0080872495,1741839181.748441
0.245,-0.01675,-0.00025,-0.0040435,-0.00411975,-0.00738525,1741839181.7630122
0.24275,-0.0235,0.0045,-0.00267025,-0.00372325,-0.00794975,1741839181.777855
0.2415,-0.029,0.00525,-0.0007325,-0.0029755002,-0.008316,1741839181.792537
0.24225,-0.035,0.008,-0.0007325,-0.00276175,-0.00741575,1741839181.80735
0.24325,-0.03225,0.00925,-0.00148,-0.00216675,-0.0049742498,1741839181.822005
0.2435,-0.031,0.007,-0.00163275,-0.0017852499,-0.003952,1741839181.836728
0.2435,-0.03325,0.00575,-0.00105275,-0.00115975,-0.0023039998,1741839181.851412
0.24525,-0.035,0.008,-0.000412,-0.000946,-0.0016785001,1741839181.866059
0.24675,-0.0335,0.01025,0.000824,-0.0005035,-0.00108325,1741839181.880619
0.24875,-0.02575,0.01125,0.001114,-0.00024425,-0.0009155,1741839181.8954282
0.249,-0.02275,0.00975,0.001007,0.00010675,-0.00033575002,1741839181.909953
0.2495,-0.019,0.008,0.00083925005,0.0002135,0.0,1741839181.9243069
0.2495,-0.016,0.00725,0.00064075,0.000412,0.000229,1741839181.938741
0.248,-0.01275,0.004,0.00029,0.00090025004,0.00019825,1741839181.953281
0.2475,-0.013,0.0025,0.00027475,0.00102225,-9.15e-05,1741839181.967825
0.247,-0.014,0.00225,0.00042725,0.0009765,-0.00096125,1741839181.982218
0.24575,-0.0185,0.0025,0.000412,0.00083925005,-0.0013885,1741839181.996767
0.2465,-0.02225,0.00325,0.0002595,0.00042725,-0.00198375,1741839182.011319
0.24875,-0.02825,0.006,0.0003205,0.0002595,-0.0021972498,1741839182.025805
0.249,-0.02925,0.00625,0.00068675,0.0002135,-0.0025940002,1741839182.04095
0.24825,-0.03,0.00375,0.000824,0.00019825,-0.0025940002,1741839182.054934
0.2485,-0.029,0.00375,0.00086975005,0.00016775,-0.00242625,1741839182.070296
0.24975,-0.026,0.00525,0.0008545,0.0003205,-0.0024872501,1741839182.0838552
0.24925,-0.02525,0.00475,0.0011445,0.00080875,-0.00328075,1741839182.098315
0.248,-0.0255,0.0025,0.0014037499,0.000946,-0.003769,1741839182.113271
0.2485,-0.02625,0.00175,0.00181575,0.0009765,-0.00428775,1741839182.1275132
0.2475,-0.027,0.0,0.0030669998,0.0010375,-0.0055237496,1741839182.142024
0.241,-0.04025,-0.00575,0.0032195,0.001007,-0.0056,1741839182.156608
0.23375,-0.06125,-0.008,-0.0004425,0.0007935,-0.00083925005,1741839182.1712892
0.2015,-0.146,-0.00825,-0.00538625,0.00054925,0.0065612504,1741839182.185898
0.181,-0.22175,-0.007,-0.018219,-0.00096125,0.039032,1741839182.200594
0.15725,-0.414,0.01375,-0.024932751,-0.0017242499,0.0657655,1741839182.2152529
0.155,-0.48425,0.05575,-0.038390998,0.0021515,0.129486,1741839182.2307
0.17575,-0.461,0.1595,-0.04008475,0.00823975,0.15859975,1741839182.2443461
0.14475,-0.4035,0.18,-0.01667775,0.029449498,0.19407651,1741839182.258833
0.015,-0.296,0.22925,0.0065917503,0.0434265,0.20074451,1741839182.2733068
-0.06975,-0.216,0.26875,0.05537425,0.07286075,0.2009735,1741839182.287871
-0.29375,0.0555,0.29825,0.06925975,0.085907,0.19772325,1741839182.3024719
-0.4725,0.287,0.202,0.0616455,0.096634,0.17964175,1741839182.316997
-0.60275,0.72825,-0.0395,0.04891975,0.083435,0.160431,1741839182.3317592
-0.4815,0.78375,-0.0405,0.0423125,0.06372075,0.12913525,1741839182.346147
-0.36625,0.71025,-0.01325,0.039917,0.035446253,0.04904175,1741839182.3607218
-0.29875,0.5125,-0.04125,0.034317,0.024582,0.02977,1741839182.3754098
-0.2765,0.51025,-0.04525,0.018692,0.00593575,0.023758,1741839182.3908439
-0.17325,0.54725,-0.0015,0.013321,0.00283825,0.0185395,1741839182.4044428
-0.13175,0.52475,0.01325,0.00782775,0.003952,-0.0036315,1741839182.418879
-0.0685,0.42325,0.035,0.00488275,0.0033875,-0.0149535,1741839182.433395
-0.04175,0.37175,0.04175,-0.0021972498,0.00193775,-0.026413,1741839182.44824
-0.00025,0.29025,0.054,-0.00466925,0.0022125002,-0.027130252,1741839182.46375
0.0185,0.2535,0.058,-0.00646975,-0.000473,-0.0272675,1741839182.477487
0.04175,0.18775,0.05425,-0.0070342496,-0.00270075,-0.02626025,1741839182.492098
0.04675,0.1625,0.045,-0.009094249,-0.0047607496,-0.019592252,1741839182.5067132
0.04975,0.1415,0.02125,-0.009613,-0.0037079998,-0.01655575,1741839182.521315
0.04725,0.144,0.01325,-0.0075225,-0.00071725,-0.015594499,1741839182.5358999
0.02125,0.16425,-0.0015,-0.0059510004,0.00030525,-0.01582325,1741839182.550642
0.006,0.1805,-0.00375,-0.00460825,0.00086975005,-0.0148925,1741839182.565313
-0.0015,0.215,0.0035,-0.002472,-0.00125125,-0.00991825,1741839182.5806332
0.0025,0.23175,0.01,-0.00198375,-0.0031585,-0.0078125,1741839182.5946162
0.00775,0.246,0.01475,-0.001953,-0.0044250004,-0.0069274995,1741839182.609301
0.01475,0.2635,0.02175,-0.00198375,-0.0038757501,-0.00791925,1741839182.623928
0.0155,0.27225,0.0235,-0.00198375,-0.0027312501,-0.0119934995,1741839182.6387122
0.011,0.294,0.02025,-0.00231925,-0.0025025,-0.015090999,1741839182.653267
0.01425,0.301,0.021,-0.0029755002,-0.00292975,-0.023650998,1741839182.667912
0.02925,0.31125,0.028,-0.0030365,-0.0037385002,-0.028686501,1741839182.68266
0.0365,0.30575,0.03,-0.0037537501,-0.0070037497,-0.035324,1741839182.697252
0.0545,0.27775,0.02575,-0.0048979996,-0.008361749,-0.03601075,1741839182.713491
0.064,0.26725,0.02375,-0.008148249,-0.008285499,-0.035766497,1741839182.726442
0.0765,0.2465,0.01475,-0.009842,-0.0076905,-0.036193747,1741839182.740931
0.08075,0.23675,0.0095,-0.011810251,-0.0072937496,-0.03804025,1741839182.755546
0.093,0.2265,0.00175,-0.012054499,-0.00738525,-0.03886425,1741839182.7705758
0.09625,0.2255,-0.00325,-0.01165775,-0.0069274995,-0.03990175,1741839182.784817
0.0925,0.22725,-0.0105,-0.01187125,-0.0065917503,-0.0395355,1741839182.79981
0.09725,0.22975,-0.0065,-0.0128175,-0.00712575,-0.03660575,1741839182.8144152
0.11675,0.22275,0.00275,-0.01310725,-0.0077667497,-0.034652747,1741839182.8309572
0.12775,0.2095,0.00625,-0.013290499,-0.0080567505,-0.0328065,1741839182.8434932
0.137,0.197,0.0085,-0.01358025,-0.00668325,-0.031005751,1741839182.858146
0.152,0.19075,0.0095,-0.013275251,-0.0056915004,-0.03155525,1741839182.872777
0.1565,0.19375,0.0095,-0.0114135,-0.00384525,-0.03468325,1741839182.8874218
0.1575,0.19,-0.00525,-0.010299751,-0.0034790002,-0.036316004,1741839182.902116
0.15425,0.1835,-0.01475,-0.010024999,-0.00416575,-0.03739925,1741839182.916706
0.15375,0.173,-0.0195,-0.01193225,-0.0049590003,-0.03668225,1741839182.9314308
0.16025,0.17025,-0.01425,-0.0160065,-0.00637825,-0.034546003,1741839182.946003
0.176,0.16225,-0.00625,-0.01658625,-0.0065917503,-0.03392025,1741839182.960694
0.18425,0.15675,-0.004,-0.01469425,-0.00579825,-0.03508,1741839182.975434
0.1905,0.1385,-0.00025,-0.013382,-0.00543225,-0.036620997,1741839182.9910452
0.19075,0.1215,0.001,-0.0119630005,-0.0057525,-0.03970325,1741839183.004683
0.208,0.09275,0.0065,-0.0110932505,-0.00617975,-0.04100025,1741839183.02014
0.218,0.08375,0.00375,-0.008590749,-0.0062255003,-0.040283248,1741839183.033868
0.213,0.08275,-0.016,-0.008194,-0.0055237496,-0.03730775,1741839183.0486772
0.207,0.0875,-0.01875,-0.012420749,-0.004776,-0.028854249,1741839183.0634549
0.212,0.0855,-0.0095,-0.01504525,-0.0053252503,-0.026519751,1741839183.077972
0.219,0.0765,-0.0085,-0.015304499,-0.00585925,-0.02687075,1741839183.092714
0.2255,0.065,-0.01525,-0.00947575,-0.0054015,-0.031188998,1741839183.1074991
0.22575,0.066,-0.02,-0.0064545004,-0.0052185003,-0.03173825,1741839183.1222332
0.2245,0.0765,-0.021,-0.00413525,-0.0054475004,-0.029876752,1741839183.1369028
0.225,0.07525,-0.01625,-0.0052642496,-0.0055847503,-0.02967825,1741839183.151582
0.22925,0.063,-0.00775,-0.00817875,-0.00621025,-0.033081003,1741839183.1665652
0.234,0.0265,0.003,-0.00785825,-0.006546,-0.03524775,1741839183.181143
0.23525,0.01525,-0.001,-0.0064850003,-0.0064545004,-0.03306575,1741839183.195988
0.24,0.0265,-0.01175,-0.0072785,-0.006012,-0.029129,1741839183.2106261
0.24075,0.04025,-0.0125,-0.0097045,-0.004242,-0.02433775,1741839183.225447
0.23575,0.04675,0.003,-0.0090485,-0.00328075,-0.02471925,1741839183.2411861
0.23175,0.02125,0.00925,-0.004837,-0.00308225,-0.02418525,1741839183.2546198
0.21175,-0.06025,0.008,-0.0039825,-0.00364675,-0.0210725,1741839183.270562
0.18775,-0.11975,0.0075,-0.009734999,-0.0054780003,-0.002365,1741839183.28402
0.1475,-0.33625,0.03425,-0.014389,-0.0068207504,0.01579275,1741839183.2986429
0.11675,-0.4845,0.0485,-0.02537525,-0.009079001,0.06906125,1741839183.313646
0.062,-0.647,0.08875,-0.03152475,-0.0057372497,0.102935754,1741839183.328172
0.04775,-0.58275,0.114,-0.0273285,0.014206001,0.166153,1741839183.3426812
-0.05075,-0.27075,0.087,-0.0173645,0.022064252,0.18716425,1741839183.357437
-0.09375,-0.07475,0.09375,0.011078,0.03117375,0.20202625,1741839183.3719401
-0.09775,0.372,0.154,0.02711475,0.0375365,0.19332875,1741839183.386496
-0.12075,0.54975,0.1255,0.04090875,0.050659247,0.149643,1741839183.401053
-0.18275,0.71025,-0.021,0.03648375,0.052368253,0.12513725,1741839183.415547
-0.196,0.69775,-0.088,0.029068,0.048355,0.10296625,1741839183.43104
-0.1675,0.65575,-0.1105,0.02041625,0.02978525,0.065414496,1741839183.4449558
-0.08,0.57925,-0.0775,0.02079775,0.02227775,0.04812625,1741839183.4594612
-0.06125,0.5505,-0.064,0.020813,0.01316825,0.0200805,1741839183.47418
-0.05275,0.46725,-0.04475,0.018219,0.009201,0.009369001,1741839183.488642
-0.02875,0.40025,-0.0205,0.0113525,0.00352475,-0.00378425,1741839183.503244
0.01725,0.2805,0.0175,0.00935375,0.0027312501,-0.006256,1741839183.517696
0.03,0.2415,0.0255,0.005539,0.00137325,-0.0097045,1741839183.532226
0.05175,0.19025,0.03925,0.0024872501,0.00051875,-0.0118407495,1741839183.546925
0.055,0.176,0.0365,-0.00292975,0.00201425,-0.01380925,1741839183.5635
0.0345,0.1885,0.01075,-0.00358575,0.00340275,-0.013336251,1741839183.576041
0.0275,0.20525,0.0045,-0.00175475,0.00340275,-0.011749251,1741839183.590631
0.0255,0.237,0.00525,-0.0007935,0.0025025,-0.011886501,1741839183.605056
0.02225,0.25,0.00525,-0.0002595,0.001709,-0.012909001,1741839183.6204731
0.023,0.26425,0.009,-0.0003815,0.0001525,-0.0167695,1741839183.634078
0.0295,0.264,0.0115,-0.00036625,-0.00068675,-0.019622749,1741839183.648615
0.03475,0.25825,0.0115,0.000534,-0.0016632499,-0.02737425,1741839183.663265
0.05325,0.24525,0.013,0.001114,-0.0016785001,-0.03108225,1741839183.677794
0.06075,0.24725,0.0145,0.0023039998,-0.00148,-0.034195,1741839183.692256
0.06825,0.25625,0.015,0.00201425,-0.0019685,-0.033325247,1741839183.706861
0.073,0.259,0.016,-0.00148,-0.0045625,-0.0299835,1741839183.7214332
0.087,0.26275,0.01875,-0.0034484998,-0.0056609996,-0.02882375,1741839183.7360032
0.09075,0.26,0.01875,-0.0063934997,-0.0058135,-0.028991751,1741839183.750871
0.10675,0.2405,0.0235,-0.0075225,-0.0050355,-0.03005975,1741839183.765155
0.121,0.22675,0.02775,-0.009201,-0.0022125002,-0.032897998,1741839183.7809558
0.13475,0.203,0.02375,-0.009734999,-0.00045775,-0.034195,1741839183.794475
0.1305,0.2015,0.01875,-0.009811499,0.00074775,-0.034835752,1741839183.8089411
0.129,0.20625,0.0055,-0.009140001,-0.00042725,-0.032943748,1741839183.823593
0.134,0.2075,-0.00225,-0.008514499,-0.001892,-0.029953,1741839183.8382878
0.14125,0.21675,-0.0075,-0.008788999,-0.00279225,-0.0252075,1741839183.852992
0.14575,0.2205,-0.004,-0.009445249,-0.00270075,-0.02497875,1741839183.867674
0.15025,0.2175,0.00025,-0.0103455,-0.0032655,-0.028442498,1741839183.882273
0.16075,0.1895,0.006,-0.010589501,-0.0034484998,-0.03096,1741839183.897063
0.166,0.173,0.00525,-0.0115205,-0.0025940002,-0.034973253,1741839183.911581
0.17125,0.15125,-0.00525,-0.012267999,-0.001892,-0.03578175,1741839183.9265149
0.1735,0.152,-0.0085,-0.012420749,-0.001114,-0.034866247,1741839183.9411929
0.17675,0.1675,-0.0075,-0.011184749,-0.0012817499,-0.0338135,1741839183.9556658
0.1755,0.16725,-0.00825,-0.008773751,-0.00228875,-0.03306575,1741839183.970864
0.1805,0.139,-0.00525,-0.00862125,-0.0028229998,-0.03367625,1741839183.98529
0.18825,0.11975,-0.00125,-0.008224499,-0.003006,-0.0338745,1741839184.0006568
0.20375,0.09575,0.00025,-0.00773625,-0.0025787498,-0.032821752,1741839184.014574
0.20525,0.10025,-0.0035,-0.007843,-0.001236,-0.03019725,1741839184.0306199
0.2055,0.12,-0.009,-0.008407501,-0.00048825,-0.030181998,1741839184.043895
0.207,0.1195,-0.00925,-0.00665275,-0.00033575002,-0.03492725,1741839184.0586329
0.21025,0.098,-0.01225,-0.00453175,-0.00125125,-0.038269002,1741839184.0735419
0.21225,0.081,-0.01525,-0.002243,-0.0032195,-0.04043575,1741839184.088177
0.215,0.06625,-0.0205,-0.0030365,-0.0035704998,-0.038208,1741839184.102912
0.2195,0.068,-0.01825,-0.006363,-0.0032195,-0.03256225,1741839184.117661
0.22325,0.06625,-0.00675,-0.0069274995,-0.0028687501,-0.03256225,1741839184.13246
0.22275,0.056,-0.001,-0.004074,-0.003006,-0.03923025,1741839184.1472058
0.23075,0.02475,0.00275,-0.0024872501,-0.0033264998,-0.043273997,1741839184.1639512
0.23375,0.009,0.00175,-0.0021972498,-0.0034484998,-0.0448455,1741839184.176499
0.24575,-0.00125,0.005,-0.004837,-0.001648,-0.03840625,1741839184.191388
0.25,0.0025,0.00575,-0.0061645,-9.15e-05,-0.033508252,1741839184.2059588
0.24975,0.0025,0.0025,-0.0054932497,0.0021515,-0.02772525,1741839184.2204769
0.23675,-0.015,-0.013,-0.00372325,0.00245675,-0.02696225,1741839184.235209
0.22925,-0.03025,-0.017,0.00039675,0.0014037499,-0.026657,1741839184.250624
0.22425,-0.044,-0.0225,0.0030975002,7.625e-05,-0.02545175,1741839184.264639
0.227,-0.04275,-0.025,0.00794975,-0.003296,-0.0221405,1741839184.2808099
0.23825,-0.04625,-0.0125,0.00791925,-0.0042572496,-0.02088925,1741839184.294168
0.2425,-0.057,0.0,0.00393675,-0.0026245,-0.01705925,1741839184.308769
0.2335,-0.0865,0.01775,0.0024414998,-0.00071725,-0.014145001,1741839184.323481
0.21225,-0.115,0.02075,0.00143425,0.0018005001,-0.00148,1741839184.3380349
0.13125,-0.257,0.00525,0.0020905002,0.00190725,0.01187125,1741839184.35252
0.08,-0.36225,-0.00875,-0.00039675,0.0002595,0.061340246,1741839184.367092
0.01875,-0.495,0.044,-0.0048979996,0.00016775,0.095596254,1741839184.381825
0.01275,-0.52625,0.088,-0.007599,0.00546275,0.15979,1741839184.3963158
-0.00075,-0.522,0.177,-0.00062550005,0.007965,0.1806335,1741839184.410916
-0.00325,-0.43125,0.229,0.037323,0.01197825,0.19223025,1741839184.425476
-0.0915,-0.043,0.255,0.05679325,0.01649475,0.18846124,1741839184.441129
-0.1395,0.21525,0.252,0.065384,0.02268975,0.18530275,1741839184.4544141
-0.17675,0.464,0.22975,0.054718,0.041504003,0.17781074,1741839184.4706612
-0.2985,0.778,0.075,0.045089748,0.048889253,0.16775501,1741839184.483413
-0.34575,0.80575,-0.021,0.025833251,0.042419497,0.123809755,1741839184.4980538
-0.28925,0.71475,-0.104,0.021942249,0.0330505,0.095336996,1741839184.513898
-0.24975,0.67225,-0.0995,0.024932751,0.019744748,0.04568475,1741839184.527046
-0.20225,0.5815,-0.0625,0.02417,0.013351499,0.0288085,1741839184.541507
-0.14275,0.5065,-0.023,0.017028749,0.00302125,0.006607,1741839184.556066
-0.03525,0.371,0.05525,0.0142365,0.0019225,-0.00270075,1741839184.570986
-0.002,0.3165,0.0815,0.010528499,0.0035704998,-0.016159,1741839184.585115
0.03725,0.2355,0.0815,0.00723275,0.00340275,-0.0188445,1741839184.600713
0.04625,0.207,0.069,0.00334175,0.002533,-0.01953125,1741839184.613934
0.0495,0.16525,0.043,-0.0026092501,0.0015565,-0.016998248,1741839184.6285892
0.03575,0.16725,0.038,-0.0027160002,0.0028535,-0.014282251,1741839184.643109
0.02025,0.1805,0.038,0.0012817499,0.0031889998,-0.00798025,1741839184.657495
0.0135,0.20875,0.0405,0.00225825,0.00061025,-0.0056915004,1741839184.671822
0.01225,0.22275,0.042,0.0025940002,-0.0027465,-0.0062865,1741839184.686275
0.0115,0.24425,0.04575,0.0028687501,-0.00245675,-0.009323,1741839184.701036
0.0175,0.24625,0.04675,0.00231925,-0.000946,-0.016632,1741839184.7155352
0.018,0.242,0.038,0.001648,-0.0002135,-0.0184785,1741839184.731435
0.01475,0.24975,0.03825,0.00108325,0.001526,-0.01681525,1741839184.744363
0.034,0.26575,0.0535,0.00042725,0.001831,-0.0150605,1741839184.7589178
0.048,0.268,0.06075,-0.00308225,0.00086975005,-0.0138245,1741839184.773451
0.064,0.25825,0.06075,-0.00488275,0.00035100002,-0.01498425,1741839184.788022
0.071,0.24575,0.05875,-0.0057220003,0.0003205,-0.01731875,1741839184.802479
0.077,0.2345,0.0575,-0.0047912505,0.0013580001,-0.022369498,1741839184.8170428
0.07425,0.22875,0.04925,-0.0041504996,0.00163275,-0.023254499,1741839184.8314931
0.072,0.22375,0.04275,-0.0048217503,1.5250001e-05,-0.021286,1741839184.846026
0.07775,0.22125,0.03775,-0.0050965,-0.00068675,-0.021041749,1741839184.860718
0.0835,0.233,0.04025,-0.0056,-0.001709,-0.023834249,1741839184.8753312
0.091,0.25425,0.0425,-0.0067597497,-0.0023345,-0.0259095,1741839184.891117
0.0895,0.26225,0.04525,-0.008499251,-0.004303,-0.0295105,1741839184.904587
0.08825,0.26775,0.0425,-0.0077210004,-0.0055847503,-0.030181998,1741839184.919153
0.09125,0.26,0.03625,-0.0061339997,-0.0072480002,-0.028061,1741839184.933829
0.0945,0.238,0.0205,-0.007019,-0.0068665,-0.025466999,1741839184.9484959
0.097,0.23225,0.01875,-0.009262,-0.0033875,-0.02111825,1741839184.963964
0.11275,0.23175,0.02625,-0.0101165,-0.001953,-0.02088925,1741839184.977681
0.12025,0.23175,0.03175,-0.0109709995,-0.00102225,-0.0258025,1741839184.992307
0.12275,0.22625,0.0315,-0.010803251,-0.001236,-0.030014,1741839185.0070431
0.1245,0.22475,0.02875,-0.0106965,-0.001892,-0.034027,1741839185.0215628
0.13175,0.2255,0.022,-0.0115815,-0.00320425,-0.03837575,1741839185.036205
0.133,0.223,0.01825,-0.013503999,-0.0035095,-0.038390998,1741839185.050912
0.134,0.21675,0.016,-0.018158002,-0.00463875,-0.03598025,1741839185.065513
0.15125,0.18225,0.0195,-0.019287001,-0.0065002497,-0.03536975,1741839185.08104
0.16575,0.1615,0.02425,-0.019134501,-0.010727,-0.03816225,1741839185.09486
0.18125,0.1475,0.02575,-0.017624,-0.01115425,-0.040512,1741839185.109419
0.17925,0.1505,0.02075,-0.01374825,-0.00912475,-0.042175252,1741839185.124017
0.176,0.16175,0.0145,-0.013275251,-0.008316,-0.041396998,1741839185.1385999
0.17525,0.16975,0.01125,-0.017105,-0.0078125,-0.038330004,1741839185.153173
0.1845,0.15525,0.013,-0.01937875,-0.00738525,-0.0365905,1741839185.1678662
0.194,0.13325,0.015,-0.018814,-0.005249,-0.034179747,1741839185.1824179
0.207,0.0965,0.014,-0.01652525,-0.00399775,-0.03364575,1741839185.197126
0.21,0.093,0.012,-0.012634249,-0.0025940002,-0.033432,1741839185.213393
0.21675,0.093,0.01425,-0.01156625,-0.0025634998,-0.03344725,1741839185.226295
0.21625,0.08725,0.01325,-0.00924675,-0.00242625,-0.032364,1741839185.240841
0.2125,0.0765,0.00675,-0.008346501,-0.0021057501,-0.030746501,1741839185.255529
0.21275,0.07025,0.007,-0.008026,-0.00175475,-0.02870175,1741839185.270821
0.21575,0.05925,0.0095,-0.0075072497,-0.00074775,-0.024887,1741839185.2847202
0.22275,0.04825,0.0065,-0.0067597497,-0.000229,-0.02339175,1741839185.300392
0.22675,0.05575,0.00125,-0.0062712496,-9.15e-05,-0.0211945,1741839185.313901
0.238,0.066,-0.00125,-0.0068207504,-0.00030525,-0.0206145,1741839185.3285928
0.24,0.06025,0.0035,-0.00668325,0.00033575002,-0.021514999,1741839185.343072
0.23675,0.04975,0.0105,-0.0059815003,0.00080875,-0.0220185,1741839185.357589
0.23875,0.04675,0.01025,-0.0043639997,0.00109875,-0.020782499,1741839185.372023
0.249,0.041,0.00625,-0.0035095,0.0012665,-0.01979075,1741839185.386615
0.249,0.0385,0.00325,-0.00354,0.0025940002,-0.018509,1741839185.401124
0.24475,0.0345,0.00025,-0.00444025,0.00305175,-0.018219,1741839185.4157062
0.24175,0.0335,0.006,-0.003769,0.0024872501,-0.01832575,1741839185.430917
0.203,0.01275,0.02075,-0.0015565,0.00190725,-0.01548775,1741839185.444747
0.17425,-0.03075,0.0205,0.0014037499,0.00181575,-0.00868225,1741839185.4592261
0.099,-0.2485,0.00475,0.0020752498,0.00352475,0.018707251,1741839185.473608
0.07725,-0.3995,0.0005,-0.000534,0.00688175,0.04205325,1741839185.488093
0.06675,-0.5115,0.011,-0.00068675,0.018402,0.10832225,1741839185.502679
0.05325,-0.5305,0.11,0.00369275,0.0210725,0.145172,1741839185.517153
0.0435,-0.47075,0.13925,0.02023325,0.01734925,0.20376575,1741839185.5319161
0.00475,-0.2835,0.1475,0.02876275,0.01670825,0.22123724,1741839185.546391
-0.026,-0.155,0.17375,0.05476375,0.0265655,0.21759026,1741839185.561095
-0.228,0.28725,0.22725,0.067871004,0.03462225,0.1938325,1741839185.5755641
-0.31375,0.53075,0.21725,0.078308,0.04544075,0.127884,1741839185.590493
-0.44875,0.797,0.08475,0.07118225,0.044006247,0.10145575,1741839185.604519
-0.4325,0.8305,0.05875,0.039199747,0.024536248,0.082641505,1741839185.618911
-0.2645,0.75175,0.06075,0.026519751,0.016739,0.069503754,1741839185.6334121
-0.22275,0.657,0.057,0.02186575,0.012909001,0.04837025,1741839185.64801
-0.2045,0.56175,0.0415,0.01620475,0.008850001,0.0097045,1741839185.6631029
-0.12675,0.40425,0.043,0.0109709995,0.0063477503,0.0003205,1741839185.677063
-0.073,0.33425,0.0675,0.00535575,0.00488275,-0.013382,1741839185.6916008
-0.01225,0.23175,0.08975,0.004593,0.00340275,-0.018631,1741839185.706186
0.00075,0.208,0.08775,0.00105275,-3.0500001e-05,-0.016418502,1741839185.720999
0.01675,0.183,0.0835,-0.0018005001,-0.00019825,-0.012252751,1741839185.7352781
0.015,0.175,0.07175,-0.00453175,-0.0003815,-0.0093385,1741839185.750939
-0.0025,0.172,0.0505,-0.00378425,-0.00035100002,-0.009887749,1741839185.764386
-0.00775,0.18175,0.05275,-6.1000002e-05,0.00067150005,-0.00941475,1741839185.780834
-0.01925,0.20925,0.06125,0.0012055,0.00059500005,-0.00788875,1741839185.793469
-0.028,0.225,0.0615,0.00093075,-0.00083925005,-0.0046845004,1741839185.8080919
-0.024,0.24325,0.06625,0.0002135,-0.00125125,-0.0043182503,1741839185.8226109
-0.01625,0.2395,0.066,-0.00068675,-0.0013275,-0.0048979996,1741839185.83741
-0.00225,0.23125,0.06475,-0.00267025,-0.00086975005,-0.0068969997,1741839185.8520992
-0.00025,0.236,0.06875,-0.003128,-0.00033575002,-0.007843,1741839185.866776
0.0025,0.24475,0.073,-0.0017242499,-0.0002595,-0.0090485,1741839185.881315
0.01375,0.2595,0.0795,-0.0012055,-0.00064075,-0.009613,1741839185.895906
0.017,0.263,0.07975,-0.00198375,0.00013725001,-0.0114135,1741839185.9104772
0.02175,0.2595,0.07625,-0.00267025,0.00102225,-0.013092,1741839185.924973
0.024,0.25725,0.07675,-0.0033875,0.0025940002,-0.01690675,1741839185.9409778
0.0265,0.24975,0.072,-0.00358575,0.0028687501,-0.0174865,1741839185.9540212
0.02375,0.252,0.06825,-0.0035704998,0.00204475,-0.016540501,1741839185.968499
0.0235,0.25975,0.0625,-0.00302125,0.0013427499,-0.01608275,1741839185.983179
0.02825,0.267,0.06475,-0.00267025,0.000534,-0.01890575,1741839185.997955
0.037,0.2865,0.07125,-0.0031127501,0.0003815,-0.023056,1741839186.0133069
0.04175,0.289,0.072,-0.00555425,0.00077825,-0.0342865,1741839186.0270662
0.044,0.275,0.073,-0.0075682504,0.0013427499,-0.038498,1741839186.041541
0.0455,0.2625,0.07,-0.009094249,0.00190725,-0.03948975,1741839186.056086
0.062,0.23475,0.056,-0.010024999,0.00115975,-0.031967252,1741839186.070965
0.06825,0.228,0.049,-0.010559,9.15e-05,-0.027130252,1741839186.085181
0.07025,0.22825,0.0425,-0.01251225,-0.00181575,-0.023803748,1741839186.100787
0.08175,0.23675,0.041,-0.013214,-0.002365,-0.0266875,1741839186.114511
0.08975,0.23875,0.04725,-0.012420749,-0.00292975,-0.039779752,1741839186.13128
0.0885,0.24625,0.05775,-0.0104065,-0.0027465,-0.046112,1741839186.143803
0.09025,0.23775,0.04825,-0.0073395,-0.0023497501,-0.047622748,1741839186.1583848
0.09775,0.21,0.03425,-0.008316,-0.0030975002,-0.04388425,1741839186.173109
0.10675,0.2035,0.0335,-0.012847999,-0.00570675,-0.035705503,1741839186.187668
0.12925,0.20375,0.031,-0.01490775,-0.0063477503,-0.033584498,1741839186.202283
0.1345,0.20225,0.03175,-0.017105,-0.00567625,-0.0358125,1741839186.2167711
0.14125,0.1905,0.03425,-0.016983,-0.00520325,-0.039276,1741839186.23138
0.14325,0.1885,0.0345,-0.013122501,-0.0050965,-0.04599,1741839186.245902
0.14375,0.18775,0.02525,-0.0103455,-0.0049285004,-0.04667675,1741839186.260575
0.14075,0.18475,0.01475,-0.010604749,-0.0052642496,-0.040863,1741839186.275139
0.15775,0.165,0.0135,-0.013488751,-0.0054475004,-0.0366515,1741839186.2912982
0.1735,0.15325,0.02375,-0.01564025,-0.0050965,-0.0338745,1741839186.3043861
0.1965,0.13375,0.03425,-0.01596075,-0.0047912505,-0.034057498,1741839186.3190248
0.202,0.12725,0.03375,-0.0154725,-0.004837,-0.03627025,1741839186.3336089
0.19925,0.124,0.0335,-0.014587499,-0.00488275,-0.04081725,1741839186.34828
0.195,0.124,0.023,-0.014099,-0.0050965,-0.041366503,1741839186.3630831
0.19675,0.121,0.016,-0.0155030005,-0.0061950004,-0.03854375,1741839186.377568
0.20525,0.1045,0.01625,-0.01681525,-0.00596625,-0.036422748,1741839186.392257
0.211,0.096,0.0215,-0.01791375,-0.00494375,-0.033996496,1741839186.4069061
0.218,0.08225,0.0185,-0.01693725,-0.00567625,-0.0329285,1741839186.4215832
0.22175,0.07375,0.01525,-0.01408375,-0.007965,-0.031356752,1741839186.436306
0.22475,0.0665,0.007,-0.01351925,-0.00862125,-0.03117375,1741839186.4509451
0.22325,0.06875,0.00225,-0.01156625,-0.0072937496,-0.03117375,1741839186.4654899
0.221,0.07275,0.01075,-0.011673001,-0.0067445002,-0.030075,1741839186.480785
0.22375,0.06925,0.025,-0.01193225,-0.00717175,-0.02690125,1741839186.495007
0.233,0.058,0.0305,-0.01042175,-0.0071409997,-0.024643,1741839186.509563
0.23825,0.057,0.02475,-0.00570675,-0.003952,-0.0219575,1741839186.524257
0.2405,0.05525,0.02,-0.00428775,-0.00239575,-0.02253725,1741839186.540242
0.2425,0.05275,0.02675,-0.00042725,0.00042725,-0.02787775,1741839186.553396
0.2415,0.04875,0.0285,0.00137325,0.0017242499,-0.0299225,1741839186.567838
0.24075,0.048,0.025,0.0026245,0.0032655,-0.0302735,1741839186.582392
0.2385,0.0415,0.0225,0.0045012496,0.008148249,-0.0264435,1741839186.5970519
0.22925,0.025,0.0205,0.00444025,0.01042175,-0.02388,1741839186.613652
0.22325,0.01125,0.0225,0.000885,0.01165775,-0.02070625,1741839186.625904
0.195,-0.04475,0.0235,-0.00193775,0.0115205,-0.018707251,1741839186.641311
0.16625,-0.08175,0.024,-0.008194,0.0113525,-0.0046234997,1741839186.655222
0.09925,-0.22225,0.00525,-0.011749251,0.009506251,0.01020825,1741839186.670866
0.084,-0.33775,0.017,-0.023407,0.00184625,0.056076,1741839186.684226
0.04025,-0.56575,0.03,-0.02522275,-0.002365,0.083664,1741839186.6987798
-0.02125,-0.5845,0.03975,-0.02124025,-0.000763,0.14208975,1741839186.714145
-0.07175,-0.392,0.11375,-0.018020751,-0.0028229998,0.16732775,1741839186.728085
-0.052,-0.29375,0.13075,0.009369001,-0.016739,0.191635,1741839186.7427819
-0.162,-0.096,0.12,0.031311,-0.0179595,0.1930085,1741839186.757356
-0.2335,0.10575,0.14175,0.051422,-0.0125275,0.1921235,1741839186.771992
-0.24675,0.6005,0.187,0.075653,0.0072785,0.17292775,1741839186.7864609
-0.2205,0.78875,0.18275,0.077407755,0.0161895,0.150467,1741839186.800944
-0.211,0.89375,0.15225,0.053466752,0.0235595,0.10148625,1741839186.815308
-0.164,0.86725,0.10325,0.035766497,0.019806,0.08120725,1741839186.831164
-0.1025,0.796,0.125,0.01690675,0.014510999,0.039611753,1741839186.844077
-0.084,0.6075,0.09725,0.013839751,0.013717749,0.020996,1741839186.858589
-0.07475,0.491,0.07825,0.0028074998,0.012115501,0.00198375,1741839186.873177
-0.00925,0.31325,0.07775,-0.0002595,0.012496999,-0.0018615,1741839186.887878
0.01225,0.25,0.07675,0.0013885,0.008941749,-0.009506251,1741839186.902434
0.04425,0.184,0.0795,-0.0005645,0.0062712496,-0.010498,1741839186.917075
0.04425,0.1755,0.0865,-0.0074615004,0.0068512503,-0.00830075,1741839186.931977
0.016,0.16375,0.07975,-0.008407501,0.0077210004,-0.0059967497,1741839186.946149
0.002,0.16875,0.068,-0.0075072497,0.0076142503,-0.0034637498,1741839186.960735
-0.01575,0.2045,0.05325,-0.00198375,0.00491325,-0.00177,1741839186.975261
-0.0155,0.22725,0.05275,0.00086975005,0.002884,-0.0028229998,1741839186.991174
-0.01225,0.24775,0.054,0.0016175,1.5250001e-05,-0.0062712496,1741839187.0041568
-0.00425,0.2795,0.07225,-0.0005645,-0.00035100002,-0.008407501,1741839187.020204
0.00125,0.2875,0.088,-0.0053252503,-0.00045775,-0.01077275,1741839187.0335622
0.02125,0.26825,0.1,-0.0068512503,-0.00042725,-0.0095672505,1741839187.048248
0.03025,0.25225,0.09625,-0.008270251,0.001068,-0.0068055,1741839187.063922
0.04275,0.23875,0.08175,-0.00782775,0.0018615,-0.00823975,1741839187.077149
0.0475,0.2395,0.0735,-0.0060577504,0.0020599999,-0.017578252,1741839187.091674
0.0635,0.254,0.07425,-0.00617975,0.0019989999,-0.024047751,1741839187.106164
0.06325,0.26325,0.08675,-0.00738525,0.0026245,-0.035903998,1741839187.120838
0.04275,0.24675,0.07675,-0.00662225,0.0023497501,-0.03762825,1741839187.135201
0.03625,0.22475,0.056,-0.0061645,0.0012970001,-0.035049498,1741839187.150579
0.0585,0.21325,0.0495,-0.008346501,-0.00112925,-0.023528999,1741839187.164455
0.07525,0.222,0.055,-0.0090485,-0.0012055,-0.019394,1741839187.180585
0.08575,0.22975,0.0585,-0.0090637505,0.00067150005,-0.020019501,1741839187.193693
0.09775,0.23775,0.06775,-0.0099945,0.0018615,-0.023040751,1741839187.208183
0.10275,0.243,0.07625,-0.0122985,0.00372325,-0.029571502,1741839187.222773
0.0915,0.2395,0.0755,-0.0116425,0.00408925,-0.031021,1741839187.23718
0.087,0.2195,0.06025,-0.008773751,0.0030669998,-0.02589425,1741839187.251659
0.09825,0.1905,0.0385,-0.0089875,0.0022125002,-0.02105725,1741839187.2661738
0.10625,0.19425,0.038,-0.00975025,0.001892,-0.0151215,1741839187.2810109
0.1175,0.2105,0.0415,-0.0088805,0.00201425,-0.01513675,1741839187.295192
0.1205,0.2175,0.0405,-0.0074920002,0.0023039998,-0.01953125,1741839187.309786
0.12425,0.2245,0.04,-0.0079345,0.0025634998,-0.022461,1741839187.3241842
0.125,0.22525,0.04125,-0.008606,0.00279225,-0.0251465,1741839187.340214
0.1225,0.21325,0.03875,-0.008941749,0.0026092501,-0.028,1741839187.35316
0.1245,0.2035,0.036,-0.00880425,0.0023039998,-0.027542,1741839187.3676648
0.13175,0.197,0.03325,-0.00903325,0.00096125,-0.024841249,1741839187.382167
0.14475,0.1935,0.0275,-0.00941475,0.0003205,-0.02388,1741839187.3967738
0.14825,0.19025,0.025,-0.009796251,0.0004425,-0.022934001,1741839187.411169
0.15675,0.1855,0.024,-0.00947575,0.001007,-0.02333075,1741839187.425739
0.15975,0.182,0.025,-0.00811775,0.0012055,-0.0265045,1741839187.441142
0.1615,0.175,0.02275,-0.00720225,0.000824,-0.02822875,1741839187.454867
0.16025,0.171,0.01675,-0.006302,-7.625e-05,-0.02940375,1741839187.4709198
0.16575,0.16875,0.014,-0.0068665,-0.0004425,-0.028854249,1741839187.484234
0.17125,0.1675,0.017,-0.0090485,-0.00109875,-0.02737425,1741839187.498772
0.17925,0.164,0.0185,-0.0104065,-0.001175,-0.026886,1741839187.513648
0.18225,0.167,0.0195,-0.011917,-0.00108325,-0.02677925,1741839187.527928
0.1895,0.162,0.0205,-0.01345825,-0.000763,-0.0279235,1741839187.5426729
0.195,0.15075,0.02,-0.01295475,-0.00086975005,-0.02920525,1741839187.55725
0.20075,0.1365,0.02025,-0.010803251,-0.001007,-0.032608002,1741839187.571882
0.208,0.119,0.0205,-0.009658749,-0.00070200005,-0.034317,1741839187.586475
0.2135,0.1155,0.02025,-0.0093995,0.00048825,-0.03707875,1741839187.601009
0.22475,0.10875,0.0175,-0.0104065,0.0015565,-0.0379945,1741839187.6155121
0.23375,0.107,0.01175,-0.0126495,0.005005,-0.0395965,1741839187.631068
0.236,0.0895,0.00925,-0.012436,0.0072937496,-0.0415345,1741839187.644462
0.22175,0.078,0.008,-0.006302,0.010238751,-0.04322825,1741839187.658993
0.214,0.058,-0.00225,-0.0028687501,0.0095672505,-0.04151925,1741839187.673578
0.2175,0.0485,-0.0095,-4.575e-05,0.0068055,-0.03562925,1741839187.688282
0.22425,0.0405,-0.023,-0.0003205,0.0066985004,-0.032486,1741839187.703007
0.22725,0.03475,-0.02,-0.0016785001,0.0084379995,-0.02674875,1741839187.71757
0.23475,0.01025,-0.0035,-0.0021819999,0.009369001,-0.024383498,1741839187.7322729
0.234,-0.00525,-0.002,-0.00201425,0.009597749,-0.020355249,1741839187.74689
0.21625,-0.03475,-0.01375,-0.0013427499,0.00897225,-0.01728825,1741839187.763536
0.1995,-0.0535,-0.01625,-0.00093075,0.00817875,-0.01257325,1741839187.776363
0.1415,-0.1395,-0.01725,-0.001648,0.00570675,0.00494375,1741839187.7913458
0.118,-0.2445,-0.03425,-0.0024414998,0.0032655,0.02142325,1741839187.805595
0.084,-0.372,-0.051,-0.00717175,-0.00131225,0.07351675,1741839187.820353
-0.01775,-0.5145,0.042,-0.010666001,-0.00239575,0.10702525,1741839187.835082
-0.001,-0.50475,0.1525,0.00320425,-0.0037385002,0.1635285,1741839187.8507788
0.0285,-0.3995,0.246,0.025512751,-0.0057677496,0.17401125,1741839187.8643782
-0.06175,-0.305,0.23175,0.06890875,-0.01165775,0.1812285,1741839187.8805928
-0.27625,0.037,0.241,0.079361,-0.012695249,0.187912,1741839187.8935199
-0.2945,0.26025,0.2675,0.077026255,0.00511175,0.18624875,1741839187.9078872
-0.34675,0.713,0.149,0.0730895,0.023056,0.1690215,1741839187.922406
-0.376,0.87275,0.05775,0.0562135,0.03259275,0.12289425,1741839187.9369369
-0.303,0.8855,0.03275,0.0421905,0.0241395,0.09977725,1741839187.95139
-0.27725,0.7965,0.04525,0.020446751,0.0114135,0.060135,1741839187.965814
-0.22,0.60225,0.055,0.014343251,0.008941749,0.043518003,1741839187.981146
-0.16925,0.50725,0.069,0.010437001,0.0072480002,0.028183,1741839187.994755
-0.12825,0.42125,0.081,0.00798025,0.0037995,0.0012665,1741839188.009129
-0.06775,0.3195,0.1075,0.0068055,0.0031127501,-0.00852975,1741839188.0238662
-0.046,0.30075,0.11875,0.00238025,0.0020905002,-0.01914975,1741839188.03849
-0.01075,0.23875,0.12575,0.00013725001,0.0009765,-0.020034749,1741839188.052997
0.006,0.1905,0.11875,-0.0019225,-0.00030525,-0.014145001,1741839188.067571
0.015,0.13875,0.107,-0.0021972498,0.00112925,-0.0102235,1741839188.0820968
0.00675,0.1545,0.09775,-0.00279225,0.0056,-0.005005,1741839188.0967748
-0.0145,0.21325,0.0815,-0.0032347501,0.00611875,-0.0047912505,1741839188.1137438
-0.0255,0.23525,0.0795,-0.00491325,0.0053709997,-0.00801075,1741839188.126184
-0.0575,0.275,0.0725,-0.0046539996,0.00514225,-0.010147001,1741839188.140913
-0.06625,0.28425,0.06225,-0.002884,0.002121,-0.0129395,1741839188.1555672
-0.05025,0.27275,0.0635,-0.002884,-0.00010675,-0.0143737495,1741839188.170916
-0.02925,0.25425,0.074,-0.00358575,-0.00070200005,-0.0184785,1741839188.1850061
0.01775,0.2215,0.09175,-0.0035704998,9.15e-05,-0.02095025,1741839188.200674
0.03,0.224,0.0945,-0.00428775,0.0012970001,-0.0234375,1741839188.214078
0.02125,0.254,0.095,-0.00862125,0.0049742498,-0.027984502,1741839188.2307572
0.00875,0.262,0.092,-0.01026925,0.0053252503,-0.029022248,1741839188.2431629
-0.00025,0.2585,0.08675,-0.010391249,0.0027160002,-0.02557375,1741839188.2578518
0.01175,0.2265,0.0665,-0.009079001,0.000946,-0.02186575,1741839188.272471
0.02375,0.22025,0.061,-0.0071409997,-0.00071725,-0.0182495,1741839188.287076
0.0415,0.22175,0.0615,-0.00637825,-0.00064075,-0.019470248,1741839188.301755
0.0485,0.22525,0.06375,-0.004303,0.00062550005,-0.025238002,1741839188.316263
0.05525,0.233,0.0635,-0.0040587503,0.00115975,-0.028183,1741839188.331164
0.056,0.2355,0.0625,-0.007843,0.00131225,-0.0302125,1741839188.3453782
0.05125,0.232,0.068,-0.009872501,0.0012665,-0.028366,1741839188.359869
0.05425,0.2245,0.06375,-0.00985725,0.00099175,-0.02015675,1741839188.374321
0.0685,0.22025,0.057,-0.009384249,0.0009765,-0.01652525,1741839188.3888671
0.077,0.2245,0.05775,-0.0088195,0.001419,-0.01567075,1741839188.4033349
0.09375,0.22825,0.05775,-0.00891125,0.0015565,-0.01805125,1741839188.417851
0.0995,0.23025,0.06125,-0.009613,0.0015565,-0.02149975,1741839188.432375
0.10225,0.22925,0.06475,-0.0106965,0.00175475,-0.027954001,1741839188.446896
0.0955,0.22275,0.061,-0.010086001,0.0018005001,-0.02931225,1741839188.463197
0.08975,0.22,0.0525,-0.00817875,0.00105275,-0.0272675,1741839188.475879
0.09375,0.22475,0.03475,-0.008499251,0.000229,-0.02525325,1741839188.4911501
0.09975,0.2285,0.035,-0.011123749,-0.001175,-0.0230865,1741839188.504971
0.1135,0.22175,0.036,-0.0117035,-0.00148,-0.02330025,1741839188.520865
0.12225,0.21625,0.0365,-0.01086425,-0.00108325,-0.02604675,1741839188.5342479
0.13625,0.204,0.035,-0.010162249,-0.0005035,-0.0280915,1741839188.550591
0.138,0.2,0.03475,-0.0102235,0.0002595,-0.03190625,1741839188.563628
0.13025,0.21125,0.03225,-0.010086001,0.00027475,-0.0326385,1741839188.577867
0.12875,0.214,0.02425,-0.008850001,-0.00108325,-0.03025825,1741839188.5924218
0.14075,0.211,0.01925,-0.009521499,-0.00184625,-0.02851875,1741839188.607035
0.1515,0.20625,0.0235,-0.010681249,-0.0020295,-0.02775575,1741839188.621759
0.16725,0.192,0.03325,-0.01165775,-0.001068,-0.03097525,1741839188.636377
0.17325,0.18175,0.036,-0.0113525,-0.00071725,-0.0345765,1741839188.6509702
0.179,0.1715,0.03425,-0.010162249,-0.00064075,-0.04312125,1741839188.6655612
0.18375,0.15625,0.027,-0.009842,-0.00083925005,-0.04644775,1741839188.6811001
0.18075,0.1525,0.02275,-0.0094604995,-0.001892,-0.0473175,1741839188.694805
0.1725,0.1575,0.0145,-0.00982675,-0.0026245,-0.044555753,1741839188.709397
0.182,0.15125,0.01525,-0.0122375,-0.00283825,-0.0360565,1741839188.724019
0.20475,0.1135,0.0195,-0.01316825,-0.0015565,-0.0329895,1741839188.7387252
0.20925,0.102,0.01925,-0.01272575,0.0015565,-0.03094475,1741839188.753201
0.224,0.10225,0.0155,-0.011856,0.002472,-0.03132625,1741839188.7676759
0.22725,0.10175,0.01325,-0.009781,0.00314325,-0.0347595,1741839188.782121
0.222,0.0935,0.00825,-0.009643501,0.00254825,-0.0366975,1741839188.796642
0.21825,0.087,0.01275,-0.0104674995,0.001709,-0.03768925,1741839188.811148
0.2205,0.063,0.02,-0.0093385,0.00239575,-0.036239497,1741839188.825826
0.22975,0.04725,0.01375,-0.0071409997,0.00352475,-0.034256,1741839188.841206
0.2365,0.04025,0.0015,-0.0040435,0.0067597497,-0.03190625,1741839188.854892
0.23625,0.04275,-0.0005,-0.00328075,0.00823975,-0.03205875,1741839188.870435
0.23625,0.04125,-0.00275,-0.00074775,0.00891125,-0.0353545,1741839188.8842912
0.22575,0.0405,-0.007,0.00105275,0.0080567505,-0.037674,1741839188.900612
0.21975,0.037,-0.00525,0.0062255003,0.00567625,-0.040145747,1741839188.913801
0.195,0.008,-0.00225,0.0090637505,0.004776,-0.0379945,1741839188.927878
0.1675,-0.03975,-0.013,0.0089569995,0.00444025,-0.0186615,1741839188.9424372
0.0785,-0.28325,-0.0755,0.0031889998,0.00416575,0.00169375,1741839188.9569879
0.053,-0.4515,-0.08275,-0.0101775,0.0021515,0.06150825,1741839188.971667
-0.03825,-0.7005,-0.00675,-0.009903,0.0003205,0.095047,1741839188.986358
-0.099,-0.71125,0.06325,0.009521499,-0.008377,0.15762325,1741839189.001081
-0.1805,-0.49975,0.1625,0.02796925,-0.017883249,0.179535,1741839189.0156531
-0.21325,-0.33375,0.21275,0.06365975,-0.032897998,0.205185,1741839189.031159
-0.2995,0.05925,0.29725,0.0712585,-0.035324,0.21328725,1741839189.044987
-0.35225,0.22275,0.306,0.0780335,-0.0257415,0.21286,1741839189.059516
-0.39125,0.75525,0.2475,0.0872345,-0.012985251,0.196518,1741839189.0740411
-0.371,0.9485,0.1865,0.09149175,-0.00520325,0.169815,1741839189.088524
-0.32575,1.0,0.17,0.052001998,-0.0044250004,0.116378754,1741839189.103286
-0.22875,0.8515,0.2145,0.0262145,0.00013725001,0.095047,1741839189.11776
-0.21975,0.73175,0.21625,0.0038757501,0.01083375,0.051528998,1741839189.132174
-0.2005,0.50525,0.169,0.0031889998,0.010513251,0.03227225,1741839189.146691
-0.15975,0.41225,0.14525,0.0072785,0.0074615004,0.0054932497,1741839189.161046
-0.07775,0.296,0.11925,0.00665275,0.008255,-0.0029755002,1741839189.175572
-0.046,0.25925,0.119,-0.00070200005,0.0072937496,-0.0135955,1741839189.19041
-0.03125,0.205,0.11525,-0.00393675,0.0053252503,-0.015808,1741839189.204999
-0.0345,0.1755,0.10825,-0.0058287503,0.00225825,-0.0124665005,1741839189.2209558
-0.02625,0.144,0.109,-0.00546275,0.00169375,-0.008606,1741839189.2343528
-0.02175,0.15225,0.11425,-0.0033722501,0.00093075,-0.0037537501,1741839189.250737
-0.02825,0.1925,0.11775,-0.00263975,0.00039675,-0.00364675,1741839189.2635431
-0.03875,0.21525,0.1145,-0.0028535,0.000183,-0.0044250004,1741839189.278164
-0.05625,0.24625,0.11175,-0.0053252503,0.0003815,-0.0075225,1741839189.292661
-0.06425,0.24725,0.11075,-0.0063325,0.00051875,-0.00962825,1741839189.307251
-0.06775,0.23625,0.10575,-0.0058899997,0.000534,-0.01127625,1741839189.32188
-0.049,0.238,0.10875,-0.0054780003,0.00070200005,-0.01127625,1741839189.33645
-0.0365,0.25,0.1145,-0.0058899997,0.00036625,-0.013503999,1741839189.350982
-0.008,0.26175,0.122,-0.0071409997,0.0004425,-0.01531975,1741839189.365474
0.00375,0.2645,0.1215,-0.0124665005,0.00302125,-0.021698,1741839189.381265
-0.002,0.26475,0.126,-0.01498425,0.00453175,-0.02595525,1741839189.394758
-0.012,0.252,0.1195,-0.014846751,0.00463875,-0.02822875,1741839189.409365
-0.01175,0.21725,0.0945,-0.013336251,0.00369275,-0.025589,1741839189.423965
-0.003,0.2185,0.0885,-0.0112,0.00254825,-0.020446751,1741839189.43856
0.0215,0.241,0.088,-0.010666001,0.0025634998,-0.020446751,1741839189.453269
0.035,0.25175,0.08925,-0.01165775,0.003891,-0.026702998,1741839189.467867
0.03875,0.27275,0.10175,-0.013626001,0.0050355,-0.031265248,1741839189.482353
0.03025,0.275,0.1015,-0.01513675,0.0061035,-0.03427125,1741839189.4969149
0.0245,0.25075,0.07925,-0.01560975,0.0061645,-0.0326995,1741839189.511347
0.0275,0.235,0.0685,-0.01576225,0.0053252503,-0.0299225,1741839189.525864
0.0375,0.22075,0.06125,-0.01678475,0.003952,-0.02449025,1741839189.541153
0.0635,0.21575,0.0585,-0.017028749,0.0040587503,-0.023620501,1741839189.55488
0.074,0.225,0.05675,-0.017028749,0.00541675,-0.027679501,1741839189.570791
0.08025,0.25275,0.06125,-0.0177155,0.006073,-0.032135,1741839189.5839622
0.076,0.261,0.06925,-0.01675425,0.0068512503,-0.040619,1741839189.598505
0.0625,0.24175,0.05575,-0.014068499,0.00640875,-0.042236254,1741839189.613819
0.06125,0.21525,0.03675,-0.0112305,0.0034637498,-0.037460253,1741839189.627744
0.08325,0.1865,0.01825,-0.01326,0.0020599999,-0.03297425,1741839189.642224
0.101,0.1905,0.02275,-0.01731875,0.00146475,-0.02793875,1741839189.6568892
0.1265,0.1965,0.03225,-0.0168915,0.00184625,-0.028656,1741839189.6713548
0.133,0.195,0.03275,-0.015854,0.0022735,-0.030853251,1741839189.6858518
0.12875,0.203,0.03175,-0.016327,0.0030669998,-0.036239497,1741839189.7008681
0.12375,0.208,0.0295,-0.01646425,0.00317375,-0.03778075,1741839189.714868
0.12425,0.20225,0.02025,-0.0141145,0.0015565,-0.0355835,1741839189.7312052
0.1305,0.18375,-0.0,-0.0142365,0.000473,-0.033035252,1741839189.743944
0.13925,0.1775,0.00025,-0.01756275,-0.0005035,-0.028534,1741839189.758626
0.1655,0.16825,0.01825,-0.018448,-0.0002595,-0.0280305,1741839189.7732391
0.17475,0.16075,0.02225,-0.017135499,0.000824,-0.032043498,1741839189.7878752
0.17725,0.1475,0.0125,-0.01661675,0.0009155,-0.035019003,1741839189.802388
0.17525,0.14625,0.00825,-0.017303498,-0.00062550005,-0.038208,1741839189.8169699
0.174,0.14375,0.00675,-0.017501751,-0.0019685,-0.03733825,1741839189.8316128
0.181,0.13975,0.0025,-0.016448999,-0.00390625,-0.032486,1741839189.846208
0.197,0.142,-0.00475,-0.015808,-0.0036010002,-0.030304002,1741839189.860946
0.202,0.14225,-0.006,-0.01425175,-0.00070200005,-0.029129,1741839189.875623
0.20675,0.137,-0.0115,-0.013427749,0.00071725,-0.03022775,1741839189.891148
0.21075,0.13075,-0.01025,-0.011627249,0.0020905002,-0.03509525,1741839189.904981
0.221,0.09575,-0.0055,-0.009887749,0.00231925,-0.03807075,1741839189.9206789
0.223,0.08025,-0.00675,-0.0076599997,0.0028074998,-0.040145747,1741839189.9342139
0.22375,0.07575,-0.0095,-0.0045777503,0.0051574996,-0.040069498,1741839189.950562
0.22525,0.09225,-0.02375,-0.0048979996,0.00621025,-0.038955748,1741839189.963402
0.22525,0.09275,-0.02175,-0.0072175004,0.008377,-0.036438,1741839189.977996
0.213,0.05775,-0.0215,-0.0075072497,0.010437001,-0.034408502,1741839189.9926012
0.20925,0.0315,-0.028,-0.00842275,0.0135955,-0.02790825,1741839190.007218
0.215,-0.0115,-0.0295,-0.0087585,0.013443,-0.024505502,1741839190.021934
0.21825,-0.026,-0.0295,-0.0056915004,0.010253999,-0.01965325,1741839190.0366652
0.201,-0.059,-0.03275,-0.00331125,0.00785825,-0.016570998,1741839190.051321
0.1755,-0.07175,-0.03075,-0.00157175,0.0042572496,-0.0028687501,1741839190.066025
0.10325,-0.1605,-0.0395,-0.0028074998,0.0023497501,0.010727,1741839190.081473
0.0705,-0.25625,-0.06025,-0.0101165,-0.00187675,0.058014,1741839190.095433
-0.01275,-0.43825,-0.0385,-0.012619001,-0.00267025,0.088653505,1741839190.110181
-0.032,-0.47925,0.058,-0.001236,-0.00738525,0.14570625,1741839190.125021
-0.0585,-0.432,0.226,0.012436,-0.0124665005,0.1646575,1741839190.140311
-0.11075,-0.3485,0.231,0.04644775,-0.02091975,0.18539426,1741839190.154304
-0.28275,-0.0465,0.19775,0.06536875,-0.02241525,0.1903075,1741839190.169046
-0.36475,0.15775,0.195,0.086181745,-0.014572251,0.19075,1741839190.1835232
-0.4035,0.611,0.134,0.08515925,-0.00903325,0.1842805,1741839190.1980522
-0.315,0.7765,0.1345,0.07925425,-0.0058135,0.17309575,1741839190.213551
-0.24675,0.86475,0.1445,0.06510925,0.00564575,0.12574776,1741839190.227093
-0.226,0.92325,0.149,0.05473325,0.01071175,0.097396754,1741839190.241459
-0.23575,0.9105,0.14025,0.02548225,0.02023325,0.05052175,1741839190.2559822
-0.21275,0.712,0.10575,0.01307675,0.020141501,0.0332795,1741839190.271209
-0.17475,0.56875,0.096,0.0044250004,0.02142325,0.00181575,1741839190.2851572
-0.10925,0.35325,0.0835,0.0048065,0.021636998,-0.011245751,1741839190.3006551
-0.08725,0.29675,0.079,0.001068,0.01560975,-0.0246125,1741839190.3141818
-0.03925,0.19,0.1025,-0.0027160002,0.010604749,-0.0249635,1741839190.3288739
-0.0125,0.1465,0.1085,-0.0060882503,0.0055085,-0.01490775,1741839190.343494
0.01175,0.13225,0.11175,-0.0061645,0.0063477503,-0.0090637505,1741839190.358015
0.00775,0.148,0.111,-0.003662,0.00593575,-0.0062712496,1741839190.37266
-0.02725,0.20375,0.089,-0.00251775,0.0050355,-0.008255,1741839190.387202
-0.0385,0.22975,0.08275,-0.00292975,0.00440975,-0.0104065,1741839190.4019158
-0.0445,0.2655,0.0865,-0.00668325,0.003769,-0.014800999,1741839190.416521
-0.046,0.26075,0.0875,-0.00785825,0.0030669998,-0.01708975,1741839190.4311528
-0.0485,0.2515,0.08175,-0.0073547503,0.00184625,-0.019699,1741839190.4457338
-0.03825,0.24,0.067,-0.006775,0.00146475,-0.0209655,1741839190.460345
-0.02375,0.23275,0.068,-0.0068207504,0.0003205,-0.024765,1741839190.474944
0.0045,0.2225,0.08075,-0.008346501,0.00013725001,-0.026397752,1741839190.490412
0.01025,0.222,0.089,-0.012207,0.00093075,-0.026535,1741839190.5039842
0.0275,0.2065,0.0965,-0.0125885,0.001526,-0.024383498,1741839190.518531
0.036,0.20175,0.09475,-0.0104065,0.00320425,-0.019455,1741839190.5331578
0.037,0.21925,0.0785,-0.0088195,0.004242,-0.018753,1741839190.5476532
0.03325,0.23525,0.0705,-0.0061339997,0.0045777503,-0.022354,1741839190.563668
0.0285,0.26725,0.064,-0.0052642496,0.0035704998,-0.026062,1741839190.576649
0.03025,0.28275,0.06675,-0.00579825,0.002121,-0.03474425,1741839190.5912662
0.0415,0.29175,0.07975,-0.0074920002,0.00154125,-0.037490748,1741839190.6056461
0.05125,0.27675,0.08625,-0.009017999,0.0013275,-0.0381165,1741839190.6202428
0.061,0.25875,0.08775,-0.00985725,0.0021819999,-0.0346375,1741839190.634719
0.06975,0.24475,0.06625,-0.00918575,0.0033875,-0.032226503,1741839190.650636
0.06875,0.24775,0.0555,-0.007965,0.0060425,-0.0288085,1741839190.663867
0.0715,0.2685,0.048,-0.0081025,0.0068969997,-0.02964775,1741839190.678345
0.07875,0.274,0.049,-0.009811499,0.00640875,-0.0375365,1741839190.692845
0.087,0.2645,0.06275,-0.0101775,0.0051269997,-0.04306025,1741839190.7073548
0.0855,0.2565,0.065,-0.0090485,0.0027312501,-0.047851503,1741839190.721803
0.0985,0.22175,0.05675,-0.00897225,0.00238025,-0.04435725,1741839190.7362912
0.10925,0.2035,0.04925,-0.013443,0.00328075,-0.03302,1741839190.750904
0.12725,0.19625,0.03825,-0.01690675,0.0041810004,-0.029739501,1741839190.7655091
0.1315,0.19625,0.0345,-0.019744748,0.00555425,-0.030014,1741839190.78091
0.142,0.198,0.035,-0.0196685,0.00621025,-0.032897998,1741839190.7945092
0.15,0.19725,0.03675,-0.01950075,0.0068969997,-0.03677375,1741839190.809031
0.15225,0.1935,0.037,-0.019470248,0.00764475,-0.043624748,1741839190.823516
0.1485,0.17925,0.028,-0.018859752,0.00717175,-0.0449065,1741839190.838038
0.1505,0.1655,0.02,-0.017120251,0.00585925,-0.044189498,1741839190.852704
0.151,0.139,0.00725,-0.017578252,0.005005,-0.0433045,1741839190.8672209
0.15525,0.13225,0.0035,-0.021026501,0.0023345,-0.0414735,1741839190.881693
0.16975,0.12575,0.0005,-0.022232,0.0013427499,-0.041808996,1741839190.8962638
0.177,0.11425,-0.001,-0.02026375,0.00090025004,-0.0470275,1741839190.9108338
0.202,0.09025,0.01325,-0.017929,0.00080875,-0.0505675,1741839190.925442
0.199,0.088,0.01325,-0.01498425,-0.0002135,-0.052673247,1741839190.940583
0.18975,0.0805,0.002,-0.014938249,-0.00036625,-0.0503845,1741839190.954767
0.18975,0.081,0.001,-0.0166015,0.0007325,-0.0440215,1741839190.970688
0.2065,0.07175,-0.001,-0.017212,0.0016785001,-0.041931253,1741839190.983835
0.2195,0.0455,0.0015,-0.01737975,0.0028074998,-0.0412445,1741839190.9983518
0.2395,0.0,0.00225,-0.013427749,0.006668,-0.041977,1741839191.0131469
0.24625,-0.0045,-0.00575,-0.009887749,0.0089569995,-0.04249575,1741839191.027519
0.25075,-0.001,-0.0145,-0.0059815003,0.011673001,-0.044860747,1741839191.042196
0.239,0.00275,-0.02025,-0.0062255003,0.01206975,-0.046737753,1741839191.056834
0.2265,-0.009,-0.018,-0.0075072497,0.01142875,-0.04606625,1741839191.07152
0.20725,-0.0565,-0.024,-0.0065002497,0.0110015,-0.0415345,1741839191.086208
0.20375,-0.0875,-0.0405,-0.00469975,0.010376001,-0.024932751,1741839191.100975
0.19275,-0.135,-0.04175,-0.0043182503,0.0102235,-0.016296498,1741839191.115888
0.166,-0.169,-0.0315,0.00062550005,0.00868225,0.000824,1741839191.1309052
0.11175,-0.33625,-0.04675,0.0050355,0.00708,0.0144805005,1741839191.144908
0.0865,-0.4525,-0.06775,0.010803251,0.0001525,0.05632025,1741839191.159424
-0.00275,-0.61375,-0.01625,0.011016751,-0.004837,0.084365755,1741839191.174138
-0.0695,-0.62225,0.04975,0.02085875,-0.0166015,0.146988,1741839191.188846
-0.2085,-0.402,0.1995,0.033264253,-0.021225,0.1764525,1741839191.203427
-0.23975,-0.1975,0.25475,0.06440725,-0.020172002,0.209488,1741839191.2181818
-0.2975,0.22175,0.25625,0.073410004,-0.01716625,0.2104035,1741839191.232906
-0.3035,0.423,0.24675,0.07475275,-0.003952,0.1917115,1741839191.247342
-0.28375,0.7735,0.142,0.0711975,0.0072632497,0.17640676,1741839191.263467
-0.2445,0.901,0.088,0.06390375,0.01823425,0.15567026,1741839191.276135
-0.1815,0.93825,0.077,0.048766997,0.025299,0.0927735,1741839191.290693
-0.12225,0.82275,0.0715,0.0363465,0.02238475,0.065628,1741839191.305059
-0.12675,0.736,0.0565,0.006073,0.018158002,0.038742002,1741839191.3209321
-0.06625,0.57275,0.06025,-0.00036625,0.017730748,0.02781675,1741839191.334035
-0.0335,0.48375,0.06525,-0.0012817499,0.01361075,0.0002595,1741839191.348543
0.0115,0.32275,0.0645,-0.0026245,0.010024999,-0.0101775,1741839191.363883
0.02575,0.27125,0.073,-0.009323,0.005249,-0.01905825,1741839191.3776581
0.033,0.176,0.06425,-0.010803251,0.003952,-0.018219,1741839191.392152
0.04025,0.13825,0.05075,-0.0075682504,0.003006,-0.0106355,1741839191.406765
0.04025,0.12775,0.03925,-0.0043944996,0.00331125,-0.00773625,1741839191.4213629
0.02975,0.15125,0.03475,-0.00105275,0.0036162501,-0.0070495,1741839191.4358468
0.02075,0.1765,0.0325,0.0025025,0.00225825,-0.009719751,1741839191.451045
0.007,0.22625,0.03825,0.0021057501,0.00096125,-0.010940501,1741839191.464746
0.005,0.24625,0.046,-0.00016775,-0.00169375,-0.0118407495,1741839191.481257
0.00425,0.26225,0.05075,-0.001236,-0.0025025,-0.0112,1741839191.493929
0.0065,0.2635,0.049,-0.00419625,-0.0031127501,-0.00874325,1741839191.5085702
0.019,0.2715,0.05025,-0.0052795,-0.0028687501,-0.008590749,1741839191.523241
0.0285,0.27375,0.0505,-0.0065917503,-0.00228875,-0.012176501,1741839191.537832
0.05475,0.25875,0.063,-0.00738525,-0.00216675,-0.01513675,1741839191.5524192
0.06325,0.25175,0.06925,-0.010238751,-0.00137325,-0.01985175,1741839191.5670269
0.051,0.2575,0.0625,-0.011901749,-0.0012207499,-0.02053825,1741839191.581592
0.053,0.251,0.05475,-0.012619001,-0.0021057501,-0.017883249,1741839191.596242
0.052,0.2505,0.03425,-0.011901749,-0.0020295,-0.0170745,1741839191.610795
0.0495,0.25375,0.028,-0.012375,-0.0013580001,-0.01719675,1741839191.625419
0.06525,0.247,0.03375,-0.0128785,-0.0008545,-0.017883249,1741839191.641067
0.075,0.23875,0.03175,-0.0128785,-0.00033575002,-0.019577,1741839191.6547441
0.07525,0.23825,0.0335,-0.0135955,0.00016775,-0.0249635,1741839191.670698
0.0715,0.2395,0.033,-0.013321,0.000122000005,-0.02616875,1741839191.683726
0.07025,0.24075,0.02625,-0.0106965,-0.00062550005,-0.023178,1741839191.698304
0.07575,0.25075,0.014,-0.01071175,-0.0013427499,-0.02139275,1741839191.713761
0.078,0.25325,0.01325,-0.013503999,-0.0022735,-0.0204925,1741839191.727618
0.0885,0.2585,0.019,-0.01490775,-0.00225825,-0.0214385,1741839191.7421591
0.09975,0.25725,0.0275,-0.0158845,-0.0012970001,-0.026596,1741839191.756935
0.11775,0.22775,0.03425,-0.015396,-0.000122000005,-0.029739501,1741839191.771578
0.1165,0.21525,0.02525,-0.01490775,0.001953,-0.033203,1741839191.7861152
0.11075,0.2145,0.00575,-0.0153807495,0.00157175,-0.033370998,1741839191.800782
0.11225,0.21475,0.0005,-0.0160065,-0.00065625,-0.0316315,1741839191.8153222
0.12525,0.2025,-0.0045,-0.01622,-0.00115975,-0.030777,1741839191.83104
0.13325,0.202,-0.0045,-0.016845752,-0.00093075,-0.03230275,1741839191.844736
0.14975,0.1945,0.0005,-0.01675425,-0.00062550005,-0.0346375,1741839191.859326
0.15375,0.18925,0.00275,-0.01637275,0.00045775,-0.0390625,1741839191.8738592
0.158,0.1725,-0.00375,-0.01658625,0.00108325,-0.040145747,1741839191.888531
0.15875,0.16375,-0.01125,-0.017425502,0.0012207499,-0.040664747,1741839191.903229
0.1555,0.16025,-0.019,-0.019226,-0.00019825,-0.0403595,1741839191.9179142
0.1555,0.153,-0.037,-0.01918025,-0.0012665,-0.038955748,1741839191.932651
0.1635,0.14875,-0.04025,-0.018280001,-0.002472,-0.036560003,1741839191.947343
0.188,0.14075,-0.029,-0.01725775,-0.002472,-0.0375825,1741839191.963728
0.1965,0.1375,-0.02475,-0.01368725,-0.0017395001,-0.044632,1741839191.9768279
0.2015,0.12925,-0.0275,-0.012909001,-0.001648,-0.049408,1741839191.991487
0.203,0.119,-0.02725,-0.013336251,-0.0025025,-0.05747975,1741839192.006335
0.18875,0.10125,-0.03925,-0.01295475,-0.0033722501,-0.059494,1741839192.021023
0.187,0.0895,-0.04375,-0.01004025,-0.0060425,-0.057861254,1741839192.035827
0.19925,0.052,-0.04425,-0.0075225,-0.00631725,-0.05574025,1741839192.050936
0.20375,0.0425,-0.048,-0.0060425,-0.0056,-0.052383497,1741839192.065175
0.22,0.03025,-0.0395,-0.0068055,-0.0055085,-0.051925752,1741839192.0811672
0.22525,0.01775,-0.035,-0.00469975,-0.00535575,-0.053222753,1741839192.0947342
0.2295,-0.00475,-0.03075,-0.0034637498,-0.00494375,-0.05340575,1741839192.10948
0.23075,-0.00875,-0.03125,-0.00555425,-0.003952,-0.05068975,1741839192.1242712
0.2275,-0.02475,-0.02225,-0.008514499,-0.0034637498,-0.047607496,1741839192.140566
0.2295,-0.058,-0.01425,-0.01330575,-0.0009155,-0.03677375,1741839192.153824
0.21475,-0.139,-0.00325,-0.013854999,0.000824,-0.02993775,1741839192.1685178
0.18475,-0.197,0.009,-0.01605225,0.00399775,-0.005249,1741839192.183129
0.12,-0.419,0.037,-0.019744748,0.0067902496,0.01652525,1741839192.197803
0.09625,-0.608,0.03575,-0.024826,0.0129395,0.0758515,1741839192.2137458
0.008,-0.91075,0.074,-0.01811225,0.0110015,0.108184755,1741839192.2267148
-0.10125,-0.8705,0.0875,-0.00320425,0.00364675,0.13848875,1741839192.241306
-0.23725,-0.72,0.06675,0.025177,-0.021453751,0.1945495,1741839192.255957
-0.49425,-0.29425,0.049,0.03221125,-0.031372,0.21894826,1741839192.271152
-0.60675,-0.03425,0.06475,0.050293,-0.0372925,0.244995,1741839192.28531
-0.626,0.4685,0.15625,0.06318675,-0.03509525,0.240387,1741839192.30075
-0.574,0.64475,0.1825,0.081726,-0.021606501,0.2040405,1741839192.3146381
-0.44375,0.94475,0.197,0.07374575,-0.0112915,0.1852265,1741839192.331373
-0.3295,1.0,0.21775,0.04119875,0.009643501,0.12950125,1741839192.343571
-0.12,0.9975,0.20125,0.030578502,0.015335,0.09051525,1741839192.3580968
-0.08175,0.8995,0.17825,0.010559,0.01779175,0.018707251,1741839192.372585
-0.06125,0.52425,0.15075,0.00358575,0.01940925,-0.00505075,1741839192.387229
-0.05825,0.382,0.115,0.002365,0.018631,-0.02886975,1741839192.401728
-0.01875,0.23525,0.05075,0.0012817499,0.013733,-0.03123475,1741839192.416302
0.01225,0.17775,0.05375,-0.0060882503,0.0077667497,-0.024780251,1741839192.431319
0.04275,0.1015,0.064,-0.00846875,0.008636501,-0.01896675,1741839192.44544
0.042,0.093,0.06275,-0.008850001,0.010086001,-0.013488751,1741839192.460088
0.0325,0.098,0.05575,-0.0048674997,0.0110625,-0.00694275,1741839192.474717
0.006,0.148,0.045,-0.002411,0.0102845,-0.0056,1741839192.489195
-0.0045,0.18325,0.04725,0.00036625,0.00773625,-0.0055085,1741839192.503849
-0.01775,0.235,0.04675,0.00033575002,0.0059815003,-0.00617975,1741839192.518292
-0.01625,0.2515,0.0515,-0.0028074998,0.00276175,-0.0070647504,1741839192.532962
-0.009,0.266,0.07275,-0.004486,0.0025025,-0.00717175,1741839192.547557
-0.0035,0.26225,0.07875,-0.0038299998,0.0032655,-0.0066985004,1741839192.5638988
0.00775,0.27125,0.073,-0.00320425,0.00317375,-0.0070037497,1741839192.576803
0.0165,0.2835,0.07575,-0.00367725,0.00251775,-0.011123749,1741839192.591479
0.02925,0.3015,0.085,-0.0041810004,0.0024872501,-0.0151215,1741839192.605909
0.03025,0.30075,0.08425,-0.00773625,0.00308225,-0.024078252,1741839192.6210518
0.02825,0.28825,0.0765,-0.0104065,0.0032655,-0.02763375,1741839192.635031
0.02225,0.27575,0.076,-0.013214,0.0031889998,-0.030014,1741839192.650879
0.033,0.22925,0.0695,-0.01260375,0.0035095,-0.02763375,1741839192.664051
0.044,0.2245,0.0645,-0.011749251,0.00399775,-0.02474975,1741839192.678489
0.05075,0.2305,0.05975,-0.0112305,0.0044707498,-0.023193251,1741839192.693165
0.0565,0.2465,0.052,-0.01150525,0.00381475,-0.024765,1741839192.707716
0.062,0.25025,0.04525,-0.013626001,0.00154125,-0.03129575,1741839192.722291
0.068,0.2565,0.051,-0.01519775,0.0007935,-0.03515625,1741839192.736801
0.067,0.26025,0.05725,-0.01368725,-0.00010675,-0.040039003,1741839192.751393
0.0615,0.2495,0.0415,-0.01062,-0.00033575002,-0.03993225,1741839192.765986
0.0655,0.22925,0.02675,-0.0073395,-0.00099175,-0.03562925,1741839192.780977
0.089,0.208,0.0155,-0.009094249,-0.0016785001,-0.0335235,1741839192.7953181
0.10175,0.20675,0.01925,-0.012436,-0.0025025,-0.032943748,1741839192.809815
0.12325,0.207,0.03525,-0.011825499,-0.0022277501,-0.03462225,1741839192.824394
0.1315,0.21625,0.04625,-0.008636501,-0.001114,-0.040664747,1741839192.839047
0.13275,0.2095,0.0455,-0.0064239996,-0.000122000005,-0.043624748,1741839192.8537312
0.123,0.18375,0.0275,-0.007019,0.00148,-0.042099,1741839192.8683221
0.12775,0.14825,0.00425,-0.010666001,0.0017242499,-0.03701775,1741839192.882852
0.1425,0.14725,0.00475,-0.0133667495,0.0018005001,-0.031662002,1741839192.897454
0.15775,0.15275,0.011,-0.012756251,0.002121,-0.026397752,1741839192.913486
0.17725,0.177,0.024,-0.0114440005,0.00251775,-0.0272065,1741839192.92643
0.181,0.18125,0.02725,-0.01054375,0.0034637498,-0.03262325,1741839192.941207
0.18375,0.162,0.02725,-0.0106355,0.00390625,-0.034973253,1741839192.955723
0.18275,0.1495,0.02225,-0.0100555,0.0043335,-0.03578175,1741839192.9708748
0.1825,0.1255,0.00225,-0.00968925,0.00413525,-0.03364575,1741839192.984797
0.187,0.11875,-0.0065,-0.011612001,0.003952,-0.02708425,1741839193.000632
0.20075,0.1275,-0.00675,-0.0135345,0.004013,-0.0248565,1741839193.014272
0.20725,0.138,-0.00325,-0.014557,0.003769,-0.02598575,1741839193.030899
0.21775,0.14875,0.001,-0.013839751,0.0033264998,-0.02893075,1741839193.0434382
0.22,0.14525,0.00125,-0.014663749,0.00302125,-0.036132753,1741839193.0579998
0.20125,0.12275,-0.008,-0.016235251,0.00254825,-0.03819275,1741839193.0726888
0.20575,0.1175,-0.009,-0.016632,0.0016632499,-0.03752125,1741839193.087326
0.2095,0.08825,-0.01575,-0.015579251,0.00115975,-0.036239497,1741839193.102032
0.214,0.0775,-0.01575,-0.01531975,0.00024425,-0.03494275,1741839193.1167529
0.2265,0.06225,0.00225,-0.0162505,-0.0003205,-0.03453075,1741839193.131532
0.23225,0.054,0.00825,-0.015457249,0.00033575002,-0.03610225,1741839193.145819
0.234,0.0475,0.0035,-0.0114135,0.0024872501,-0.041626,1741839193.160365
0.22675,0.03575,-0.01675,-0.01083375,0.0032347501,-0.043716498,1741839193.1749709
0.225,0.02375,-0.02275,-0.011825499,0.0041810004,-0.04403675,1741839193.190583
0.229,0.01275,-0.023,-0.0112915,0.00453175,-0.043747,1741839193.204198
0.226,0.00675,-0.0215,-0.0057220003,0.0036315,-0.04641725,1741839193.220216
0.20675,-0.03075,-0.02525,-0.0013885,0.00181575,-0.047805753,1741839193.233591
0.1965,-0.0775,-0.0315,0.0017395001,-0.0033875,-0.04158025,1741839193.248307
0.15775,-0.2175,0.00275,-0.00242625,-0.0043182503,-0.0308685,1741839193.263637
0.13325,-0.31525,0.03875,-0.01289375,0.00083925005,0.0089569995,1741839193.277607
0.0935,-0.56475,0.07675,-0.013275251,0.00469975,0.035400502,1741839193.292334
0.0565,-0.645,0.0925,3.0500001e-05,0.0058135,0.0953675,1741839193.306869
-0.08275,-0.611,0.11375,0.008545,0.00378425,0.129364,1741839193.321467
-0.1765,-0.5005,0.087,0.0217285,0.000534,0.19700626,1741839193.335941
-0.3875,-0.1825,0.03775,0.031540003,-0.002411,0.223114,1741839193.350917
-0.45375,-0.01775,0.08975,0.045868002,-0.00611875,0.23999025,1741839193.365431
-0.45475,0.39125,0.28375,0.080017,-0.0047912505,0.23663326,1741839193.3808582
-0.42825,0.625,0.2945,0.087051496,0.00672925,0.21817026,1741839193.394606
-0.38925,0.844,0.22,0.0696105,0.0301055,0.16189575,1741839193.4090471
-0.13675,1.0,0.0935,0.0588685,0.026062,0.12065125,1741839193.423402
-0.04875,0.977,0.0995,0.028305,0.01361075,0.0453185,1741839193.437925
-0.05575,0.66025,0.09575,0.01582325,0.0197295,0.024582,1741839193.4524622
-0.076,0.5265,0.07175,0.013778751,0.023528999,-0.00283825,1741839193.466914
-0.0595,0.388,0.024,0.011886501,0.017807,-0.01020825,1741839193.481583
-0.02675,0.336,0.019,0.00096125,0.012146,-0.01469425,1741839193.496104
0.019,0.244,0.03225,-0.002777,0.01156625,-0.01576225,1741839193.510592
0.018,0.20375,0.03175,-0.00488275,0.008209251,-0.01640325,1741839193.5252218
0.00225,0.14,0.04225,-0.00460825,0.0070952503,-0.013839751,1741839193.5412512
-0.0025,0.13,0.0455,-0.0033570002,0.00665275,-0.009552,1741839193.554377
0.0005,0.16675,0.0505,-0.001419,0.005005,-0.00062550005,1741839193.5689018
0.007,0.1955,0.0575,-0.001419,0.00340275,0.0018005001,1741839193.583472
0.01025,0.22175,0.0625,-0.0009765,0.0015105,0.00068675,1741839193.598124
0.00225,0.254,0.06475,-0.0003815,0.0009155,-0.001648,1741839193.614104
0.002,0.2625,0.0645,0.00027475,-0.000122000005,-0.0048979996,1741839193.6272929
0.01925,0.277,0.0725,-0.00035100002,-1.5250001e-05,-0.0059510004,1741839193.64192
0.0275,0.27675,0.07975,-0.0022277501,-3.0500001e-05,-0.010101249,1741839193.656595
0.03325,0.28025,0.088,-0.0034484998,-9.15e-05,-0.012909001,1741839193.6712909
0.033,0.28225,0.0855,-0.007553,0.00148,-0.017395,1741839193.685827
0.03125,0.27,0.0645,-0.0090485,0.00245675,-0.018859752,1741839193.700992
0.0305,0.25275,0.05725,-0.009262,0.00187675,-0.0206145,1741839193.714821
0.03925,0.22725,0.05725,-0.008727999,0.00148,-0.020401,1741839193.731101
0.044,0.228,0.05725,-0.0070952503,0.0017852499,-0.01911925,1741839193.743927
0.05125,0.24,0.052,-0.0065307496,0.0018615,-0.01876825,1741839193.758375
0.0545,0.24775,0.0475,-0.00672925,0.0020295,-0.01896675,1741839193.7728782
0.065,0.264,0.04425,-0.00868225,0.00225825,-0.02224725,1741839193.787384
0.06675,0.27025,0.0435,-0.010314999,0.002121,-0.02545175,1741839193.801889
0.0585,0.28,0.0425,-0.0149535,0.0021972498,-0.0306855,1741839193.816488
0.047,0.27975,0.03075,-0.016021749,0.001175,-0.03012075,1741839193.831349
0.0575,0.2635,0.0275,-0.017303498,-0.0013580001,-0.02500925,1741839193.845521
0.0925,0.2355,0.04125,-0.01766975,-0.00148,-0.0237885,1741839193.86013
0.106,0.229,0.04725,-0.016113251,6.1000002e-05,-0.02661125,1741839193.874687
0.114,0.23175,0.0375,-0.0153807495,0.0005035,-0.02948,1741839193.890501
0.1115,0.235,0.033,-0.01628125,0.00105275,-0.03456125,1741839193.9038458
0.10575,0.22125,0.03175,-0.0155030005,0.0014037499,-0.035339247,1741839193.918509
0.10475,0.20825,0.021,-0.01127625,0.0013580001,-0.0335235,1741839193.933008
0.1155,0.20175,0.005,-0.01071175,0.00080875,-0.03221125,1741839193.947458
0.1255,0.198,0.00625,-0.01121525,1.5250001e-05,-0.03141775,1741839193.963558
0.138,0.18175,0.009,-0.012176501,-0.0013427499,-0.03189075,1741839193.976683
0.141,0.176,0.006,-0.011856,-0.00190725,-0.03256225,1741839193.991387
0.14275,0.17325,0.00225,-0.01210025,-0.0028229998,-0.03306575,1741839194.006206
0.1465,0.17075,0.004,-0.013351499,-0.0028535,-0.032394502,1741839194.0208352
0.15225,0.1705,0.01,-0.014145001,-0.00190725,-0.03005975,1741839194.035485
0.16575,0.1835,0.0095,-0.013275251,-0.0008545,-0.029739501,1741839194.05089
0.16975,0.192,0.0055,-0.013290499,0.0009765,-0.032226503,1741839194.064807
0.17425,0.18475,0.003,-0.014358499,0.00090025004,-0.03453075,1741839194.081106
0.174,0.166,-0.00325,-0.015747,-0.00137325,-0.039169252,1741839194.094111
0.183,0.1335,-0.00675,-0.01570125,-0.0026854998,-0.04072575,1741839194.10879
0.19375,0.1245,-0.0005,-0.01475525,-0.00267025,-0.042861998,1741839194.123491
0.197,0.1235,0.002,-0.0143737495,-0.0013885,-0.043869,1741839194.138113
0.189,0.12375,-0.007,-0.01396175,0.0001525,-0.042831503,1741839194.15279
0.18975,0.1125,-0.02725,-0.014800999,9.15e-05,-0.040863,1741839194.167402
0.19575,0.10775,-0.02675,-0.017135499,0.00036625,-0.0392915,1741839194.182028
0.20775,0.07825,-0.02025,-0.01731875,0.00036625,-0.0401765,1741839194.1966321
0.2185,0.05825,-0.015,-0.01570125,-0.0012817499,-0.04167175,1741839194.211301
0.23025,0.0305,-0.01275,-0.01460275,-0.00137325,-0.041504003,1741839194.225971
0.22275,0.029,-0.0035,-0.013412501,-0.00074775,-0.0404815,1741839194.241109
0.225,0.023,-0.0065,-0.004776,-0.00068675,-0.0346985,1741839194.255401
0.24225,0.01925,-0.01725,-0.00048825,-0.0016632499,-0.03132625,1741839194.270914
0.26325,0.008,-0.00475,0.00077825,-0.0009765,-0.029846251,1741839194.284817
0.26,-0.0125,0.0045,0.00065625,0.00083925005,-0.03123475,1741839194.300577
0.242,-0.0625,0.00975,0.0042725,0.00514225,-0.0282745,1741839194.314085
0.23025,-0.10175,-0.00225,0.008941749,0.0064850003,-0.019806,1741839194.328804
0.2435,-0.10075,-0.01225,0.00292975,0.008194,-0.0072480002,1741839194.34348
0.1945,-0.28525,0.01275,-0.004837,0.010803251,-0.000122000005,1741839194.358189
0.1295,-0.41725,0.01925,-0.0115967505,0.017501751,0.042755,1741839194.372792
0.064,-0.61,0.0205,-0.0074004997,0.01896675,0.079971254,1741839194.3873
0.087,-0.6105,0.03025,0.01930225,0.013427749,0.148468,1741839194.4018161
-0.09,-0.47825,0.03825,0.03686525,0.010666001,0.16897576,1741839194.416528
-0.2645,-0.3485,0.0315,0.0668335,0.0070342496,0.20022576,1741839194.431489
-0.5265,0.0155,0.0655,0.078598,0.00175475,0.212616,1741839194.4457788
-0.53225,0.245,0.122,0.0966035,-0.0076905,0.20655824,1741839194.4602938
-0.3275,0.74175,0.281,0.1004945,-0.0027312501,0.17999275,1741839194.4748218
-0.221,0.94175,0.30525,0.074462995,0.020401,0.10891725,1741839194.489485
-0.1495,1.0,0.21475,0.0433045,0.027740499,0.0785065,1741839194.503928
-0.13375,0.878,0.1625,0.01390075,0.028778,0.05305475,1741839194.518316
-0.0955,0.6885,0.1215,-0.0080415,0.02006525,0.01652525,1741839194.5328472
-0.02875,0.4355,0.04925,-0.0052947504,0.015289251,0.003296,1741839194.547512
-0.00975,0.37925,0.03025,-0.002411,0.0102235,-0.014648501,1741839194.564157
0.0135,0.285,0.01025,-0.004303,0.00991825,-0.019577,1741839194.576797
0.01425,0.22925,0.00625,-0.00494375,0.008148249,-0.01905825,1741839194.5915031
0.031,0.155,0.03125,-0.0020295,0.00587475,-0.013549751,1741839194.605841
0.048,0.1505,0.041,0.0049285004,0.0011445,-0.00314325,1741839194.620651
0.03675,0.172,0.04875,0.0064239996,4.575e-05,-0.00112925,1741839194.6348338
0.02,0.1895,0.0475,0.0058287503,-0.000763,0.00016775,1741839194.650742
0.00125,0.2285,0.04175,0.0051880004,-0.0012665,-0.000122000005,1741839194.6638021
0.001,0.24575,0.04025,0.00372325,-0.0030365,-0.004837,1741839194.6784818
0.0045,0.27175,0.05375,0.0032195,-0.00381475,-0.008133001,1741839194.6929438
0.0105,0.27275,0.05775,0.0033722501,-0.004303,-0.01091,1741839194.707454
0.01875,0.26575,0.0605,0.0036315,-0.00437925,-0.012634249,1741839194.722155
0.02875,0.25375,0.06325,0.00334175,-0.003891,-0.012267999,1741839194.736665
0.031,0.2525,0.064,0.00175475,-0.00289925,-0.0124665005,1741839194.7511868
0.0425,0.25675,0.067,0.00061025,-0.0028074998,-0.013382,1741839194.7657542
0.04925,0.26,0.0675,-0.00225825,-0.0025940002,-0.017212,1741839194.78092
0.057,0.2555,0.069,-0.003952,-0.002243,-0.019439751,1741839194.79507
0.0585,0.25225,0.07075,-0.0055847503,-0.0016175,-0.0223235,1741839194.8097038
0.065,0.24975,0.0705,-0.0049742498,-0.0013275,-0.022995,1741839194.8243148
0.06775,0.24675,0.0675,-0.0013427499,-0.0012207499,-0.02563475,1741839194.8389928
0.06725,0.24225,0.05825,0.00019825,-0.00148,-0.0274505,1741839194.8534532
0.06875,0.24175,0.0555,-0.00083925005,-0.00149525,-0.029129,1741839194.868298
0.0815,0.24225,0.0585,-0.00267025,-0.0012055,-0.028778,1741839194.8829188
0.0855,0.24375,0.0585,-0.0055847503,-0.00030525,-0.028183,1741839194.897493
0.08325,0.25,0.06025,-0.006363,0.00029,-0.028183,1741839194.913378
0.08225,0.255,0.058,-0.0059205,0.0008545,-0.028244,1741839194.926464
0.0885,0.257,0.05075,-0.0030365,0.0013885,-0.028778,1741839194.941066
0.0945,0.254,0.052,-0.0019685,0.00105275,-0.02996825,1741839194.9556952
0.10225,0.2475,0.056,-0.0009155,-0.0001525,-0.0342865,1741839194.9707038
0.1175,0.22525,0.05925,-0.00057975,-0.0004425,-0.03657525,1741839194.984888
0.12275,0.2165,0.05725,-0.0022277501,6.1000002e-05,-0.0395965,1741839195.000633
0.1315,0.20525,0.05025,-0.0047912505,0.00077825,-0.040328998,1741839195.013876
0.1325,0.19825,0.04675,-0.010513251,0.00157175,-0.041366503,1741839195.028455
0.134,0.17375,0.03925,-0.012405501,0.00105275,-0.041275002,1741839195.042973
0.141,0.16425,0.03775,-0.01454175,1.5250001e-05,-0.03866575,1741839195.057451
0.157,0.1705,0.037,-0.0150605,0.00051875,-0.037384,1741839195.072024
0.16175,0.17975,0.0375,-0.0151825,0.0018615,-0.037674,1741839195.086466
0.16875,0.1735,0.04025,-0.0148315,0.00190725,-0.03910825,1741839195.1010072
0.1725,0.15375,0.039,-0.01402275,0.00149525,-0.040802,1741839195.115468
0.17975,0.11175,0.02875,-0.011306751,-9.15e-05,-0.041916,1741839195.131205
0.185,0.10575,0.02125,-0.010314999,-0.00048825,-0.040664747,1741839195.1448
0.1905,0.10875,0.01725,-0.01156625,0.00027475,-0.03692625,1741839195.159341
0.2015,0.114,0.0255,-0.012267999,0.0011445,-0.035888746,1741839195.1739268
0.204,0.11325,0.0285,-0.010894749,0.002411,-0.0365905,1741839195.18848
0.2065,0.0935,0.01875,-0.0099945,0.00239575,-0.03712475,1741839195.202998
0.2095,0.07975,0.01525,-0.008514499,0.00177,-0.035736,1741839195.2174468
0.222,0.064,0.0185,-0.0072785,0.001831,-0.033996496,1741839195.231967
0.226,0.06825,0.0195,-0.00593575,0.00358575,-0.0308685,1741839195.2464588
0.2355,0.067,0.02075,-0.00697325,0.00453175,-0.02958675,1741839195.2609081
0.245,0.05675,0.02675,-0.00918575,0.0062712496,-0.027649,1741839195.27541
0.2415,0.027,0.03025,-0.0088805,0.007431,-0.026886,1741839195.291098
0.232,0.0045,0.0225,-0.00868225,0.008270251,-0.025085501,1741839195.3043818
0.21425,-0.05075,0.0,-0.0112915,0.0080415,-0.0150605,1741839195.3189828
0.2055,-0.0825,-0.00725,-0.014495751,0.0077972496,-0.006302,1741839195.333725
0.19075,-0.12225,-0.009,-0.023758,0.00862125,0.0195465,1741839195.3482502
0.1105,-0.24175,-0.0205,-0.027359,0.008606,0.03840625,1741839195.363893
0.058,-0.32325,-0.04475,-0.035766497,0.0045625,0.0964965,1741839195.377569
-0.0355,-0.408,-0.05925,-0.0402985,0.00181575,0.1310425,1741839195.39238
-0.07075,-0.3765,-0.04875,-0.02796925,-0.0046234997,0.1897125,1741839195.407306
-0.062,-0.288,0.01575,-0.00535575,-0.0070037497,0.20785525,1741839195.4219751
-0.065,-0.23875,0.09425,0.05641175,0.003006,0.21281426,1741839195.4364538
-0.22075,-0.008,0.2305,0.07789601,0.011673001,0.20550525,1741839195.4510028
-0.302,0.17125,0.27075,0.082641505,0.02278125,0.1841125,1741839195.465406
-0.38925,0.5605,0.2695,0.07507325,0.0266265,0.16647325,1741839195.481112
-0.4025,0.74725,0.24425,0.0507355,0.02911375,0.1109315,1741839195.494358
-0.378,0.85325,0.17,0.03474425,0.02259825,0.081253,1741839195.508825
-0.35675,0.74225,0.11575,0.017654499,0.013733,0.05720525,1741839195.523328
-0.29875,0.51725,0.0685,-7.625e-05,0.0014037499,0.01882925,1741839195.538037
-0.25275,0.47125,0.05925,-0.00029,-0.00029,0.00317375,1741839195.5526779
-0.20575,0.44225,0.05325,0.00051875,0.001236,-0.01991275,1741839195.567293
-0.1255,0.34025,0.06125,-0.00263975,0.0010375,-0.02433775,1741839195.581919
-0.0885,0.28575,0.07675,-0.00770575,-0.0004425,-0.022369498,1741839195.596601
-0.043,0.23275,0.098,-0.00611875,-0.00042725,-0.02079775,1741839195.611261
-0.0335,0.2255,0.09725,-0.0021819999,0.00059500005,-0.019195499,1741839195.6259499
-0.02125,0.221,0.0995,-0.00204475,0.0008545,-0.018692,1741839195.641381
-0.022,0.22275,0.0925,-0.00355525,0.0029145,-0.02085875,1741839195.6553018
-0.03875,0.225,0.0785,-0.0045777503,0.0046234997,-0.023834249,1741839195.670944
-0.04975,0.222,0.07725,-0.0057372497,0.0045165,-0.027237,1741839195.684674
-0.04925,0.20075,0.067,-0.004837,0.00231925,-0.0254975,1741839195.700757
-0.03625,0.201,0.05975,-0.00148,-0.001236,-0.01982125,1741839195.7139761
-0.009,0.22625,0.05675,-0.00051875,-0.0009765,-0.0186615,1741839195.728697
-0.007,0.237,0.05775,-0.00137325,0.001419,-0.02082825,1741839195.7434502
-0.01425,0.24425,0.0615,-0.003128,0.0024414998,-0.0233155,1741839195.758112
-0.01575,0.2435,0.06625,-0.00637825,0.0028535,-0.026825001,1741839195.772754
-0.01,0.22775,0.0725,-0.0063934997,0.002243,-0.02581775,1741839195.787473
-0.002,0.21925,0.073,-0.0036010002,0.001068,-0.0187835,1741839195.8021061
0.02125,0.2225,0.076,-0.0025787498,0.001526,-0.014419501,1741839195.816609
0.0255,0.23675,0.07475,-0.00245675,0.00276175,-0.0114744995,1741839195.8310962
0.027,0.25125,0.07125,-0.0031889998,0.006012,-0.0122375,1741839195.845579
0.0255,0.2665,0.064,-0.00364675,0.00770575,-0.014938249,1741839195.860111
0.02175,0.27,0.05925,-0.00372325,0.0110625,-0.021606501,1741839195.874527
0.01125,0.273,0.0525,-0.00289925,0.013031,-0.02456675,1741839195.8890922
0.0145,0.2695,0.05925,-0.00198375,0.01498425,-0.026535,1741839195.903662
0.034,0.26275,0.06325,-0.003006,0.012741,-0.02563475,1741839195.918349
0.0395,0.267,0.0575,-0.0064545004,0.0051574996,-0.0245515,1741839195.932908
0.05375,0.266,0.0595,-0.0075682504,0.0036162501,-0.0254975,1741839195.947619
0.06325,0.25825,0.062,-0.009094249,0.0056609996,-0.029296748,1741839195.963542
0.072,0.23525,0.051,-0.009842,0.0071409997,-0.03152475,1741839195.976656
0.07475,0.2235,0.0455,-0.011673001,0.00662225,-0.034911998,1741839195.9911191
0.07925,0.2115,0.04625,-0.0109709995,0.00570675,-0.035476748,1741839196.0056489
0.086,0.20625,0.0435,-0.008926501,0.00505075,-0.034652747,1741839196.020281
0.09375,0.20275,0.03675,-0.0059815003,0.00369275,-0.029693501,1741839196.0348978
0.10175,0.213,0.0275,-0.0057220003,0.0033264998,-0.02760325,1741839196.05055
0.10825,0.22125,0.03125,-0.00546275,0.00367725,-0.028137252,1741839196.063891
0.12575,0.2235,0.0435,-0.005066,0.0039215,-0.03067025,1741839196.078336
0.12875,0.2195,0.043,-0.004303,0.002884,-0.037796002,1741839196.092897
0.12525,0.205,0.0315,-0.0043639997,0.001526,-0.040619,1741839196.107425
0.1225,0.1985,0.0245,-0.0066985004,-0.00143425,-0.0407715,1741839196.121993
0.12875,0.2,0.02175,-0.009201,-0.002121,-0.038269002,1741839196.136576
0.13825,0.203,0.0235,-0.01326,-0.001526,-0.034011748,1741839196.1511512
0.1555,0.19875,0.02575,-0.013778751,-0.0009765,-0.03445425,1741839196.165793
0.16325,0.18875,0.028,-0.012619001,-0.00146475,-0.039978,1741839196.180776
0.17975,0.16225,0.03425,-0.010742251,-0.0021972498,-0.043518003,1741839196.195007
0.1835,0.15575,0.03175,-0.00794975,-0.002121,-0.046997003,1741839196.209579
0.17675,0.15525,0.01825,-0.00292975,0.00033575002,-0.05255125,1741839196.2240992
0.17375,0.14725,0.01075,-0.0028535,0.0005035,-0.0526275,1741839196.238795
0.1755,0.134,0.0065,-0.00839225,-0.00093075,-0.046203498,1741839196.25346
0.194,0.11175,0.01325,-0.0115205,-0.0007935,-0.042037997,1741839196.26809
0.213,0.103,0.0235,-0.0115815,0.00328075,-0.0394745,1741839196.282615
0.23075,0.061,0.03225,-0.00794975,0.0058287503,-0.04148875,1741839196.297098
0.22075,0.04375,0.021,0.0009765,0.00694275,-0.043975748,1741839196.313081
0.20825,0.059,0.0025,0.00308225,0.0059815003,-0.04281625,1741839196.3260732
0.2125,0.0645,0.0055,0.00328075,0.0061645,-0.03904725,1741839196.3413959
0.215,0.03,0.00475,0.0025634998,0.0073242504,-0.036789,1741839196.355007
0.20825,-0.0035,-0.005,-0.00352475,0.008514499,-0.027435249,1741839196.3706932
0.18725,-0.05825,-0.01425,-0.008285499,0.0081635,-0.0194855,1741839196.3846772
0.1625,-0.1055,-0.02025,-0.016448999,0.0050812503,0.0057220003,1741839196.400685
0.08375,-0.28,-0.03525,-0.021286,0.00328075,0.02674875,1741839196.414161
0.04875,-0.38325,-0.0385,-0.03189075,0.00149525,0.091033995,1741839196.4288
0.021,-0.50275,0.01175,-0.03771975,0.0012817499,0.13137825,1741839196.443321
0.0485,-0.44875,0.0705,-0.037857,0.00325,0.16862476,1741839196.457867
0.0485,-0.36225,0.12375,0.001114,0.014800999,0.20632926,1741839196.472312
-0.05425,-0.1925,0.16725,0.0308685,0.025085501,0.2095795,1741839196.487
-0.111,-0.101,0.1985,0.08070375,0.046463,0.20219424,1741839196.501591
-0.29225,0.26625,0.25075,0.0897675,0.056808498,0.19073476,1741839196.5160651
-0.38375,0.5325,0.24875,0.076355,0.0557555,0.1553955,1741839196.5307782
-0.414,0.91875,0.16925,0.06198125,0.04158025,0.13108826,1741839196.544986
-0.42325,0.924,0.1015,0.032318,0.016693002,0.058288503,1741839196.559422
-0.3945,0.729,0.0335,0.01997375,0.01086425,0.031188998,1741839196.573982
-0.3205,0.635,0.0475,0.0030975002,0.0032655,0.002243,1741839196.5885708
-0.14075,0.4595,0.07425,-0.0012207499,-0.0002595,-0.00903325,1741839196.603347
-0.09875,0.38175,0.0615,-0.0065765,0.0033264998,-0.02401725,1741839196.618003
-0.051,0.26075,0.0475,-0.0089875,0.00535575,-0.023681749,1741839196.632771
-0.0195,0.2175,0.06375,-0.0106355,0.0050812503,-0.012252751,1741839196.647428
0.02725,0.16325,0.074,-0.01019275,0.00511175,-0.00823975,1741839196.663851
0.025,0.1535,0.06675,-0.0091705,0.0056609996,-0.0055237496,1741839196.676461
0.01175,0.15325,0.0555,-0.006363,0.0035095,-0.0019685,1741839196.691276
-0.033,0.177,0.0295,-0.00416575,0.00175475,-0.002365,1741839196.7056892
-0.05025,0.194,0.02725,-0.0002595,0.001587,-0.00505075,1741839196.72101
-0.0505,0.21875,0.0415,0.0,0.0019225,-0.0062255003,1741839196.734882
-0.044,0.22475,0.0465,-0.00102225,0.00048825,-0.00903325,1741839196.7508779
-0.029,0.23025,0.05175,-0.001007,-0.000824,-0.0104065,1741839196.764517
-0.019,0.23475,0.05575,-0.0005035,-0.00175475,-0.011306751,1741839196.7795699
-0.00025,0.25,0.0645,-0.0005645,-0.0015565,-0.01142875,1741839196.793904
0.00675,0.2545,0.068,-0.0013427499,-0.001114,-0.013031,1741839196.808395
0.0155,0.24925,0.07,-0.0020599999,-0.00059500005,-0.014160249,1741839196.8230588
0.01525,0.24225,0.066,-0.004013,0.0008545,-0.01498425,1741839196.8375628
0.0075,0.234,0.052,-0.0048674997,0.00115975,-0.014282251,1741839196.8520389
0.00125,0.2345,0.048,-0.0048979996,0.00054925,-0.01239025,1741839196.866716
-0.00675,0.2415,0.041,-0.004242,0.000183,-0.011139,1741839196.881354
-0.00575,0.25425,0.043,-0.003662,-4.575e-05,-0.010086001,1741839196.895992
-0.00475,0.28425,0.04825,-0.00358575,0.0002135,-0.01036075,1741839196.910698
-0.004,0.289,0.04925,-0.0038605002,0.0003205,-0.011795,1741839196.925279
-0.00125,0.28975,0.04925,-0.0043182503,0.0002135,-0.016159,1741839196.941043
0.0085,0.29125,0.05025,-0.0049895,9.15e-05,-0.018707251,1741839196.9543629
0.013,0.287,0.05025,-0.00720225,0.000183,-0.024231002,1741839196.969007
0.02275,0.2795,0.04775,-0.008209251,0.0003815,-0.02664175,1741839196.983587
0.02725,0.27675,0.0435,-0.009017999,0.001007,-0.02864075,1741839196.9980721
0.03725,0.27425,0.03575,-0.0090637505,0.00119025,-0.029220501,1741839197.013438
0.04425,0.27275,0.03375,-0.009155249,0.0021515,-0.030914249,1741839197.027231
0.0585,0.264,0.031,-0.00912475,0.0025634998,-0.0321655,1741839197.041781
0.06475,0.26,0.0315,-0.00930775,0.00187675,-0.03530875,1741839197.056334
0.07775,0.24325,0.03175,-0.01004025,0.0003205,-0.036911,1741839197.071069
0.07925,0.23225,0.02775,-0.0143737495,-0.00611875,-0.039169252,1741839197.08579
0.08325,0.221,0.01775,-0.017181499,-0.0099639995,-0.039245497,1741839197.1007612
0.092,0.218,0.017,-0.01927175,-0.014618,-0.03886425,1741839197.1151822
0.1055,0.21825,0.01675,-0.0188445,-0.015289251,-0.038681,1741839197.131073
0.1085,0.2205,0.014,-0.018341,-0.015625,-0.03842175,1741839197.144446
0.113,0.22375,0.0085,-0.017151,-0.016418502,-0.038742002,1741839197.159151
0.1175,0.22275,0.00675,-0.015854,-0.016723748,-0.03970325,1741839197.173774
0.1215,0.2215,0.004,-0.0101165,-0.0136565,-0.0432435,1741839197.1885922
0.12725,0.21125,0.00025,-0.006302,-0.009262,-0.0454255,1741839197.2031481
0.13025,0.20825,-0.0015,-0.0062712496,-0.0047607496,-0.046936,1741839197.217757
0.13375,0.192,-0.0075,-0.00918575,-0.0052795,-0.04553225,1741839197.232724
0.1415,0.177,-0.00525,-0.012267999,-0.006607,-0.04173275,1741839197.2476149
0.163,0.156,0.00525,-0.01150525,-0.00611875,-0.040664747,1741839197.2633832
0.17575,0.15625,0.01075,-0.00889575,-0.0039825,-0.04216,1741839197.276757
0.18775,0.161,0.017,-0.0076599997,-0.0033875,-0.044555753,1741839197.291344
0.18825,0.15575,0.01775,-0.0043182503,-0.0028535,-0.04853825,1741839197.30598
0.186,0.13625,0.01325,-0.003662,-0.0029145,-0.0490265,1741839197.320739
0.19,0.12325,0.01225,-0.00596625,-0.0023039998,-0.0473175,1741839197.3351538
0.20425,0.10475,0.0155,-0.007309,-0.00143425,-0.04666125,1741839197.35061
0.2095,0.0985,0.014,-0.00643925,0.000183,-0.048141498,1741839197.364366
0.21225,0.07625,0.00575,-0.00419625,0.0003815,-0.0494385,1741839197.380832
0.21275,0.06375,0.001,0.0001525,0.000122000005,-0.05024725,1741839197.393253
0.21075,0.04575,-0.00725,0.001007,1.5250001e-05,-0.049179003,1741839197.407819
0.211,0.04175,-0.0085,0.001175,-0.000412,-0.04736325,1741839197.422368
0.215,0.0345,-0.004,0.0014495,-0.0026854998,-0.04359425,1741839197.4369678
0.227,-0.00525,0.017,0.001648,-0.0034942501,-0.041824248,1741839197.451846
0.227,-0.03,0.02725,-0.00109875,-0.0019685,-0.035873502,1741839197.4664488
0.20375,-0.095,0.04375,-0.0052795,-3.0500001e-05,-0.030487,1741839197.481174
0.1645,-0.15475,0.05325,-0.0227355,0.0048065,-0.0068207504,1741839197.4957929
0.0545,-0.40525,0.08225,-0.033691503,0.0066374997,0.016570998,1741839197.5104861
0.016,-0.62125,0.08075,-0.049286,0.008133001,0.0929565,1741839197.525086
0.00375,-0.88325,0.12775,-0.04837025,0.01150525,0.13883975,1741839197.541043
-0.04175,-0.812,0.13975,-0.017578252,0.024810748,0.2102965,1741839197.554286
-0.22675,-0.41,0.10775,0.0055085,0.029876752,0.22705075,1741839197.568792
-0.363,-0.1755,0.093,0.0575715,0.03382875,0.231964,1741839197.5833778
-0.515,0.31425,0.1495,0.0809785,0.03288275,0.226181,1741839197.5978
-0.509,0.58575,0.1905,0.09750375,0.03132625,0.19293201,1741839197.613861
-0.44175,1.0,0.17475,0.08099375,0.028015248,0.16558826,1741839197.6266282
-0.4255,1.0,0.1225,0.05426025,0.0218505,0.13253775,1741839197.641533
-0.40625,1.0,0.07275,0.01013175,0.011917,0.072342,1741839197.655456
-0.2995,0.75325,0.019,-0.0009155,0.009521499,0.05018625,1741839197.6704051
-0.23475,0.60675,0.01225,-0.009277251,0.01020825,0.0216675,1741839197.6847491
-0.1335,0.35225,0.004,-0.0110932505,0.013382,0.0114135,1741839197.700639
-0.09375,0.2645,-0.0065,-0.009872501,0.013854999,-0.00242625,1741839197.7142122
-0.05075,0.19475,0.01175,-0.0070495,0.0125275,-0.0067902496,1741839197.728794
-0.0275,0.192,0.0385,-0.003891,0.01197825,-0.008255,1741839197.743364
0.01275,0.19225,0.08725,-0.0032347501,0.0129700005,-0.006363,1741839197.757849
0.02025,0.18975,0.1015,-0.0028229998,0.01402275,-0.0033722501,1741839197.772347
0.004,0.1985,0.094,-0.003006,0.012985251,-0.00320425,1741839197.78685
-0.01075,0.21025,0.0795,-0.0033722501,0.008224499,-0.0049285004,1741839197.801569
-0.05325,0.23225,0.03275,-0.0032195,0.0047455,-0.007309,1741839197.816149
-0.0665,0.237,0.01825,-0.00302125,-0.0002595,-0.012985251,1741839197.831092
-0.05475,0.2385,0.0165,-0.0034637498,-0.001114,-0.01542675,1741839197.845464
-0.04425,0.234,0.02175,-0.003891,-0.000946,-0.01808175,1741839197.860246
-0.03775,0.2295,0.0325,-0.00308225,0.0004425,-0.02230825,1741839197.874843
-0.03475,0.236,0.03425,-0.0020599999,0.00024425,-0.021164,1741839197.891264
-0.022,0.23825,0.03425,-0.00190725,-0.00115975,-0.014938249,1741839197.904274
0.006,0.24075,0.04325,-0.0026854998,-0.001236,-0.014038,1741839197.9204109
0.00775,0.24525,0.0445,-0.0039825,-0.00064075,-0.016570998,1741839197.933451
-0.0005,0.25775,0.041,-0.0043639997,-0.00039675,-0.0183715,1741839197.948148
-0.00075,0.26225,0.0445,-0.00399775,-7.625e-05,-0.020782499,1741839197.963184
0.00925,0.253,0.05075,-0.0028535,0.00033575002,-0.02064525,1741839197.977338
0.014,0.25425,0.05175,-0.00019825,0.00090025004,-0.0179595,1741839197.991827
0.016,0.28975,0.0465,0.0002595,0.0012970001,-0.017883249,1741839198.006325
0.01475,0.29975,0.04275,-0.00108325,0.00148,-0.0219575,1741839198.020926
0.01625,0.2925,0.037,-0.00201425,0.00108325,-0.024826,1741839198.0354502
0.022,0.289,0.0355,-0.0024414998,6.1000002e-05,-0.031952,1741839198.0507689
0.03275,0.2925,0.0365,-0.0021057501,-0.000122000005,-0.03627025,1741839198.064785
0.027,0.29275,0.0345,-0.00343325,-0.00109875,-0.0450745,1741839198.080974
0.032,0.2965,0.02975,-0.00538625,-0.0019225,-0.04756175,1741839198.093974
0.045,0.28775,0.0295,-0.0072480002,-0.0017852499,-0.04812625,1741839198.108646
0.058,0.27275,0.03225,-0.01065075,-0.00051875,-0.04885875,1741839198.1232488
0.0735,0.23975,0.0335,-0.012176501,-0.00119025,-0.04945375,1741839198.137878
0.07875,0.2255,0.028,-0.01408375,-0.0021515,-0.04907225,1741839198.152441
0.096,0.21225,0.02,-0.01431275,-0.00204475,-0.04881275,1741839198.1671538
0.10025,0.20725,0.0195,-0.014800999,-0.0037079998,-0.0497285,1741839198.1817641
0.11025,0.1985,0.01575,-0.015396,-0.0051269997,-0.05036925,1741839198.196464
0.11775,0.19775,0.01325,-0.017425502,-0.0075682504,-0.051025502,1741839198.211093
0.132,0.19375,0.0085,-0.018692,-0.008926501,-0.050598253,1741839198.225711
0.14375,0.186,0.01025,-0.01899725,-0.011184749,-0.0477295,1741839198.24139
0.16675,0.1615,0.02025,-0.0183715,-0.0116425,-0.045944247,1741839198.254866
0.1735,0.14675,0.025,-0.017395,-0.0105742505,-0.0415345,1741839198.270522
0.1905,0.12725,0.0255,-0.016876249,-0.009582501,-0.03872675,1741839198.284142
0.19775,0.1245,0.02325,-0.014648501,-0.0069274995,-0.033493,1741839198.2986581
0.20325,0.129,0.02075,-0.01361075,-0.0052642496,-0.031952,1741839198.313445
0.2025,0.1315,0.018,-0.013000499,-0.0036162501,-0.03129575,1741839198.3278232
0.2,0.12275,0.012,-0.01316825,-0.00146475,-0.030716,1741839198.342446
0.203,0.11325,0.012,-0.014038,-0.00090025004,-0.0299225,1741839198.357208
0.20975,0.10325,0.0125,-0.01496875,0.00068675,-0.0272065,1741839198.371756
0.21425,0.09575,0.00425,-0.01390075,0.00160225,-0.02607725,1741839198.386413
0.2105,0.097,-0.00125,-0.011398249,0.00239575,-0.025238002,1741839198.4011252
0.21775,0.091,-0.00275,-0.011123749,0.0024414998,-0.02548225,1741839198.4158
0.222,0.08375,-0.00375,-0.01065075,0.00242625,-0.027404752,1741839198.4309728
0.2245,0.085,-0.01175,-0.01048275,0.001953,-0.027984502,1741839198.444917
0.22675,0.08925,-0.0155,-0.010803251,0.00198375,-0.026184,1741839198.459401
0.23,0.0895,-0.01725,-0.0110932505,0.0032347501,-0.0246735,1741839198.474127
0.23175,0.086,-0.0175,-0.01289375,0.0062255003,-0.023040751,1741839198.4887302
0.2295,0.06325,-0.0165,-0.014663749,0.00738525,-0.022643998,1741839198.5035672
0.2225,0.0445,-0.0225,-0.018920999,0.009017999,-0.01921075,1741839198.5181282
0.18,-0.0275,-0.02975,-0.02095025,0.00912475,-0.01412975,1741839198.532753
0.153,-0.0785,-0.018,-0.02766425,0.0077515002,0.009155249,1741839198.5473511
0.10825,-0.227,0.016,-0.03114325,0.0075225,0.0291595,1741839198.563828
0.091,-0.3595,0.04275,-0.033615,0.00801075,0.053329498,1741839198.576371
0.072,-0.685,0.09575,-0.031036502,0.0087585,0.1095275,1741839198.591265
0.053,-0.717,0.13475,-0.02171325,0.0089875,0.1380005,1741839198.605512
-0.00775,-0.657,0.163,0.02034,0.0066374997,0.17271425,1741839198.6203709
-0.1695,-0.379,0.176,0.046997003,0.00567625,0.17869575,1741839198.634777
-0.28125,-0.148,0.177,0.090942495,0.0139465,0.18928525,1741839198.650712
-0.40575,0.56425,0.22325,0.0986785,0.02127075,0.19235225,1741839198.664031
-0.418,0.86325,0.2,0.080536,0.029358,0.16255175,1741839198.678325
-0.39775,1.0,0.11125,0.05859375,0.02534475,0.13536075,1741839198.69293
-0.35075,1.0,0.06275,0.01965325,0.013931249,0.081390254,1741839198.707336
-0.24875,0.81975,0.0025,0.009781,0.012420749,0.055618253,1741839198.721803
-0.20625,0.6635,-0.01175,-0.00064075,0.010147001,0.01525875,1741839198.7363698
-0.13,0.399,-0.032,-0.0045165,0.0102845,0.0049285004,1741839198.751041
-0.1,0.32775,-0.01725,-0.00631725,0.015396,-0.0022125002,1741839198.765698
-0.07275,0.23375,0.02325,-0.0047302498,0.015686,-0.0049895,1741839198.780781
-0.043,0.1935,0.034,-0.0037079998,0.014068499,-0.00741575,1741839198.7951329
0.00075,0.1445,0.059,-0.00325,0.011688249,-0.0037385002,1741839198.8097348
-0.00325,0.1435,0.0675,-0.0032347501,0.0110932505,0.0013275,1741839198.8244019
-0.0155,0.15175,0.06925,-0.0029755002,0.008255,0.0068512503,1741839198.83905
-0.04925,0.16325,0.05625,-0.002472,0.0067445002,0.0059205,1741839198.853615
-0.06325,0.17875,0.043,-0.0005035,0.0033570002,-0.00090025004,1741839198.868136
-0.08,0.21875,0.0235,0.00119025,0.00169375,-0.004547,1741839198.882632
-0.07975,0.2275,0.02,0.00245675,-0.0018615,-0.009384249,1741839198.897239
-0.061,0.23125,0.02625,0.0016175,-0.00263975,-0.011078,1741839198.913907
-0.05075,0.22825,0.0325,-6.1000002e-05,-0.00115975,-0.01324475,1741839198.9264169
-0.03425,0.2305,0.04625,-0.00019825,6.1000002e-05,-0.01368725,1741839198.941192
-0.029,0.239,0.05,0.0003815,0.00108325,-0.0152435,1741839198.955742
-0.0175,0.26625,0.0575,0.000534,0.0013275,-0.01716625,1741839198.9708958
-0.015,0.27425,0.059,-0.0003205,0.00137325,-0.02323925,1741839198.98495
-0.02175,0.28475,0.05075,-0.0010375,0.00065625,-0.026184,1741839199.0008361
-0.02475,0.28825,0.04225,-0.00331125,-0.00160225,-0.0295105,1741839199.014435
-0.01775,0.2705,0.03875,-0.0045012496,-0.0020752498,-0.029174749,1741839199.031011
-0.00725,0.25725,0.03825,-0.0048674997,-0.0029755002,-0.02363575,1741839199.044235
0.0115,0.248,0.03425,-0.00384525,-0.00276175,-0.01988225,1741839199.058785
0.02025,0.25575,0.0375,-0.0030365,-0.0017852499,-0.0173645,1741839199.073334
0.02725,0.2625,0.0435,-0.0030669998,0.0001525,-0.017730748,1741839199.0877361
0.03325,0.26825,0.04675,-0.0035704998,0.0003815,-0.01988225,1741839199.1022458
0.03325,0.2655,0.04475,-0.0054015,6.1000002e-05,-0.024780251,1741839199.116746
0.03875,0.24025,0.039,-0.0062712496,-0.0002595,-0.0260315,1741839199.13131
0.045,0.21875,0.03525,-0.0070647504,-0.000946,-0.022766002,1741839199.145918
0.0565,0.19425,0.02775,-0.007019,-0.000946,-0.0184785,1741839199.16061
0.058,0.1975,0.0245,-0.0061645,0.00013725001,-0.0119630005,1741839199.175058
0.05775,0.21075,0.02425,-0.0056,0.00071725,-0.011245751,1741839199.1906402
0.0575,0.21225,0.024,-0.0042725,0.000412,-0.0128632495,1741839199.204242
0.054,0.21675,0.02025,-0.003418,-7.625e-05,-0.013916001,1741839199.2188249
0.0565,0.21575,0.02125,-0.002411,-0.0013275,-0.01396175,1741839199.233454
0.06475,0.2105,0.025,-0.002243,-0.0020295,-0.012985251,1741839199.248148
0.067,0.21325,0.02725,-0.0019989999,-0.00213625,-0.009887749,1741839199.263356
0.0725,0.223,0.03075,-0.0019989999,-0.0018005001,-0.00817875,1741839199.27741
0.0715,0.2265,0.02875,-0.0020752498,-0.0013275,-0.0070342496,1741839199.2921011
0.06875,0.2295,0.0255,-0.00193775,-0.00062550005,-0.00637825,1741839199.306846
0.06625,0.236,0.018,-0.00160225,-0.00090025004,-0.0065765,1741839199.321454
0.0665,0.24175,0.01625,-0.0007325,-0.002533,-0.008224499,1741839199.336166
0.07075,0.2535,0.017,-0.00067150005,-0.00334175,-0.009277251,1741839199.350903
0.0745,0.25575,0.01975,-0.0017852499,-0.00384525,-0.011749251,1741839199.365414
0.07975,0.25475,0.02225,-0.00228875,-0.0037079998,-0.012985251,1741839199.3810802
0.0795,0.2535,0.02,-0.0027312501,-0.0032347501,-0.01501475,1741839199.394652
0.08025,0.2475,0.01775,-0.00302125,-0.0037079998,-0.0159455,1741839199.40929
0.0825,0.24475,0.017,-0.00381475,-0.0054780003,-0.0177155,1741839199.424025
0.09375,0.25075,0.01975,-0.0043182503,-0.00590525,-0.01876825,1741839199.438647
0.1,0.25525,0.02275,-0.0057525,-0.00567625,-0.022812,1741839199.45355
0.106,0.24925,0.0245,-0.006775,-0.00564575,-0.025466999,1741839199.468161
0.111,0.24325,0.028,-0.007843,-0.00579825,-0.029601999,1741839199.4828181
0.11975,0.2255,0.02675,-0.0069580004,-0.005844,-0.030548,1741839199.497371
0.12025,0.2175,0.02175,-0.0055847503,-0.00611875,-0.030838,1741839199.513663
0.1255,0.20475,0.01625,-0.0058287503,-0.00617975,-0.030578502,1741839199.526704
0.12825,0.19575,0.01675,-0.0075225,-0.0059205,-0.029144252,1741839199.541346
0.146,0.174,0.02,-0.0078125,-0.0054780003,-0.02734375,1741839199.556004
0.1535,0.16625,0.021,-0.0077667497,-0.00466925,-0.0251465,1741839199.570955
0.163,0.16,0.02775,-0.007782,-0.0025634998,-0.0215455,1741839199.585448
0.1655,0.161,0.02975,-0.00764475,-0.0017852499,-0.02015675,1741839199.600744
0.1665,0.1625,0.02875,-0.0068665,-0.00105275,-0.017105,1741839199.6148028
0.165,0.16,0.018,-0.00643925,-0.00080875,-0.015304499,1741839199.6311748
