acc_x,acc_y,acc_z,gyro_x,gyro_y,gyro_z,timestamp
-0.03625,-0.03225,0.24825,-0.00115975,0.00036625,-0.00010675,1742093881.474823
-0.03825,-0.0335,0.24425,-0.001068,9.15e-05,-0.00045775,1742093881.489277
-0.03825,-0.03375,0.24225,-0.00057975,-0.00013725001,-0.00115975,1742093881.5038779
-0.0345,-0.03375,0.24325,-0.00057975,-0.000183,-0.0012817499,1742093881.519572
-0.03375,-0.03525,0.246,-0.00080875,-0.000412,-0.000763,1742093881.5330079
-0.03475,-0.0345,0.24875,-0.0008545,-0.0005035,-0.0003205,1742093881.5488079
-0.0365,-0.0325,0.24825,-0.0009155,-0.0005035,-0.000122000005,1742093881.5623639
-0.0375,-0.0305,0.2465,-0.0009155,-0.00054925,-0.00035100002,1742093881.577066
-0.0385,-0.02975,0.246,-0.00086975005,-0.00068675,-0.00051875,1742093881.591935
-0.0395,-0.028,0.246,-0.00090025004,-0.00105275,-0.000412,1742093881.60624
-0.0385,-0.02875,0.247,-0.00083925005,-0.0012970001,-0.000412,1742093881.620807
-0.03775,-0.03,0.248,-0.00102225,-0.0017242499,-0.0002595,1742093881.635387
-0.03675,-0.03025,0.2515,-0.001175,-0.0017242499,-0.000122000005,1742093881.6500301
-0.03775,-0.03025,0.25225,-0.0010375,-0.0013427499,-0.0002135,1742093881.664609
-0.0415,-0.028,0.24925,-0.0009765,-0.00119025,-0.0003815,1742093881.679262
-0.0435,-0.027,0.2465,-0.00102225,-0.0012970001,-0.00051875,1742093881.693871
-0.04425,-0.02875,0.24275,-0.001068,-0.0015105,-0.00042725,1742093881.7089322
-0.04425,-0.0305,0.242,-0.001068,-0.001953,-0.00036625,1742093881.723068
-0.0445,-0.0285,0.243,-0.00112925,-0.0020599999,-0.000534,1742093881.7377121
-0.044,-0.02675,0.24425,-0.001236,-0.0020599999,-0.00077825,1742093881.752366
-0.04425,-0.02725,0.24625,-0.0013580001,-0.00225825,-0.0009155,1742093881.767047
-0.04575,-0.0275,0.24575,-0.0013580001,-0.00251775,-0.000763,1742093881.781627
-0.0475,-0.02675,0.24425,-0.0011445,-0.0034790002,-0.00048825,1742093881.796247
-0.05025,-0.027,0.24225,-0.00108325,-0.00399775,-0.0005035,1742093881.811094
-0.04775,-0.0255,0.24625,-0.0013427499,-0.00419625,-0.00059500005,1742093881.825665
-0.016,-0.03325,0.3115,-0.00137325,-0.0026092501,0.00010675,1742093881.841728
0.0205,-0.0665,0.414,-0.0023497501,0.015152001,0.0078125,1742093881.854527
0.11075,-0.10875,0.72975,-0.0044555003,0.037445,0.01498425,1742093881.868881
0.12525,-0.054,0.875,-0.009292499,0.096084505,0.018402,1742093881.883167
0.02575,0.02475,1.0,-0.00924675,0.13029476,0.011383001,1742093881.897475
-0.0645,-0.023,0.96825,-0.0076599997,0.16770925,0.0035095,1742093881.91189
-0.175,-0.08125,0.9135,0.0052795,0.217392,-0.0027312501,1742093881.926379
-0.383,-0.07475,0.65525,0.017929,0.2270965,-0.002365,1742093881.940924
-0.424,-0.0345,0.469,0.02822875,0.22088625,0.00691225,1742093881.9552598
-0.41625,-0.06375,0.038,0.0177155,0.20735174,0.018707251,1742093881.9696362
-0.38525,-0.0835,-0.19725,-0.014007499,0.15638725,0.03945925,1742093881.98405
-0.30525,0.00225,-0.52575,-0.01979075,0.126114,0.037170503,1742093881.999386
-0.25475,0.05225,-0.57025,-0.0169525,0.09686275,0.026764,1742093882.012974
-0.12675,0.07425,-0.44,-0.0021819999,0.042678747,0.00334175,1742093882.0275111
-0.0475,0.05725,-0.326,0.0012817499,0.0203095,-0.003418,1742093882.041983
0.032,0.03775,-0.2225,0.0059205,-0.01019275,-0.009796251,1742093882.056436
0.152,0.003,-0.0845,0.00738525,-0.0196685,-0.010757499,1742093882.070975
0.19475,-0.009,-0.035,0.0030365,-0.028259251,-0.007553,1742093882.085571
0.26125,-0.01525,0.0345,-0.00154125,-0.028900249,-0.004242,1742093882.100034
0.28575,-0.01425,0.0595,-0.0070037497,-0.0282745,-0.00068675,1742093882.11455
0.3075,-0.01475,0.078,-0.0061035,-0.027847249,-0.00169375,1742093882.129076
0.3095,-0.01325,0.078,0.0031127501,-0.02769475,-0.0053709997,1742093882.143477
0.2825,-0.021,0.06225,0.0076142503,-0.0273285,-0.0059205,1742093882.159306
0.26,-0.01825,0.0525,0.0085602505,-0.026519751,-0.0047455,1742093882.1725
0.23925,-0.0155,0.04125,0.00428775,-0.02589425,-0.00051875,1742093882.1869462
0.19025,-0.0165,-0.02825,0.00201425,-0.030731251,-1.5250001e-05,1742093882.2015731
0.18075,-0.02025,-0.0,0.00245675,-0.04679875,-0.0021057501,1742093882.21604
0.18625,-0.0225,0.0645,0.00535575,-0.0462495,-0.00384525,1742093882.2304351
0.17825,-0.02975,0.07475,0.0090637505,-0.04176325,-0.00662225,1742093882.2448719
0.185,-0.023,0.097,0.008606,-0.0417785,-0.00770575,1742093882.2596931
0.1865,-0.01125,0.1135,0.00466925,-0.04667675,-0.0085602505,1742093882.2736871
0.1635,-0.01275,0.12125,0.001709,-0.0494385,-0.008209251,1742093882.2881558
0.16475,-0.02425,0.1135,-0.0002595,-0.0518035,-0.0074004997,1742093882.30277
0.16025,-0.03275,0.11425,0.0025025,-0.0557555,-0.0062865,1742093882.3171809
0.13775,-0.0225,0.1455,0.0039825,-0.05662525,-0.00668325,1742093882.331671
0.13325,-0.0205,0.17,0.00062550005,-0.054718,-0.008667,1742093882.346153
0.1575,-0.0385,0.22725,-0.001892,-0.0523225,-0.009262,1742093882.360658
0.168,-0.041,0.2425,-0.002243,-0.04629525,-0.009933501,1742093882.375247
0.1445,-0.02775,0.247,-0.00112925,-0.044616748,-0.01086425,1742093882.389744
0.1345,-0.026,0.233,-0.00090025004,-0.04335025,-0.012680001,1742093882.404269
0.11225,-0.03,0.2085,-0.00086975005,-0.04293825,-0.0118407495,1742093882.4193978
0.09125,-0.0315,0.2055,-0.00105275,-0.042648252,-0.0101775,1742093882.433593
0.0715,-0.03125,0.2075,-0.00535575,-0.04435725,-0.00839225,1742093882.449451
0.08025,-0.05675,0.22275,-0.0075682504,-0.04574575,-0.00862125,1742093882.462965
0.0925,-0.0755,0.255,-0.006073,-0.0466155,-0.006546,1742093882.4793248
0.079,-0.06275,0.298,-0.0037079998,-0.044754002,-0.00535575,1742093882.4921138
0.05625,-0.047,0.28675,0.00070200005,-0.04060375,-0.00723275,1742093882.506604
0.02875,-0.03825,0.25125,0.00146475,-0.04078675,-0.008499251,1742093882.521187
0.02725,-0.038,0.2475,-0.00108325,-0.044143748,-0.0061339997,1742093882.535795
0.0245,-0.035,0.25575,-0.0028229998,-0.045349,-0.00352475,1742093882.550231
0.01825,-0.03775,0.262,-0.0049742498,-0.044403,-0.000885,1742093882.5648499
-0.01275,-0.04125,0.2585,-0.0063477503,-0.04426575,-0.0007325,1742093882.579438
-0.02275,-0.039,0.25675,-0.0079345,-0.04562375,-0.00090025004,1742093882.5940568
-0.03225,-0.03825,0.2615,-0.008148249,-0.04936225,-0.00062550005,1742093882.609441
-0.0625,-0.041,0.2685,-0.0068665,-0.051239,-0.00033575002,1742093882.623484
-0.069,-0.0415,0.2755,-0.0041810004,-0.0547485,-0.00090025004,1742093882.638196
-0.0565,-0.03125,0.33775,-0.00279225,-0.053466752,-0.00093075,1742093882.65291
-0.0495,-0.02,0.391,-0.00267025,-0.040847752,0.0012817499,1742093882.668929
-0.02375,-0.0025,0.59325,-0.004242,-0.028,0.00317375,1742093882.682073
0.00325,-0.02725,0.73325,-0.008545,0.02023325,0.0072785,1742093882.6963682
0.09575,-0.1295,1.0,-0.0128785,0.054535,0.0127105,1742093882.710743
0.08525,-0.089,1.0,-0.01177975,0.13519275,0.01631175,1742093882.725086
-0.19325,-0.00475,1.0,-0.00399775,0.17817675,0.00314325,1742093882.739487
-0.3585,-0.02725,0.9825,0.0052642496,0.22047424,-0.01210025,1742093882.754068
-0.48575,-0.0425,0.9255,0.020324752,0.27500924,-0.011734,1742093882.7691798
-0.69,-0.01025,0.57575,0.023940999,0.27705374,-0.00045775,1742093882.783138
-0.744,-0.018,0.2845,0.018097,0.24057001,0.01367175,1742093882.797751
-0.679,-0.0865,-0.3675,0.009643501,0.20784,0.01994325,1742093882.812198
-0.595,-0.06625,-0.62725,0.0033570002,0.13006599,0.02230825,1742093882.8267741
-0.42475,0.0745,-0.8705,0.0076599997,0.093795754,0.014343251,1742093882.841768
-0.3295,0.11025,-0.798,0.0138702495,0.021408001,-0.0049895,1742093882.855447
-0.0735,0.086,-0.376,0.0135345,-0.0114440005,-0.012756251,1742093882.8704798
0.05825,0.0635,-0.15425,0.014267,-0.035873502,-0.018127501,1742093882.884405
0.17725,0.039,0.013,0.0084379995,-0.047546502,-0.01734925,1742093882.899779
0.349,-0.0185,0.16325,0.0007325,-0.040527247,-0.0105742505,1742093882.913229
0.39075,-0.035,0.187,-0.0077667497,-0.0272675,-0.00068675,1742093882.929305
0.41825,-0.06075,0.2015,-0.0065612504,-0.02398675,-0.001419,1742093882.942407
0.40375,-0.074,0.187,-0.00065625,-0.014206001,-0.00453175,1742093882.9568708
0.33425,-0.07175,0.1135,0.0007325,-0.0070037497,-0.00372325,1742093882.9713368
0.29925,-0.058,0.07375,-9.15e-05,0.00283825,0.00071725,1742093882.985595
0.24,-0.0395,0.00475,-0.00099175,0.0030669998,0.0018615,1742093883.000015
0.21725,-0.0385,-0.021,-0.002121,0.00070200005,0.0021057501,1742093883.014416
0.20325,-0.03825,-0.036,-0.0038757501,-0.0054475004,0.0015565,1742093883.029871
0.189,-0.02825,-0.03425,-0.00416575,-0.0080567505,0.0009155,1742093883.0440562
0.186,-0.022,-0.02375,-0.0038605002,-0.01390075,-0.001953,1742093883.0593312
0.1865,-0.012,-0.00125,-0.0037079998,-0.017425502,-0.00399775,1742093883.072725
0.18875,-0.01175,0.0075,-0.00399775,-0.0236665,-0.0075225,1742093883.087187
0.1885,-0.024,0.025,-0.003952,-0.02601625,-0.008194,1742093883.1018398
0.1875,-0.03575,0.036,-0.0031585,-0.03059375,-0.0080872495,1742093883.116443
0.17925,-0.04175,0.0515,-0.0035095,-0.03395075,-0.0076295,1742093883.131063
0.17825,-0.03425,0.053,-0.004303,-0.03771975,-0.0077210004,1742093883.1455512
0.17525,-0.0185,0.0575,-0.008773751,-0.043716498,-0.00691225,1742093883.159999
0.16875,-0.02475,0.06925,-0.01121525,-0.04568475,-0.0061950004,1742093883.174568
0.163,-0.03,0.094,-0.013427749,-0.0477295,-0.0075225,1742093883.191298
0.149,-0.009,0.16075,-0.01490775,-0.045395,-0.010253999,1742093883.203827
0.15375,-0.01275,0.1715,-0.017395,-0.0318145,-0.018127501,1742093883.219753
0.1855,-0.06425,0.1535,-0.0161895,-0.025390498,-0.02015675,1742093883.2328699
0.2035,-0.07825,0.13675,-0.010757499,-0.02920525,-0.014160249,1742093883.247445
0.1785,-0.0565,0.152,-0.0075072497,-0.039184503,-0.00947575,1742093883.2620192
0.157,-0.0455,0.1715,-0.0056,-0.052383497,-0.0068055,1742093883.2765079
0.13275,-0.0495,0.17675,-0.0062865,-0.052826,-0.0068969997,1742093883.291615
0.128,-0.05975,0.18825,-0.0068512503,-0.05264275,-0.00567625,1742093883.3055842
0.12775,-0.06625,0.2085,-0.00744625,-0.055313,-0.0011445,1742093883.3201249
0.13275,-0.04575,0.2435,-0.0075377496,-0.055603,-0.00065625,1742093883.334854
0.12675,-0.03525,0.2475,-0.00611875,-0.05229175,-0.00320425,1742093883.34976
0.0955,-0.036,0.238,-0.00631725,-0.05021675,-0.0048979996,1742093883.363932
0.08,-0.0435,0.233,-0.0088195,-0.0477295,-0.00691225,1742093883.3796039
0.05875,-0.05575,0.23375,-0.00897225,-0.04812625,-0.006607,1742093883.3930008
0.05325,-0.054,0.2445,-0.0073395,-0.049377497,-0.00213625,1742093883.407536
0.04225,-0.0425,0.27675,-0.008255,-0.049316503,0.00093075,1742093883.42192
0.03325,-0.0435,0.28675,-0.01266475,-0.05001825,0.0048065,1742093883.436428
0.024,-0.04675,0.28525,-0.01396175,-0.051498502,0.00402825,1742093883.450829
0.02025,-0.05075,0.2815,-0.013641249,-0.05258175,0.002121,1742093883.465218
0.01025,-0.04775,0.2845,-0.009796251,-0.05163575,0.00059500005,1742093883.4798021
-0.021,-0.0315,0.2955,-0.00846875,-0.051941004,0.00054925,1742093883.494265
-0.031,-0.02725,0.29825,-0.0085755,-0.0544585,-0.0025787498,1742093883.509422
-0.02975,-0.003,0.33875,-0.008209251,-0.053542998,-0.003006,1742093883.523417
-0.0145,0.0075,0.39275,-0.00587475,-0.03671275,0.00045775,1742093883.5379221
0.059,-0.04275,0.56125,-0.00694275,-0.02091975,0.0027465,1742093883.552358
0.12025,-0.10525,0.7205,-0.01412975,0.02313225,0.01322925,1742093883.56657
0.19675,-0.05525,1.0,-0.013092,0.0552215,0.02149975,1742093883.5808609
0.13025,0.0545,1.0,-0.0055237496,0.09220875,0.02357475,1742093883.595134
-0.00175,0.0995,1.0,0.01098625,0.16156,-0.00198375,1742093883.609451
-0.2315,-0.00425,0.9745,0.008712751,0.19583125,-0.01560975,1742093883.6237981
-0.31875,-0.019,0.9145,-0.0061035,0.24586475,-0.020782499,1742093883.6383512
-0.5235,0.01475,0.65275,0.00149525,0.25511175,-0.0196075,1742093883.652732
-0.6325,-0.018,0.4455,0.030609248,0.24720775,-0.01368725,1742093883.667163
-0.7175,-0.13125,-0.19275,0.02864075,0.222229,-0.0041504996,1742093883.68173
-0.6585,-0.0875,-0.4925,0.017624,0.189041,0.0057677496,1742093883.696176
-0.57125,-0.03225,-0.72925,0.0043335,0.12254325,0.011825499,1742093883.7107341
-0.36725,0.09575,-0.8745,0.0066374997,0.0862885,0.00874325,1742093883.725065
-0.24475,0.1375,-0.725,0.0076142503,-0.0023345,-0.00245675,1742093883.7395751
0.02975,0.10475,-0.22525,0.008361749,-0.03714,-0.00976575,1742093883.754169
0.1615,0.05925,-0.04575,0.00738525,-0.05918875,-0.017212,1742093883.769948
0.35925,-0.03825,0.16725,-0.000229,-0.053238,-0.012557999,1742093883.783235
0.4095,-0.06625,0.20575,-0.00962825,-0.033844,-0.000763,1742093883.799011
0.4195,-0.0905,0.174,-0.0110015,-0.02534475,0.0025634998,1742093883.812237
0.38925,-0.0885,0.12725,-0.011245751,-0.01882925,0.003769,1742093883.8266098
0.34875,-0.07825,0.07575,-0.007599,-0.01071175,0.0029449998,1742093883.84218
0.2735,-0.061,0.0075,-0.00402825,-0.009430001,0.0032347501,1742093883.855573
0.2475,-0.03225,0.00575,0.00184625,-0.010101249,0.0022277501,1742093883.870035
0.21675,-0.0265,-0.0005,0.00381475,-0.01013175,0.0002595,1742093883.884474
0.20525,-0.02525,-0.011,0.00343325,-0.0148772495,-0.0007935,1742093883.899279
0.1945,-0.02275,-0.028,0.002121,-0.01994325,0.00013725001,1742093883.913822
0.1915,-0.02675,-0.0355,-0.00157175,-0.029266251,0.00193775,1742093883.9292102
0.17775,-0.03075,-0.04225,-0.00283825,-0.0328675,0.0020905002,1742093883.942875
0.1755,-0.034,-0.0355,-0.0028074998,-0.03677375,0.002121,1742093883.9594
0.18275,0.0045,0.0195,-0.0021819999,-0.04609675,0.0029907501,1742093883.971885
0.1895,0.0225,0.05925,-0.00184625,-0.0486755,0.00201425,1742093883.986121
0.1965,0.015,0.091,0.0010375,-0.045898497,-0.00231925,1742093884.000583
0.20325,-0.03225,0.13575,0.00160225,-0.043640252,-0.00305175,1742093884.01522
0.20575,-0.038,0.14275,-0.00024425,-0.042037997,-0.0023345,1742093884.029942
0.198,-0.02975,0.11525,-0.0021515,-0.042175252,-0.00143425,1742093884.0443342
0.18825,-0.02775,0.10175,-0.0054475004,-0.0450745,-0.0013885,1742093884.0593832
0.17025,-0.02475,0.109,-0.0052795,-0.04756175,-0.0025634998,1742093884.073428
0.16375,-0.0345,0.13375,-0.0068512503,-0.053955004,-0.003662,1742093884.0879302
0.17925,-0.039,0.22125,-0.008788999,-0.055953998,-0.00125125,1742093884.102558
0.2045,-0.02075,0.24425,-0.0078125,-0.05369575,0.00131225,1742093884.116962
0.19875,-0.01575,0.2355,-0.0052337497,-0.03984075,3.0500001e-05,1742093884.131434
0.1605,-0.0255,0.184,-0.0061645,-0.035949748,-0.00083925005,1742093884.1460822
0.14475,-0.023,0.16625,-0.00723275,-0.038330004,-0.0017395001,1742093884.1605241
0.11675,-0.023,0.16925,-0.0068207504,-0.04167175,-0.00204475,1742093884.175055
0.11275,-0.02875,0.18075,-0.0038299998,-0.047958247,-0.00149525,1742093884.189497
0.1055,-0.01925,0.20425,-0.00238025,-0.04939275,-0.001114,1742093884.204005
0.1005,-0.007,0.21475,-0.0039215,-0.049408,-0.0016785001,1742093884.2198741
0.08725,-0.02225,0.2305,-0.00662225,-0.04924,-0.001648,1742093884.232991
0.08075,-0.03175,0.24175,-0.008606,-0.0483245,-0.000534,1742093884.247571
0.072,-0.03325,0.24675,-0.0068512503,-0.045043997,0.00181575,1742093884.262178
0.05325,-0.04075,0.24675,-0.0042115003,-0.04435725,0.00181575,1742093884.2766562
0.04675,-0.04175,0.24925,-0.00016775,-0.046157748,0.0020752498,1742093884.291119
0.0365,-0.02075,0.2515,0.0007935,-0.047226,0.002655,1742093884.305453
0.03,-0.008,0.2545,-0.00169375,-0.046142504,0.0035095,1742093884.3199449
0.0235,-0.003,0.26675,-0.0045777503,-0.0451965,0.0033570002,1742093884.334452
0.016,-0.01175,0.2655,-0.0068207504,-0.0434875,0.00440975,1742093884.349049
-0.01275,-0.039,0.246,-0.0061645,-0.044067502,0.0055237496,1742093884.36345
-0.01875,-0.0435,0.24725,-0.0047912505,-0.0456695,0.006302,1742093884.379153
-0.0245,-0.04125,0.257,0.0009765,-0.046646,0.0072175004,1742093884.392479
-0.04475,-0.014,0.26975,0.00354,-0.046981752,0.0075835,1742093884.4071019
-0.052,0.00125,0.2725,0.00364675,-0.0486145,0.00842275,1742093884.4213629
-0.0435,0.00775,0.3055,0.00175475,-0.047973752,0.008941749,1742093884.435752
-0.04325,0.00975,0.35075,0.00198375,-0.037094,0.0081025,1742093884.450166
-0.0345,0.00825,0.56025,0.00440975,-0.025589,0.007019,1742093884.464455
-0.00825,-0.01675,0.7745,0.0070495,0.02607725,0.008270251,1742093884.47938
0.0195,-0.00775,1.0,0.008499251,0.06617726,0.009140001,1742093884.4929469
-0.083,0.02625,1.0,0.0109709995,0.10849,0.0064545004,1742093884.507251
-0.178,0.0385,1.0,-0.0035095,0.1909485,-0.011764499,1742093884.521711
-0.3215,-0.0335,0.9945,-0.017212,0.225174,-0.022934001,1742093884.536253
-0.40625,-0.04175,0.9845,-0.0057677496,0.2565155,-0.0373535,1742093884.55081
-0.64625,0.0625,0.71,0.011306751,0.25637823,-0.03993225,1742093884.565233
-0.74275,0.02875,0.4775,0.026291,0.2437745,-0.029831,1742093884.579728
-0.84225,-0.09225,-0.27675,0.02749625,0.232544,-0.0147705,1742093884.594228
-0.79475,-0.08,-0.73,0.02601625,0.208374,0.00064075,1742093884.6097531
-0.54225,0.06475,-1.0,0.021698,0.110839754,0.0116425,1742093884.6231391
-0.4125,0.1245,-0.8965,0.0159455,0.05505375,0.006546,1742093884.637737
-0.2865,0.1185,-0.643,0.010391249,-0.0187835,-0.01316825,1742093884.65227
0.02425,-0.0155,-0.15875,0.01165775,-0.03492725,-0.019348249,1742093884.666807
0.173,-0.06725,0.0145,0.00283825,-0.04002375,-0.01133725,1742093884.681261
0.3545,-0.07675,0.16675,-0.004593,-0.0335235,-0.00340275,1742093884.6957529
0.388,-0.07025,0.16775,-0.00846875,-0.019622749,0.00146475,1742093884.7101882
0.38225,-0.082,0.1225,-0.0054932497,-0.014923001,-0.00033575002,1742093884.724798
0.35525,-0.086,0.08675,-0.00292975,-0.010803251,-0.0015565,1742093884.739746
0.28775,-0.05375,0.02325,-0.00160225,-0.005066,0.000122000005,1742093884.7537951
0.263,-0.036,0.00625,-0.00108325,-0.004013,0.00057975,1742093884.7700741
0.2455,-0.03125,-0.00525,0.00125125,-0.00340275,-0.000229,1742093884.782629
0.2225,-0.048,-0.027,0.00057975,-0.00352475,0.00036625,1742093884.797149
0.21425,-0.05325,-0.03725,-0.00358575,-0.0065307496,0.00308225,1742093884.811629
0.2025,-0.035,-0.038,-0.00567625,-0.00935375,0.0043182503,1742093884.826234
0.193,-0.023,-0.03525,-0.0079345,-0.014495751,0.0050965,1742093884.842092
0.1765,-0.015,-0.04325,-0.008194,-0.01716625,0.0044555003,1742093884.855581
0.17325,-0.021,-0.0435,-0.0094604995,-0.02507025,0.003662,1742093884.870141
0.17525,-0.03025,-0.013,-0.009597749,-0.02931225,0.00352475,1742093884.884812
0.1795,-0.02175,0.0075,-0.00903325,-0.03288275,0.0031127501,1742093884.8997939
0.1815,-0.01875,0.024,-0.009155249,-0.03857425,0.0019225,1742093884.9137971
0.18225,-0.03275,0.0345,-0.0102235,-0.04135125,0.0015565,1742093884.929416
0.17675,-0.03925,0.02475,-0.011612001,-0.047943,0.00325,1742093884.942655
0.16025,-0.035,0.014,-0.011673001,-0.05314625,0.00564575,1742093884.957143
0.15525,-0.02725,0.02975,-0.012085,-0.06118775,0.00891125,1742093884.971532
0.15075,-0.02175,0.07975,-0.0115815,-0.06263725,0.008651749,1742093884.986016
0.153,-0.018,0.10625,-0.00982675,-0.062713504,0.0075682504,1742093885.000475
0.15925,-0.0115,0.15625,-0.0100555,-0.06095875,0.0076905,1742093885.014824
0.165,-0.01425,0.189,-0.01200875,-0.05838,0.008606,1742093885.02981
0.1705,-0.01775,0.2165,-0.014800999,-0.05302425,0.010879501,1742093885.0451531
0.15775,-0.00825,0.2185,-0.0135955,-0.050949,0.010238751,1742093885.0596201
0.1425,-0.0015,0.2055,-0.009948749,-0.0494385,0.0076295,1742093885.072714
0.10575,0.009,0.18925,-0.008407501,-0.0503845,0.0065002497,1742093885.087009
0.09525,0.01025,0.1935,-0.0072632497,-0.056091253,0.007782,1742093885.101452
0.09775,-0.007,0.24775,-0.00791925,-0.059265252,0.010024999,1742093885.115812
0.106,-0.0145,0.2915,-0.0051269997,-0.056152247,0.008484,1742093885.130332
0.099,-0.01775,0.31925,-0.002121,-0.050598253,0.0060577504,1742093885.1447868
0.079,-0.01575,0.30175,0.0001525,-0.045761,0.0037995,1742093885.159233
0.05875,-0.0105,0.27675,0.00090025004,-0.04322825,0.0016632499,1742093885.1734452
0.0535,0.0015,0.263,-4.575e-05,-0.044189498,0.002243,1742093885.187839
0.0605,0.002,0.2785,-0.0020905002,-0.04367075,0.0042725,1742093885.2021492
0.0585,0.00125,0.30125,-0.0018615,-0.0412445,0.00440975,1742093885.2165408
0.048,0.00475,0.30025,-0.00029,-0.037170503,0.004013,1742093885.2308228
0.02075,0.011,0.28275,7.625e-05,-0.037475497,0.0041810004,1742093885.245163
0.005,0.0085,0.27675,0.00065625,-0.038757253,0.0040587503,1742093885.259434
-0.01075,0.00125,0.27425,0.0025025,-0.0417785,0.0040587503,1742093885.273833
-0.02875,-0.0135,0.2755,0.00267025,-0.04344175,0.0046539996,1742093885.28826
-0.02925,-0.0115,0.282,0.00276175,-0.0450135,0.0051574996,1742093885.302708
-0.02775,-0.00675,0.3,0.0034942501,-0.04444875,0.00437925,1742093885.3171709
-0.03,-0.0055,0.31175,0.0042115003,-0.0407715,0.0019225,1742093885.331519
-0.0395,0.00675,0.36,0.0029755002,-0.038131747,0.002243,1742093885.345848
-0.0485,0.00625,0.39875,0.00039675,-0.035141,0.0038299998,1742093885.3602629
-0.05025,-0.00775,0.469,-0.0061339997,-0.02534475,0.00845325,1742093885.374829
-0.00175,-0.036,0.7845,-0.009719751,-0.0138702495,0.011901749,1742093885.389369
0.0315,0.00525,0.95575,-0.009491,0.0360565,0.0149995005,1742093885.403734
-0.01225,0.14875,1.0,-0.0068207504,0.0735625,0.009887749,1742093885.4180999
-0.12325,0.1555,1.0,-0.0076295,0.1529845,-0.015808,1742093885.4324841
-0.335,0.01175,0.99525,-0.0071105,0.1873015,-0.02946475,1742093885.446899
-0.3985,-0.02625,0.98375,0.0065155,0.2361755,-0.038803,1742093885.461385
-0.64125,0.078,0.7185,0.018020751,0.25024426,-0.036728002,1742093885.475735
-0.807,0.0835,0.43525,0.0273895,0.25724798,-0.033844,1742093885.4918149
-0.9225,-0.00825,0.05225,0.02101125,0.24176025,-0.0177765,1742093885.504734
-0.8305,-0.11325,-0.81175,0.009216251,0.212204,-0.0027160002,1742093885.519815
-0.67,-0.0445,-1.0,0.00059500005,0.109436,0.01567075,1742093885.533726
-0.39975,0.07775,-0.92975,0.00267025,0.05612175,0.013000499,1742093885.549134
-0.27875,0.0735,-0.70825,0.01091,-0.021331752,-0.00444025,1742093885.56254
0.007,0.0625,-0.18625,0.014923001,-0.040710498,-0.011078,1742093885.5769331
0.13275,0.048,-0.02475,0.0074615004,-0.045654252,-0.012756251,1742093885.592028
0.32175,-0.00575,0.151,-0.001831,-0.03923025,-0.0076295,1742093885.606006
0.3825,-0.01925,0.21975,-0.007965,-0.03186025,-0.0022125002,1742093885.620536
0.418,-0.0315,0.263,-0.0061339997,-0.0192565,-0.00109875,1742093885.635027
0.4095,-0.0615,0.25375,-0.00367725,-0.0135955,-0.0028074998,1742093885.649811
0.37725,-0.06075,0.21175,-0.0032347501,0.00045775,-0.00090025004,1742093885.6639109
0.293,-0.04125,0.085,-0.00225825,0.00593575,0.0008545,1742093885.679528
0.26025,-0.03375,0.02725,0.0026092501,0.006073,0.0005035,1742093885.6926231
0.2125,-0.02225,-0.04275,0.00505075,0.003006,-3.0500001e-05,1742093885.707126
0.198,-0.01125,-0.05225,0.00643925,-3.0500001e-05,-0.00064075,1742093885.721621
0.18925,0.0015,-0.037,0.00494375,-0.006302,-0.00204475,1742093885.736036
0.1875,-0.0035,-0.0235,0.0030975002,-0.00968925,-0.0020295,1742093885.7505019
0.18325,-0.0135,-0.011,-0.00108325,-0.015228249,0.0001525,1742093885.765026
0.18225,-0.025,0.01575,-0.0034484998,-0.017395,0.0013885,1742093885.779935
0.18725,-0.02975,0.0345,-0.0068055,-0.01985175,0.00317375,1742093885.793814
0.19625,-0.019,0.05825,-0.00720225,-0.01991275,0.00358575,1742093885.809977
0.197,-0.00825,0.05475,-0.0062407497,-0.02142325,0.0025634998,1742093885.8228328
0.18775,-0.00175,0.033,-0.0056304997,-0.023681749,0.0017852499,1742093885.8373408
0.17925,-0.00575,0.0225,-0.0047150003,-0.026855499,0.0008545,1742093885.851818
0.173,-0.01325,0.0255,-0.0029755002,-0.03562925,-0.001587,1742093885.866393
0.175,-0.02575,0.0435,-0.0039825,-0.0399475,-0.001709,1742093885.8809059
0.1815,-0.03575,0.07125,-0.00773625,-0.04438775,0.001236,1742093885.8954592
0.194,-0.02725,0.12325,-0.0077667497,-0.044464,0.0021819999,1742093885.909836
0.19325,-0.02075,0.13375,-0.0043639997,-0.044098,0.00059500005,1742093885.9243531
0.18175,-0.015,0.12575,-0.0025787498,-0.044632,-0.00065625,1742093885.9389179
0.1755,-0.00725,0.12325,-0.0022735,-0.04667675,-0.0005035,1742093885.953494
0.1595,-0.018,0.13125,-0.0028229998,-0.048111,0.00137325,1742093885.9678981
0.1505,-0.02975,0.144,-0.0037079998,-0.0516205,0.004486,1742093885.9823182
0.14625,-0.0225,0.19425,-0.0042267498,-0.05273425,0.00444025,1742093885.996803
0.1515,-0.025,0.23325,-0.0044707498,-0.0526275,0.003952,1742093886.011204
0.1585,-0.02575,0.26975,-0.00334175,-0.0470275,0.0020599999,1742093886.0256991
0.15675,-0.01125,0.282,-0.00201425,-0.043151747,0.00051875,1742093886.042397
0.14375,-0.00925,0.2585,6.1000002e-05,-0.041320752,-0.00131225,1742093886.0544949
0.1115,-0.01475,0.22125,0.00149525,-0.041808996,-0.00157175,1742093886.069933
0.10475,-0.01225,0.219,0.00378425,-0.04344175,-7.625e-05,1742093886.083511
0.09775,-0.009,0.24475,0.00320425,-0.04438775,0.001526,1742093886.099288
0.0925,-0.01375,0.26325,0.00193775,-0.044616748,0.0026854998,1742093886.112109
0.08325,-0.02025,0.27525,0.001953,-0.04379275,0.0036162501,1742093886.126538
0.05025,-0.03125,0.2645,0.0023497501,-0.044113252,0.00453175,1742093886.141877
0.03175,-0.037,0.24775,-0.0005035,-0.04872125,0.00399775,1742093886.155312
0.01775,-0.0225,0.23575,-0.002243,-0.05223075,0.0030975002,1742093886.169884
0.01,-0.00575,0.23775,-0.001648,-0.059967,0.0051269997,1742093886.1841621
-0.0085,-0.0015,0.234,-7.625e-05,-0.06333925,0.00688175,1742093886.198886
-0.02375,-0.00475,0.2435,0.00390625,-0.0638885,0.0072632497,1742093886.213005
-0.04675,-0.005,0.27925,0.00546275,-0.064148,0.0070037497,1742093886.2291682
-0.0525,-0.01125,0.30475,0.0072632497,-0.064941496,0.00691225,1742093886.241814
-0.05725,-0.02075,0.3375,0.01104725,-0.061432,0.00614925,1742093886.256553
-0.06125,-0.02575,0.4195,0.01083375,-0.056488,0.0053405,1742093886.270823
-0.05975,-0.01825,0.461,0.0050355,-0.043167,0.0040435,1742093886.2853088
-0.03975,-0.03225,0.607,0.000412,-0.03279125,0.0047455,1742093886.300051
-0.01675,-0.05,0.75075,-0.011139,0.0088195,0.010009751,1742093886.3144078
-0.01025,-0.0255,1.0,-0.01351925,0.04148875,0.010528499,1742093886.329476
-0.0815,-0.01075,1.0,-0.00399775,0.118927,-0.0047455,1742093886.3433669
-0.28325,-0.073,0.999,-0.00013725001,0.15979,-0.016967751,1742093886.3591292
-0.379,-0.126,0.993,0.002472,0.2011565,-0.026519751,1742093886.372375
-0.4695,-0.1395,0.98325,0.019317752,0.2656555,-0.027160749,1742093886.386781
-0.66225,-0.02925,0.7845,0.036026,0.27760324,-0.020111,1742093886.401315
-0.7295,0.06375,0.5905,0.06755075,0.2691955,-0.00320425,1742093886.415779
-0.79475,0.144,0.07625,0.06428525,0.25906375,0.0064239996,1742093886.430134
-0.80625,0.113,-0.2785,0.03155525,0.227295,0.0290985,1742093886.444427
-0.67525,0.22275,-1.0,0.022873,0.193161,0.03186025,1742093886.459394
-0.55325,0.3045,-1.0,0.017120251,0.13996875,0.026413,1742093886.473023
-0.4285,0.348,-1.0,-0.00381475,0.01579275,0.00148,1742093886.487493
-0.1695,0.24025,-0.49375,-0.01065075,-0.0302735,-0.015075751,1742093886.502063
-0.02475,0.10925,-0.213,-0.0054015,-0.0666045,-0.03955075,1742093886.5166779
0.261,-0.1495,0.18375,-0.00596625,-0.06536875,-0.038269002,1742093886.531193
0.35275,-0.21275,0.25325,-0.020019501,-0.041092,-0.010314999,1742093886.545938
0.401,-0.217,0.174,-0.023925751,-0.026657,0.0023039998,1742093886.560214
0.38125,-0.186,0.107,-0.016021749,-0.01210025,0.0062712496,1742093886.5746791
0.30825,-0.10975,0.01025,-0.010437001,-0.00997925,0.0044555003,1742093886.589087
0.28,-0.07725,-0.0045,-0.0063325,-0.008788999,0.00358575,1742093886.603575
0.24775,-0.034,0.00225,0.00019825,-0.0073547503,0.0016785001,1742093886.619124
0.231,-0.0355,-0.00925,0.003296,-0.0070952503,-0.00013725001,1742093886.632389
0.216,-0.04525,-0.02975,0.0045625,-0.007431,-0.00160225,1742093886.646861
0.19975,-0.0555,-0.0585,0.0029907501,-0.008499251,-0.000824,1742093886.6614988
0.1975,-0.05,-0.05925,-0.00045775,-0.013336251,0.0012665,1742093886.680834
0.199,-0.0285,-0.0435,-0.00213625,-0.016265752,0.00201425,1742093886.693131
0.198,-0.02,-0.03375,-0.00561525,-0.02038575,0.0025634998,1742093886.711415
0.18625,-0.02175,-0.0265,-0.0073242504,-0.021636998,0.00251775,1742093886.7239418
0.177,-0.03525,-0.03,-0.010894749,-0.025085501,0.003006,1742093886.7343202
0.16825,-0.056,-0.02675,-0.012313751,-0.028473,0.00378425,1742093886.7557938
0.1705,-0.05175,-0.0145,-0.013092,-0.03288275,0.00463875,1742093886.7642171
0.17525,-0.04175,-0.0015,-0.014206001,-0.0416565,0.0065612504,1742093886.780073
0.1925,-0.0265,0.038,-0.01519775,-0.04417425,0.00737,1742093886.832351
0.2005,-0.018,0.0555,-0.016159,-0.04359425,0.00747675,1742093886.8324769
0.206,-0.00525,0.06125,-0.0158845,-0.04261775,0.0065002497,1742093886.832989
0.1995,-0.01475,0.0645,-0.014145001,-0.0433045,0.0037537501,1742093886.842725
0.18775,-0.03825,0.09325,-0.012420749,-0.04403675,0.002777,1742093886.867871
0.1825,-0.04475,0.10625,-0.00788875,-0.04521175,0.001114,1742093886.872593
0.173,-0.0565,0.12,-0.0065612504,-0.045715246,0.00086975005,1742093886.8866718
0.17575,-0.053,0.13425,-0.0060577504,-0.04689025,0.00125125,1742093886.893636
0.177,-0.04525,0.152,-0.006546,-0.05307,0.0036010002,1742093886.915083
0.172,-0.03525,0.19225,-0.006775,-0.054443248,0.0029145,1742093886.9255219
0.17,-0.036,0.2065,-0.00466925,-0.0518035,-0.00064075,1742093886.937162
0.1635,-0.034,0.222,-0.003662,-0.04995725,-0.0018615,1742093886.952492
0.154,-0.0315,0.218,-0.00340275,-0.0469665,-0.00035100002,1742093886.96658
0.1435,-0.04125,0.23975,-0.00413525,-0.046875,0.00108325,1742093886.9814951
0.147,-0.03925,0.266,-0.0058287503,-0.047104,0.00393675,1742093886.995754
0.1405,-0.0205,0.27825,-0.0049590003,-0.0459595,0.00393675,1742093887.0100548
0.12975,-0.01075,0.2635,-0.00354,-0.04464725,0.00302125,1742093887.0246751
0.118,-0.00925,0.247,-0.0028687501,-0.04426575,0.001007,1742093887.038391
0.09525,-0.02175,0.232,-0.002655,-0.04512025,0.00024425,1742093887.052753
0.08925,-0.0225,0.23575,-0.00181575,-0.047607496,0.0012055,1742093887.0673332
0.07925,-0.031,0.275,-0.0019225,-0.04789725,0.0028229998,1742093887.0818188
0.0705,-0.03875,0.302,-0.00314325,-0.04597475,0.0057525,1742093887.096319
0.0555,-0.0115,0.31925,-0.00419625,-0.044799753,0.00643925,1742093887.110742
0.0475,0.001,0.3075,-0.0057677496,-0.043518003,0.0063934997,1742093887.125248
0.02825,-0.0155,0.2775,-0.0064239996,-0.04420475,0.006836,1742093887.141609
0.01525,-0.0215,0.266,-0.00744625,-0.045715246,0.0075225,1742093887.153897
0.00325,-0.02025,0.2585,-0.0078735,-0.049682498,0.00773625,1742093887.1698189
-0.01525,-0.01575,0.251,-0.006836,-0.05210875,0.00741575,1742093887.182781
-0.02375,-0.00675,0.25975,-0.00517275,-0.05581675,0.008026,1742093887.1973708
-0.04975,0.005,0.30975,-0.0046845004,-0.056488,0.00941475,1742093887.21177
-0.0725,0.00425,0.34225,-0.00453175,-0.0563965,0.0118407495,1742093887.226196
-0.0935,-0.0315,0.5185,-0.0064850003,-0.0533905,0.012115501,1742093887.241438
-0.0595,-0.0785,0.73325,-0.0197295,-0.02345275,0.018463248,1742093887.2551801
0.079,-0.00375,1.0,-0.02775575,0.011550999,0.024353001,1742093887.269582
0.06225,0.14225,1.0,-0.0285035,0.05885325,0.0245515,1742093887.283909
-0.081,0.241,1.0,-0.019577,0.15522775,-0.0099639995,1742093887.2994711
-0.4005,0.10725,0.99375,-0.0255585,0.19393925,-0.03509525,1742093887.312768
-0.48725,0.0135,0.9865,-0.027282748,0.25662225,-0.060089,1742093887.3271701
-0.767,0.0245,0.72175,-0.00090025004,0.2773895,-0.059433,1742093887.342231
-0.93025,0.0935,0.434,0.0507965,0.2798005,-0.04306025,1742093887.356101
-0.962,0.04625,-0.095,0.04391475,0.26454175,-0.03176875,1742093887.370694
-0.892,-0.07075,-0.37775,0.02671825,0.24539176,-0.01794425,1742093887.38518
-0.72975,-0.103,-0.9955,0.03129575,0.18740849,0.00846875,1742093887.399816
-0.622,0.0085,-1.0,0.03190625,0.13087475,0.0167695,1742093887.414324
-0.50775,0.13325,-0.97525,0.01036075,0.00283825,0.0073547503,1742093887.4293811
-0.20375,0.24275,-0.4975,0.0067902496,-0.0449065,-0.006775,1742093887.443167
-0.05575,0.18925,-0.2595,0.010727,-0.08506775,-0.0265045,1742093887.459571
0.245,0.01075,0.161,0.0048979996,-0.08020025,-0.027984502,1742093887.4720829
0.37125,-0.064,0.3015,-0.0135955,-0.0543365,-0.014160249,1742093887.486612
0.47525,-0.1255,0.3555,-0.01722725,-0.040741,-0.00494375,1742093887.501158
0.457,-0.1255,0.28075,-0.014938249,-0.028183,0.00010675,1742093887.5157819
0.35175,-0.084,0.09475,-0.00463875,-0.009521499,0.00169375,1742093887.5301828
0.302,-0.05625,0.03275,-0.00105275,-0.0054932497,0.0017852499,1742093887.544807
0.263,-0.03275,-0.009,0.003006,-0.00737,0.00090025004,1742093887.559385
0.21925,-0.01625,-0.03775,0.0031889998,-0.010528499,-4.575e-05,1742093887.5737479
0.212,-0.0165,-0.0345,0.00177,-0.013839751,-0.0011445,1742093887.588178
0.21175,-0.01725,-0.026,0.00099175,-0.01490775,-0.0013885,1742093887.602771
0.21075,-0.021,-0.024,-0.001007,-0.018692,-0.0005035,1742093887.6173592
0.19875,-0.02075,-0.02575,-0.0018615,-0.02139275,0.00030525,1742093887.631841
0.19125,-0.0155,-0.02475,-0.00419625,-0.0280305,0.0021819999,1742093887.6463869
0.1805,-0.0055,-0.00025,-0.00535575,-0.030731251,0.00314325,1742093887.660871
0.18125,-0.00275,0.022,-0.0058135,-0.032348752,0.0036315,1742093887.6753669
0.187,0.00125,0.04175,-0.00587475,-0.0342865,0.0026092501,1742093887.6911411
0.19175,0.0125,0.0495,-0.0062865,-0.03536975,0.001709,1742093887.703995
0.1905,0.01325,0.04725,-0.00785825,-0.037552,0.00067150005,1742093887.719381
0.17925,-0.00025,0.0425,-0.0086975,-0.039032,0.0008545,1742093887.732852
0.17475,-0.01725,0.04925,-0.00833125,-0.04356375,0.00184625,1742093887.747299
0.1785,-0.04975,0.10125,-0.006302,-0.046371497,0.00201425,1742093887.761824
0.1815,-0.05125,0.1285,-0.00367725,-0.04901125,0.00148,1742093887.7761998
0.18725,-0.025,0.16425,-0.00177,-0.051437248,-0.00013725001,1742093887.791938
0.195,-0.00125,0.18125,-0.00283825,-0.049987752,-7.625e-05,1742093887.805387
0.19875,0.019,0.1915,-0.0051574996,-0.044693,0.0013885,1742093887.8202481
0.16975,-0.0035,0.17775,-0.0055237496,-0.045089748,0.00216675,1742093887.834093
0.156,-0.027,0.18375,-0.0029755002,-0.0477905,0.00184625,1742093887.849622
0.15,-0.0365,0.2185,0.00024425,-0.04869075,0.0007325,1742093887.8630059
0.15275,-0.025,0.246,0.0042572496,-0.0484315,-0.00175475,1742093887.879444
0.172,0.00125,0.30675,0.0033570002,-0.045761,-0.0021819999,1742093887.893145
0.17425,0.007,0.3135,0.0015565,-0.040863,-0.00276175,1742093887.906132
0.16775,0.0055,0.2995,-0.00160225,-0.0290985,-0.00369275,1742093887.920612
0.141,-0.0095,0.24575,-0.0023345,-0.025299,-0.0036010002,1742093887.935164
0.12475,-0.01625,0.2235,0.00033575002,-0.024108998,-0.0039215,1742093887.949547
0.105,-0.01875,0.21275,0.0028535,-0.026245002,-0.0044707498,1742093887.963986
0.10575,-0.021,0.22825,0.0032347501,-0.03161625,-0.00372325,1742093887.979388
0.1125,-0.02175,0.2655,0.00112925,-0.032348752,-0.0025940002,1742093887.992955
0.10825,-0.02125,0.26875,-0.0018005001,-0.02955625,-0.00148,1742093888.007467
0.087,-0.0305,0.252,-0.0021515,-0.02867125,-0.00105275,1742093888.0219688
0.078,-0.03525,0.24525,-0.0019685,-0.029174749,-0.00036625,1742093888.036605
0.07075,-0.035,0.24125,-0.0003815,-0.0330505,0.001175,1742093888.050967
0.057,-0.02425,0.2375,0.00112925,-0.03509525,0.00137325,1742093888.065359
0.051,-0.01425,0.24075,0.00296025,-0.03825375,0.00042725,1742093888.079747
0.035,0.00125,0.256,0.001648,-0.039032,0.000412,1742093888.093994
0.02325,-0.00125,0.2555,-0.0043335,-0.041214,0.00317375,1742093888.109119
-0.00525,-0.02375,0.2395,-0.007019,-0.044372503,0.0058287503,1742093888.12307
-0.02225,-0.0255,0.2355,-0.0076905,-0.053955004,0.009948749,1742093888.137716
-0.046,0.006,0.27625,-0.0058899997,-0.058609,0.01036075,1742093888.1520698
-0.04625,0.0235,0.31975,-0.0043182503,-0.06102,0.010391249,1742093888.166476
-0.04775,0.03375,0.37075,-0.00637825,-0.057418752,0.00991825,1742093888.180959
-0.0585,0.017,0.541,-0.0123595,-0.05184925,0.00962825,1742093888.19548
-0.05325,-0.02775,0.69275,-0.028656,-0.028305,0.0102235,1742093888.210092
0.102,-0.02225,1.0,-0.035949748,-0.0047150003,0.01228325,1742093888.224492
0.15025,0.09175,1.0,-0.028015248,0.08651725,0.00798025,1742093888.238723
-0.141,0.2395,0.9995,-0.01651,0.14015199,-0.0093385,1742093888.253214
-0.35175,0.197,0.9825,-0.0125275,0.22120675,-0.049286,1742093888.2692711
-0.6385,-0.0685,0.82425,-0.011856,0.24691775,-0.05018625,1742093888.2821918
-0.734,-0.1265,0.67675,-0.00538625,0.2623595,-0.03898625,1742093888.296763
-0.83,-0.0775,0.491,0.0279235,0.266739,-0.024002,1742093888.3111649
-0.89425,0.052,0.0215,0.0397645,0.25555426,-0.0250245,1742093888.325585
-0.8195,0.03375,-0.261,0.027862499,0.21525575,-0.0166015,1742093888.342059
-0.61575,-0.03225,-0.83975,0.02690125,0.18843076,-0.00953675,1742093888.35467
-0.52,-0.00225,-1.0,0.03660575,0.09695425,0.0005645,1742093888.370031
-0.32225,0.162,-0.84375,0.02442925,0.037857,0.00416575,1742093888.3833878
-0.196,0.2085,-0.5835,-0.0016632499,-0.04704275,-0.0070037497,1742093888.399691
0.08125,0.1345,-0.09875,0.00096125,-0.0635375,-0.020049999,1742093888.412537
0.20625,0.05075,0.0675,0.00590525,-0.0658265,-0.030075,1742093888.426889
0.313,-0.023,0.1815,-0.0023345,-0.047195498,-0.024704,1742093888.44227
0.43125,-0.1045,0.231,-0.010879501,-0.03456125,-0.013854999,1742093888.456055
0.4375,-0.11475,0.1985,-0.0148772495,-0.015747,0.00033575002,1742093888.470492
0.376,-0.09425,0.108,-0.011383001,-0.0102845,0.0013580001,1742093888.484948
0.33175,-0.08125,0.06925,-0.004776,-0.00061025,0.0008545,1742093888.500423
0.26625,-0.0645,0.0085,-0.0023497501,0.0020295,0.00033575002,1742093888.5137331
0.2455,-0.05775,-0.0155,0.0012970001,0.0005035,-0.00061025,1742093888.529346
0.22025,-0.039,-0.0525,0.0016175,-0.001068,-0.0005035,1742093888.544677
0.217,-0.02675,-0.05425,0.00115975,-0.0024414998,-0.00016775,1742093888.557146
0.216,-0.016,-0.04825,-0.00035100002,-0.0066374997,0.000534,1742093888.571722
0.21625,-0.009,-0.03075,-0.0012207499,-0.0088195,0.00083925005,1742093888.586281
0.21675,-0.0075,-0.0225,-0.00251775,-0.011260999,0.001114,1742093888.600748
0.21375,-0.006,-0.013,-0.0030975002,-0.01197825,0.00108325,1742093888.615255
0.20975,-0.00625,-0.00975,-0.0044555003,-0.0136565,0.001007,1742093888.6297338
0.19875,-0.007,-0.015,-0.00520325,-0.01531975,0.00065625,1742093888.644275
0.19225,-0.0125,-0.024,-0.0054932497,-0.021789499,-0.000885,1742093888.6598258
0.1785,-0.0245,-0.03925,-0.0047302498,-0.026352,-0.00204475,1742093888.673483
0.174,-0.02675,-0.038,-0.00402825,-0.031372,-0.00325,1742093888.688117
0.17725,-0.02075,-0.00925,-0.00520325,-0.04090875,-0.0043335,1742093888.702731
0.18025,-0.02125,0.01,-0.00643925,-0.04435725,-0.00393675,1742093888.717269
0.1835,-0.02475,0.029,-0.008667,-0.04724125,-0.0012817499,1742093888.731812
0.186,-0.02725,0.06375,-0.00953675,-0.04783625,0.00035100002,1742093888.7462761
0.184,-0.03725,0.08,-0.009079001,-0.049057,0.0022277501,1742093888.760643
0.1845,-0.04075,0.11425,-0.008499251,-0.050231997,0.0022277501,1742093888.775059
0.18725,-0.0285,0.128,-0.0084379995,-0.0538635,0.0007325,1742093888.789661
0.193,-0.015,0.15525,-0.008545,-0.05461125,0.000412,1742093888.8040478
0.194,-0.01,0.1665,-0.008133001,-0.05355825,0.00062550005,1742093888.819752
0.18275,-0.01075,0.17425,-0.00535575,-0.048462003,0.00181575,1742093888.83306
0.175,-0.01425,0.18025,-0.00453175,-0.047287,0.0022277501,1742093888.847475
0.1695,-0.02,0.19025,-0.00517275,-0.04853825,0.0034942501,1742093888.8620641
0.16575,-0.038,0.22825,-0.00514225,-0.0489045,0.0042572496,1742093888.876489
0.168,-0.035,0.2515,-0.0032347501,-0.04318225,0.0023039998,1742093888.891287
0.1715,-0.018,0.27375,-0.001648,-0.03828425,0.00068675,1742093888.9054642
0.16675,-0.00725,0.2655,0.00030525,-0.030304002,-0.00131225,1742093888.920161
0.147,-0.00625,0.2345,-0.00013725001,-0.02835075,-0.001114,1742093888.934561
0.1385,-0.01025,0.22425,-0.001709,-0.0273285,-0.00067150005,1742093888.9496388
0.12525,-0.022,0.224,-0.0012970001,-0.02734375,-0.00065625,1742093888.9635699
0.11925,-0.03075,0.23,-0.000229,-0.027709998,-0.0002135,1742093888.9793868
0.11575,-0.031,0.2375,0.00070200005,-0.029144252,0.0014495,1742093888.992658
0.11575,-0.01475,0.255,4.575e-05,-0.029296748,0.00231925,1742093889.007039
0.11225,-0.00875,0.2575,-0.00096125,-0.0269165,0.00225825,1742093889.021384
0.093,-0.00925,0.24,-0.00048825,-0.02565,0.001175,1742093889.035795
0.08475,-0.01325,0.22775,0.0015105,-0.02737425,-0.0002595,1742093889.050287
0.07575,-0.0135,0.2185,0.002472,-0.02961725,-0.0002595,1742093889.064647
0.072,-0.01175,0.22225,0.0031889998,-0.0315095,-0.00013725001,1742093889.079488
0.071,-0.00975,0.25275,0.0026245,-0.03262325,0.00059500005,1742093889.09356
0.067,-0.009,0.266,0.00146475,-0.03155525,0.0013427499,1742093889.1097229
0.06,-0.008,0.269,-0.000229,-0.0290985,0.00146475,1742093889.1223838
0.04025,-0.0155,0.2605,-0.0008545,-0.0289155,0.0014037499,1742093889.13691
0.032,-0.021,0.26,-0.00109875,-0.030014,0.002121,1742093889.151398
0.033,-0.0245,0.279,-0.0003815,-0.030578502,0.00242625,1742093889.165835
0.03825,-0.0235,0.2945,0.00177,-0.02835075,0.002243,1742093889.180167
0.04375,-0.01175,0.317,0.0026245,-0.025390498,0.0017852499,1742093889.194474
0.043,-0.00825,0.3205,0.0030975002,-0.02180475,0.00112925,1742093889.209544
