acc_x,acc_y,acc_z,gyro_x,gyro_y,gyro_z,timestamp
0.23625,-0.0185,-0.061,-0.00109875,0.0031127501,-0.00086975005,1742093890.5190809
0.23575,-0.016,-0.0595,-0.000534,0.00090025004,-0.0005035,1742093890.532953
0.238,-0.009,-0.04925,7.625e-05,0.00033575002,-0.00080875,1742093890.548867
0.23825,-0.01025,-0.04775,0.00057975,0.000122000005,-0.00115975,1742093890.561884
0.2385,-0.01275,-0.047,0.000946,-0.00042725,-0.00119025,1742093890.5763142
0.24125,-0.013,-0.042,0.000885,-0.00054925,-0.000946,1742093890.590864
0.24275,-0.0125,-0.04275,0.00083925005,-0.0005035,-0.00062550005,1742093890.6054149
0.244,-0.0095,-0.04325,0.001114,-0.00061025,-0.00067150005,1742093890.620058
0.24425,-0.00875,-0.0435,0.0014037499,-0.000473,-0.0007935,1742093890.634453
0.2415,-0.00875,-0.0485,0.0012665,-0.00051875,-0.00062550005,1742093890.649787
0.24125,-0.007,-0.048,0.00080875,-0.00096125,-0.00039675,1742093890.663424
0.24325,-0.00625,-0.043,0.00070200005,-0.00105275,-0.00051875,1742093890.678925
0.243,-0.00775,-0.043,0.000763,-0.001068,-0.00068675,1742093890.692459
0.242,-0.01025,-0.0445,0.000885,-0.00112925,-0.00083925005,1742093890.70705
0.241,-0.01225,-0.04725,0.000885,-0.0012970001,-0.000763,1742093890.721597
0.24075,-0.012,-0.046,0.00090025004,-0.00160225,-0.0005035,1742093890.7360818
0.241,-0.01425,-0.0455,0.00090025004,-0.0016175,-0.00042725,1742093890.7506292
0.241,-0.014,-0.047,0.00149525,-0.0021819999,-0.00057975,1742093890.765117
0.241,-0.012,-0.05175,0.0018005001,-0.0026245,-0.00068675,1742093890.7797172
0.24125,-0.01225,-0.05175,0.0025634998,-0.0035095,-0.0009155,1742093890.7942421
0.241,-0.01425,-0.0495,0.0030365,-0.003952,-0.00102225,1742093890.808995
0.24125,-0.013,-0.0475,0.003128,-0.0043944996,-0.0010375,1742093890.823261
0.243,-0.01,-0.04625,0.0025025,-0.00520325,-0.0007935,1742093890.8377159
0.24425,-0.0085,-0.04575,0.00239575,-0.0056609996,-0.00077825,1742093890.852246
0.244,-0.00775,-0.04675,0.002884,-0.0072175004,-0.0012207499,1742093890.866708
0.23625,-0.00725,-0.05525,0.0027312501,-0.008346501,-0.00125125,1742093890.881249
0.233,-0.01,-0.05475,0.00143425,-0.0111085,-0.000763,1742093890.895691
0.238,-0.01625,-0.027,0.00119025,-0.012146,-0.00077825,1742093890.910153
0.24325,-0.01725,-0.00325,0.001419,-0.011627249,-0.00131225,1742093890.924702
0.25075,-0.0225,0.03525,0.00109875,-0.009521499,-0.00115975,1742093890.939253
0.2515,-0.02625,0.03825,0.0010375,-0.00331125,-0.00061025,1742093890.953589
0.2455,-0.02875,0.00875,0.001175,-0.001007,-0.00010675,1742093890.968044
0.24425,-0.01975,-0.0025,0.00080875,1.5250001e-05,0.00077825,1742093890.9824681
0.246,-0.00875,-0.00625,-0.000122000005,0.00042725,0.0023497501,1742093890.9969459
0.244,0.0055,-0.01675,-0.000412,0.00065625,0.002472,1742093891.0112572
0.236,0.00825,-0.02525,-0.000946,0.00051875,0.00187675,1742093891.025782
0.19525,0.023,-0.0765,-0.00071725,-0.00067150005,0.0012817499,1742093891.0414872
0.15525,0.0285,-0.1405,0.0025634998,-0.0148772495,0.0012207499,1742093891.054723
-0.002,-0.0125,-0.354,0.00643925,-0.0341645,0.00213625,1742093891.0693178
-0.111,-0.05825,-0.47125,0.009674,-0.06362925,0.002533,1742093891.083769
-0.35375,-0.10725,-0.64125,0.00054925,-0.14205925,0.0067597497,1742093891.099484
-0.48975,-0.102,-0.64125,-0.0101165,-0.187149,0.01396175,1742093891.1135628
-0.64275,-0.08375,-0.55975,-0.027282748,-0.2737885,0.03663625,1742093891.129132
-0.94,-0.00675,-0.209,-0.023346001,-0.30360425,0.04901125,1742093891.1429062
-1.0,-0.056,-0.01125,0.021789499,-0.33433524,0.057373002,1742093891.1591308
-1.0,-0.215,0.486,0.040451,-0.33551025,0.05508425,1742093891.172087
-0.998,-0.2345,0.8085,0.028564502,-0.2944335,0.0462495,1742093891.186696
-0.7845,-0.0595,1.0,0.00175475,-0.24794,0.049408,1742093891.201097
-0.58925,0.03875,1.0,-0.0010375,-0.14300525,0.054397497,1742093891.215659
-0.39475,0.11975,0.94,0.0157165,-0.092285246,0.046371497,1742093891.230077
-0.38475,0.1295,0.772,0.0072937496,-0.00331125,0.027404752,1742093891.244676
-0.34475,0.09425,0.299,0.000473,0.01794425,0.019042999,1742093891.259315
-0.275,0.05825,0.18475,0.00039675,0.0248565,0.010757499,1742093891.273216
-0.199,0.0245,0.16875,0.00434875,0.024353001,-0.000473,1742093891.2875268
-0.11275,0.0015,0.22025,0.00469975,0.0254365,-0.00317375,1742093891.301989
-0.11575,0.002,0.22275,0.0037995,0.030487,-0.009613,1742093891.316273
-0.18425,-0.00675,0.19575,0.0019225,0.032897998,-0.0135345,1742093891.330765
-0.20975,-0.017,0.17525,-0.000183,0.03120425,-0.014206001,1742093891.345475
-0.20075,-0.0405,0.16575,0.00177,0.0290985,-0.0125885,1742093891.359912
-0.18375,-0.049,0.17875,0.0043944996,0.028122,-0.011673001,1742093891.374395
-0.14875,-0.04825,0.22875,0.00531,0.03053275,-0.0112,1742093891.38898
-0.142,-0.03825,0.258,0.00381475,0.034073003,-0.011764499,1742093891.403376
-0.14675,-0.0255,0.27875,0.0038757501,0.042785753,-0.013778751,1742093891.419449
-0.1705,-0.01675,0.25875,0.00535575,0.046371497,-0.01289375,1742093891.4324899
-0.175,-0.02325,0.24125,-0.002365,0.05081175,-0.0077667497,1742093891.446948
-0.1575,-0.0345,0.22,-0.01345825,0.052474998,-0.0063934997,1742093891.461458
-0.1405,-0.039,0.2335,-0.01216125,0.05593875,-0.006073,1742093891.475976
-0.09975,-0.0325,0.30425,-0.00845325,0.05856325,-0.0064545004,1742093891.491637
-0.0925,-0.018,0.3225,-0.0079955,0.067504995,-0.009597749,1742093891.504978
-0.09625,0.02275,0.306,-0.0063325,0.07203675,-0.0110625,1742093891.519593
-0.09625,0.0355,0.27775,-0.0036010002,0.07437125,-0.01133725,1742093891.5339048
-0.09125,0.0325,0.2465,-0.002365,0.07095325,-0.00975025,1742093891.5489101
-0.069,-0.0145,0.21175,-0.00593575,0.06726075,-0.00897225,1742093891.563097
-0.0445,-0.0405,0.22125,-0.01446525,0.061752252,-0.0070647504,1742093891.579155
0.0,-0.05325,0.252,-0.01501475,0.061493002,-0.006836,1742093891.592062
0.013,-0.0415,0.25675,-0.00643925,0.063568,-0.0091705,1742093891.606624
0.02625,0.004,0.234,-0.001114,0.063446,-0.01054375,1742093891.6209311
0.02625,0.01675,0.211,0.0029145,0.057662997,-0.01020825,1742093891.635207
0.0505,-0.00175,0.19625,-0.00065625,0.053421002,-0.0080567505,1742093891.6497421
0.07225,-0.013,0.2105,-0.00621025,0.05001825,-0.00538625,1742093891.6641831
0.09125,-0.01225,0.226,-0.0112305,0.048935,-0.0021515,1742093891.679251
0.105,0.003,0.23025,-0.008194,0.0505675,-0.0029755002,1742093891.693176
0.105,0.007,0.2265,-0.00027475,0.05404675,-0.00671375,1742093891.709169
0.119,-0.006,0.2115,0.0010375,0.055694498,-0.007553,1742093891.722028
0.1265,-0.01175,0.204,-0.0013275,0.054504503,-0.0052185003,1742093891.7364779
0.13525,0.00275,0.189,-0.003128,0.053650003,-0.0034484998,1742093891.750754
0.14075,0.00025,0.18625,-0.0043335,0.05419925,-0.00263975,1742093891.76508
0.1465,-0.013,0.18825,-0.00340275,0.0585175,-0.003128,1742093891.77966
0.15925,-0.025,0.1815,-0.00154125,0.061905,-0.003296,1742093891.794053
0.155,-0.0135,0.15525,0.001648,0.06517025,-0.002777,1742093891.8097558
0.16025,0.003,0.1135,7.625e-05,0.063797005,-0.0023345,1742093891.822697
0.17175,0.00025,0.11375,-0.0055085,0.061767504,-0.0013885,1742093891.837034
0.18175,-0.008,0.10525,-0.0054932497,0.06279,-0.001114,1742093891.851559
0.1815,-0.02125,0.08675,-0.0012055,0.064499,-0.0007325,1742093891.8660638
0.18825,-0.009,0.0595,0.00029,0.06314075,-0.0001525,1742093891.8805408
0.19425,0.00475,0.05325,0.0008545,0.061828498,0.00048825,1742093891.895019
0.196,0.0015,0.05075,0.0038605002,0.06083675,0.0008545,1742093891.909624
0.18075,0.00125,0.0215,0.00744625,0.060668997,0.0,1742093891.92357
0.16025,0.00975,-0.0255,0.0127105,0.056778,-0.00181575,1742093891.937975
0.121,-0.019,-0.1455,0.012024,0.051422,-0.000946,1742093891.952352
0.11125,-0.02375,-0.19325,0.00770575,0.033661,0.0025634998,1742093891.966722
0.0125,0.027,-0.31925,0.006546,0.01968375,0.00440975,1742093891.980976
-0.07125,0.03825,-0.4465,0.006302,-0.0014495,0.00671375,1742093891.995872
-0.154,0.02,-0.615,0.0003205,-0.0741425,0.0068055,1742093892.009973
-0.3985,-0.02275,-0.7565,0.00193775,-0.12902825,0.0016175,1742093892.024472
-0.57825,-0.0935,-0.6925,0.0089569995,-0.25292975,-0.0027312501,1742093892.0390668
-0.956,-0.133,-0.28725,-0.00352475,-0.29986575,0.010757499,1742093892.053733
-1.0,-0.00325,-0.053,-0.028,-0.3427735,0.043258753,1742093892.069352
-1.0,-0.04725,0.34425,-0.01560975,-0.3497315,0.046737753,1742093892.082927
-0.99575,-0.23825,0.68525,0.02610775,-0.33354175,0.0370025,1742093892.0973618
-0.9075,-0.12525,1.0,0.018280001,-0.29805,0.037368752,1742093892.1118348
-0.7335,0.046,1.0,0.00112925,-0.249115,0.0420075,1742093892.126152
-0.374,0.16475,0.9895,-0.001114,-0.142273,0.043289248,1742093892.1424792
-0.304,0.15375,0.95575,0.00245675,-0.08506775,0.0402985,1742093892.15505
-0.30575,0.1375,0.79125,-0.00201425,0.008651749,0.029327499,1742093892.170078
-0.32,0.07625,0.24125,9.15e-05,0.028778,0.02244575,1742093892.1838698
-0.25525,0.03625,0.1,0.0123442495,0.0332185,0.0148925,1742093892.198967
-0.11925,0.0485,0.1555,0.016265752,0.02882375,0.0126495,1742093892.212447
-0.0915,0.07225,0.21275,0.015457249,0.0272065,0.0013580001,1742093892.2268002
-0.1315,0.04875,0.2295,0.01301575,0.030365,-0.0076295,1742093892.241652
-0.1745,0.02625,0.2115,0.0102235,0.0335235,-0.01599125,1742093892.2554529
-0.206,0.005,0.18575,0.009216251,0.031540003,-0.01930225,1742093892.269713
-0.21675,-0.03875,0.14875,0.0112305,0.02822875,-0.0164795,1742093892.284155
-0.20075,-0.051,0.158,0.0102235,0.0249635,-0.0105742505,1742093892.300106
-0.1535,-0.04975,0.21025,0.00764475,0.02563475,-0.00889575,1742093892.313073
-0.134,-0.046,0.23875,0.001587,0.03117375,-0.010147001,1742093892.329687
-0.12775,-0.02375,0.3005,-0.001068,0.03578175,-0.011673001,1742093892.342155
-0.14125,-0.0105,0.294,-0.0009155,0.04040525,-0.011673001,1742093892.3569238
-0.16575,-0.00375,0.21925,7.625e-05,0.04422,-0.008651749,1742093892.371273
-0.16025,-0.00975,0.1875,-0.0049895,0.043335,-0.008316,1742093892.385727
-0.14725,-0.0155,0.177,-0.0068207504,0.04069525,-0.00880425,1742093892.400256
-0.11625,-0.02825,0.22725,-0.001892,0.0399475,-0.009017999,1742093892.414707
-0.1,-0.0335,0.25875,0.00062550005,0.040420502,-0.00997925,1742093892.429385
-0.0925,-0.02125,0.287,0.00019825,0.042663503,-0.010009751,1742093892.4436631
-0.09475,-0.00875,0.27975,0.00201425,0.04682925,-0.00788875,1742093892.4595
-0.0855,-0.00475,0.24875,0.00296025,0.04667675,-0.0068969997,1742093892.4726222
-0.0765,-0.01325,0.24325,0.002121,0.045105,-0.0065612504,1742093892.487047
-0.04725,-0.02525,0.26125,-0.00354,0.043090753,-0.0072480002,1742093892.501652
-0.029,-0.0305,0.2785,-0.00564575,0.043472253,-0.008194,1742093892.516138
-0.0135,-0.032,0.29025,-0.00611875,0.046981752,-0.0103455,1742093892.530735
-0.0025,-0.0205,0.2905,-0.0045165,0.049560502,-0.01121525,1742093892.5452428
-0.00575,-0.01075,0.28,-0.00010675,0.05337525,-0.010376001,1742093892.559854
-0.00425,-0.0015,0.24175,0.0005645,0.0538025,-0.0081635,1742093892.574337
0.00775,-0.00925,0.2315,-0.0027312501,0.049774252,-0.0033875,1742093892.5888581
0.04825,-0.03225,0.26975,-0.0056,0.0494995,-0.0016632499,1742093892.6033332
0.06775,-0.03275,0.28475,-0.00621025,0.0572815,-0.0012207499,1742093892.617814
0.097,-0.00925,0.2925,-0.0039825,0.060714748,-0.00372325,1742093892.632243
0.10475,0.0035,0.296,-0.00177,0.06358325,-0.00737,1742093892.646744
0.10075,0.005,0.28675,0.00115975,0.07121275,-0.01200875,1742093892.66094
0.07725,-0.02475,0.23825,0.000885,0.073822,-0.010299751,1742093892.6752598
0.0805,-0.03975,0.21575,-0.00267025,0.075302005,-0.00036625,1742093892.6896179
0.10325,-0.0395,0.188,-0.00334175,0.076294,0.00343325,1742093892.703948
0.11125,-0.04,0.1795,0.0009155,0.0793305,0.00367725,1742093892.718142
0.12525,-0.04425,0.1795,0.0032655,0.0809785,0.0027312501,1742093892.732453
0.11975,-0.02975,0.1665,0.0053252503,0.08364875,0.0024414998,1742093892.746625
0.107,-0.01425,0.134,0.0057525,0.08795175,0.0041504996,1742093892.760853
0.1165,-0.01025,0.088,0.00137325,0.08668525,0.0060272496,1742093892.775129
0.13175,0.00425,0.08775,-0.00874325,0.084365755,0.0080415,1742093892.789422
0.13375,0.03075,0.0615,-0.0101775,0.084198,0.0064850003,1742093892.803628
0.13075,0.029,0.0355,-0.00593575,0.080017,-0.000229,1742093892.819363
0.1205,0.0285,-0.03225,-0.0012665,0.0760345,-0.0027160002,1742093892.8325188
0.11075,0.02725,-0.061,0.0034637498,0.07206725,-0.00328075,1742093892.8469691
0.095,0.01675,-0.0955,0.006607,0.0634765,-0.00074775,1742093892.861251
0.07875,-0.0155,-0.1715,0.0042115003,0.05673225,0.000183,1742093892.875548
0.06025,-0.017,-0.2115,0.00491325,0.0329285,0.00051875,1742093892.8911092
-0.08425,-0.00075,-0.416,0.0051880004,0.01358025,0.0019685,1742093892.904319
-0.166,-0.0235,-0.599,-0.008651749,-0.05488575,0.009323,1742093892.919092
-0.346,0.0035,-0.74625,-0.01814275,-0.105514504,0.0090637505,1742093892.9336488
-0.519,0.0005,-0.68575,-0.023376498,-0.16334525,0.0055085,1742093892.94959
-0.94225,-0.2035,-0.3185,-0.03312675,-0.28094476,0.01257325,1742093892.963083
-1.0,-0.2545,-0.0165,-0.03816225,-0.31915274,0.033432,1742093892.979462
-1.0,-0.1825,0.27275,-0.0058287503,-0.34603876,0.074295,1742093892.992254
-0.9955,-0.1115,0.8445,0.02696225,-0.34730524,0.071685754,1742093893.006664
-0.98375,-0.14,1.0,0.04800425,-0.31614676,0.036255002,1742093893.021127
-0.66675,0.0525,1.0,0.02180475,-0.27876276,0.02943425,1742093893.0355442
-0.376,0.1645,0.99825,-0.00672925,-0.16142274,0.05036925,1742093893.05007
-0.16725,0.31,0.97525,0.01498425,-0.088363744,0.047912497,1742093893.064445
-0.27475,0.3175,0.8145,0.05915825,0.0255585,0.017120251,1742093893.079975
-0.35225,0.17525,0.074,0.0542755,0.049743753,0.0046234997,1742093893.093041
-0.2555,0.05725,-0.10825,0.031845,0.0537415,-0.0022125002,1742093893.1075299
-0.14,-0.04075,-0.0785,-0.0065002497,0.031036502,-0.00367725,1742093893.122126
-0.03325,-0.073,0.166,-0.00842275,0.0227355,-0.0029449998,1742093893.136678
-0.0405,-0.04725,0.2165,-0.00064075,0.024047751,-0.00564575,1742093893.1514418
-0.11,-0.011,0.20375,-0.00146475,0.028716998,-0.0100555,1742093893.1659362
-0.16025,0.01625,0.175,-0.009017999,0.0321655,-0.014206001,1742093893.1803362
-0.20025,0.0175,0.09375,-0.00823975,0.0248565,-0.010086001,1742093893.194865
-0.181,-0.0095,0.104,-0.00384525,0.008636501,-0.0046234997,1742093893.209842
-0.12525,-0.04975,0.2015,-0.0021515,0.0054015,-0.003952,1742093893.22409
-0.1085,-0.05225,0.2415,3.0500001e-05,0.0054780003,-0.00352475,1742093893.238519
-0.102,-0.04775,0.258,0.0046845004,0.0112305,-0.00381475,1742093893.25304
-0.1125,-0.0395,0.25675,0.0057677496,0.014648501,-0.00466925,1742093893.267555
-0.1235,-0.0325,0.2475,0.0053709997,0.020324752,-0.0057220003,1742093893.281924
-0.147,-0.02675,0.207,0.00390625,0.021331752,-0.0055695,1742093893.296344
-0.14675,-0.0345,0.19925,-0.00308225,0.02082825,-0.0035704998,1742093893.3111832
-0.11475,-0.0455,0.251,-0.00564575,0.021225,-0.0023345,1742093893.325671
-0.1005,-0.04475,0.284,-0.0049895,0.026657,-0.002121,1742093893.342099
-0.0915,-0.015,0.31425,-0.0056609996,0.030777,-0.00434875,1742093893.354717
-0.0995,0.0135,0.30525,-0.00543225,0.03718575,-0.00782775,1742093893.3705049
-0.105,0.02675,0.23725,-0.0012817499,0.036911,-0.0064850003,1742093893.383774
-0.10075,0.00325,0.228,-0.00051875,0.034438998,-0.0045625,1742093893.399246
-0.09075,-0.02375,0.24425,-0.00801075,0.032486,-0.0027312501,1742093893.412879
-0.06025,-0.046,0.289,-0.009140001,0.0345,-0.002472,1742093893.429388
-0.04475,-0.0375,0.30475,-0.0033875,0.0419465,-0.00460825,1742093893.44237
-0.02725,-0.00175,0.3245,-0.00057975,0.047668498,-0.007187,1742093893.456416
-0.02625,0.02375,0.31575,0.00010675,0.055953998,-0.011139,1742093893.4709618
-0.02525,0.05475,0.27575,-0.001114,0.056274503,-0.011398249,1742093893.485315
-0.03075,0.0415,0.24975,-0.004303,0.051468,-0.009781,1742093893.4998531
-0.013,-0.01475,0.23975,-0.00691225,0.04830925,-0.008285499,1742093893.514436
0.0135,-0.03875,0.26725,-0.009582501,0.046524,-0.00621025,1742093893.529653
0.03925,-0.046,0.29625,-0.0078735,0.051788248,-0.0036010002,1742093893.544426
0.0535,-0.025,0.293,-0.0023345,0.056778,-0.0049895,1742093893.559613
0.04825,-0.008,0.26925,0.00637825,0.061905,-0.008270251,1742093893.572226
0.049,0.0205,0.23175,0.0055237496,0.06280525,-0.00782775,1742093893.586609
0.05225,0.0265,0.21975,-0.00328075,0.061889753,-0.0055085,1742093893.600928
0.0725,0.015,0.20875,-0.0071409997,0.05966175,-0.005066,1742093893.6152341
0.0935,-0.00025,0.22025,-0.00842275,0.058273252,-0.0051880004,1742093893.6297522
0.1085,-0.033,0.21975,-0.0017395001,0.061889753,-0.00614925,1742093893.644228
0.10725,-0.03775,0.20025,0.0032195,0.06399525,-0.0067445002,1742093893.659969
0.106,-0.03075,0.18175,0.0071409997,0.063156,-0.00538625,1742093893.6729548
0.1115,-0.00475,0.1625,0.00585925,0.061966,-0.0036162501,1742093893.687263
0.12075,0.00375,0.16275,0.0,0.060608003,-0.0019989999,1742093893.7016199
0.13925,-0.01325,0.159,-0.001831,0.060180753,-0.0024872501,1742093893.716019
0.1495,-0.0265,0.15375,-0.00068675,0.05865475,-0.0038299998,1742093893.730518
0.166,-0.02475,0.14375,0.0012970001,0.058700502,-0.00402825,1742093893.744916
0.17375,-0.019,0.1435,0.0036162501,0.05897525,-0.00402825,1742093893.76034
0.1825,-0.0075,0.14625,0.0061645,0.0619355,-0.004303,1742093893.773699
0.1735,0.00775,0.11125,0.00672925,0.06365975,-0.0051880004,1742093893.787916
0.16775,0.0005,0.075,0.004593,0.0611115,-0.0054015,1742093893.802081
0.17725,-0.02625,0.02675,0.0023345,0.05799875,-0.003769,1742093893.81641
0.17875,-0.03325,0.0165,0.00334175,0.05369575,-0.0008545,1742093893.830699
0.1715,-0.02525,-0.017,0.006775,0.05148325,-0.00109875,1742093893.8453162
0.16725,-0.009,-0.048,0.0099639995,0.048233002,-0.0022277501,1742093893.8598368
0.16325,-0.0,-0.0845,0.00852975,0.03822325,-0.00198375,1742093893.874315
0.148,-0.01475,-0.13375,0.0033264998,0.0319215,0.0005035,1742093893.890552
0.13025,-0.011,-0.155,-0.0029145,0.0162505,0.0061339997,1742093893.903231
0.06125,0.009,-0.24425,-0.00314325,0.0044707498,0.0081635,1742093893.917651
0.0115,-0.0165,-0.3295,-0.00720225,-0.0377655,0.0157775,1742093893.932208
-0.1415,-0.0885,-0.55275,-0.0155030005,-0.072174005,0.021698,1742093893.947006
-0.287,-0.0955,-0.5895,-0.03050225,-0.1778565,0.03433225,1742093893.961678
-0.68475,-0.13525,-0.40525,-0.038940497,-0.234909,0.04447925,1742093893.976318
-0.87475,-0.0725,-0.19675,-0.051574748,-0.30780026,0.076233,1742093893.9925702
-1.0,0.169,0.14075,-0.032547,-0.32695,0.081893995,1742093894.0054982
-1.0,0.1315,0.23275,0.001175,-0.34187326,0.07630925,1742093894.0198169
-1.0,0.05975,0.431,0.034378,-0.3474425,0.04650875,1742093894.034229
-0.978,0.123,0.96175,0.016113251,-0.330719,0.03668225,1742093894.049174
-0.8525,0.22975,1.0,-0.032333247,-0.23960875,0.048294,1742093894.063031
-0.3375,0.3385,1.0,-0.026092501,-0.15101625,0.0468445,1742093894.078996
-0.3165,0.3135,0.878,-0.0050965,0.00697325,0.02023325,1742093894.091842
-0.50325,0.108,0.05175,-0.00355525,0.03433225,0.00924675,1742093894.1062028
-0.43475,-0.0025,-0.14075,-0.00343325,0.0308075,0.00413525,1742093894.120725
-0.14925,-0.048,0.17875,0.0070495,0.008377,0.008270251,1742093894.135104
-0.054,0.006,0.3075,0.01454175,0.01127625,0.0115815,1742093894.149857
-0.02425,0.07275,0.322,0.0159455,0.03019725,0.00621025,1742093894.1636212
-0.098,0.11125,0.20675,0.011856,0.0368805,-0.0019685,1742093894.179821
-0.1655,0.08175,0.1645,0.0048217503,0.03842175,-0.015396,1742093894.1923132
-0.2435,-0.001,0.13375,0.0038757501,0.03601075,-0.0166625,1742093894.206802
-0.243,-0.01725,0.1505,0.009948749,0.03329475,-0.014938249,1742093894.221399
-0.21025,0.004,0.20625,0.014389,0.032959,-0.014557,1742093894.2356758
-0.1835,0.02075,0.24725,0.01649475,0.03341675,-0.014663749,1742093894.249995
-0.1595,0.04125,0.28975,0.0133667495,0.0415955,-0.016861,1742093894.264391
-0.169,0.086,0.31775,0.01222225,0.047943,-0.01914975,1742093894.280204
-0.191,0.09125,0.3125,0.00564575,0.05783075,-0.01997375,1742093894.293213
-0.19575,0.04375,0.2065,0.00016775,0.061264,-0.0193635,1742093894.307488
-0.1815,0.01175,0.19125,0.0009155,0.060928248,-0.01776125,1742093894.321837
-0.1355,-0.01175,0.26125,-0.00108325,0.060287498,-0.0158385,1742093894.33637
-0.1105,0.00175,0.2975,-0.002777,0.0619355,-0.0141145,1742093894.3508081
-0.093,0.03575,0.3135,0.002411,0.069793746,-0.0153807495,1742093894.3651998
-0.0945,0.0895,0.27275,0.00747675,0.0726775,-0.0169525,1742093894.3797271
-0.103,0.08475,0.224,0.0088195,0.0712585,-0.017517,1742093894.394078
-0.085,0.01625,0.15475,0.0050965,0.06637575,-0.0166015,1742093894.4096699
-0.06325,-0.01725,0.1575,-0.00039675,0.0526275,-0.014068499,1742093894.423142
-0.006,-0.03625,0.21675,0.00080875,0.0484925,-0.012176501,1742093894.437543
0.01625,-0.019,0.23275,0.005844,0.04862975,-0.00782775,1742093894.452058
0.02825,0.04925,0.2255,0.006363,0.049194247,-0.006836,1742093894.466413
0.02775,0.0655,0.212,0.0054475004,0.04872125,-0.006546,1742093894.4806201
0.02625,0.05975,0.19275,0.00036625,0.0446015,-0.0055085,1742093894.495035
0.0385,0.0025,0.1705,-0.0031585,0.04090875,-0.0039215,1742093894.509419
0.06175,-0.01575,0.18825,-0.00596625,0.035034247,-0.001068,1742093894.5238311
0.1,0.0005,0.2415,-0.0020752498,0.03578175,-0.0015565,1742093894.538205
0.105,0.01775,0.2445,0.008667,0.03910825,-0.006073,1742093894.552598
0.097,0.05425,0.219,0.009842,0.039184503,-0.008316,1742093894.5668569
0.0905,0.049,0.2035,0.007782,0.03854375,-0.009201,1742093894.581101
0.09475,0.026,0.1995,-0.001648,0.037323,-0.00694275,1742093894.595534
0.12675,-0.01825,0.235,-0.0050812503,0.0388335,-0.0050812503,1742093894.6099992
0.1365,-0.0235,0.2495,-0.00160225,0.045700002,-0.0036010002,1742093894.624466
0.13225,0.00825,0.22,0.0025940002,0.048233002,-0.0045625,1742093894.639049
0.13025,0.01225,0.19375,0.00453175,0.04800425,-0.00694275,1742093894.6534069
0.15025,0.002,0.18775,0.001892,0.04747,-0.0060882503,1742093894.6690729
0.15625,-0.00125,0.19475,3.0500001e-05,0.048339747,-0.0037385002,1742093894.681977
0.16875,0.00675,0.19475,0.0029755002,0.05101025,0.0003815,1742093894.696332
0.17525,0.02175,0.192,0.0048217503,0.05230725,0.00033575002,1742093894.710517
0.1795,0.03025,0.184,0.0062712496,0.0561065,-0.00296025,1742093894.725028
0.179,0.00925,0.12975,0.0063934997,0.0574035,-0.00416575,1742093894.741643
0.185,-0.011,0.10475,0.0053252503,0.05574025,-0.0032195,1742093894.753751
0.207,-0.00475,0.11025,0.0043639997,0.054367002,-0.00242625,1742093894.770345
0.203,0.01225,0.10775,0.00590525,0.05552675,-0.00328075,1742093894.782781
0.18775,-0.00525,0.05775,0.0080872495,0.05476375,-0.0045777503,1742093894.797227
0.19525,-0.01675,0.04075,0.009491,0.0520325,-0.0053709997,1742093894.811626
0.2045,-0.01775,0.03375,0.010528499,0.04841625,-0.00267025,1742093894.825931
0.19325,-0.006,-0.01225,0.00982675,0.047104,0.00013725001,1742093894.841839
0.1825,-0.01,-0.0445,0.00369275,0.0384675,0.0048979996,1742093894.8546739
0.1345,0.00525,-0.11225,0.003128,0.03070075,0.0051574996,1742093894.869846
0.07925,0.03025,-0.19325,0.0069885002,0.00505075,0.006607,1742093894.8833191
-0.05225,-0.01375,-0.4995,0.0070647504,-0.021164,0.008773751,1742093894.899422
-0.13325,-0.02525,-0.581,0.00488275,-0.06185925,0.009948749,1742093894.9124322
-0.25675,-0.0375,-0.5855,-0.00016775,-0.16726676,0.01171875,1742093894.927028
-0.56125,-0.1,-0.45975,-0.00982675,-0.21708675,0.01930225,1742093894.9417799
-0.7345,-0.03975,-0.33275,-0.05426025,-0.28376776,0.04853825,1742093894.956495
-1.0,0.1555,-0.016,-0.06643675,-0.30192575,0.057724,1742093894.9710011
-1.0,0.11675,0.1535,-0.0058287503,-0.33218375,0.05075075,1742093894.9855628
-0.99975,-0.06225,0.5245,0.031601,-0.34176624,0.0385285,1742093895.000053
-0.994,0.0105,0.78175,-0.0051574996,-0.31092826,0.03933725,1742093895.014465
-0.68,0.22875,1.0,-0.03306575,-0.25239548,0.053085253,1742093895.029724
-0.387,0.26375,1.0,-0.015274,-0.0797425,0.04901125,1742093895.043974
-0.40425,0.25125,0.67175,-0.0017395001,-0.002121,0.03627025,1742093895.059936
-0.52825,0.16175,0.1915,0.0033264998,0.04331975,0.02449025,1742093895.072213
-0.50375,0.043,-0.1225,0.00201425,0.03666675,0.012741,1742093895.0865018
-0.20775,-0.004,0.12825,0.0042572496,0.019775499,0.0137635,1742093895.100821
-0.08775,0.053,0.29675,0.0119934995,0.02056875,0.012085,1742093895.115194
-0.0535,0.1395,0.27275,0.011398249,0.030639749,0.0054475004,1742093895.130384
-0.095,0.11875,0.185,0.00517275,0.03862,-0.012405501,1742093895.1438138
-0.18325,0.041,0.14125,0.001236,0.035736,-0.017974751,1742093895.159622
-0.21225,0.019,0.159,0.000534,0.0328065,-0.019744748,1742093895.172728
-0.2245,0.00125,0.17225,0.0078125,0.03144825,-0.016128499,1742093895.187317
-0.20275,-0.012,0.202,0.0114744995,0.032409754,-0.0139770005,1742093895.2018292
-0.1825,0.005,0.222,0.019897498,0.03639225,-0.01408375,1742093895.2161942
-0.16075,0.0355,0.24425,0.02442925,0.03923025,-0.015518251,1742093895.230732
-0.15425,0.03325,0.24325,0.02211,0.04505925,-0.016739,1742093895.245114
-0.151,0.02275,0.22175,0.0148925,0.047287,-0.016037,1742093895.2595499
-0.15225,0.0155,0.20975,0.01345825,0.04756175,-0.011139,1742093895.273917
-0.14575,-0.00925,0.1685,0.012756251,0.0456695,-0.00839225,1742093895.288505
-0.133,-0.012,0.1675,0.009277251,0.042236254,-0.00646975,1742093895.3029199
-0.1125,-0.008,0.19825,0.0053709997,0.037231497,-0.0045625,1742093895.317491
-0.0855,-0.00125,0.25075,0.00640875,0.0383605,-0.00340275,1742093895.331878
-0.0795,-0.0025,0.2595,0.0066985004,0.044067502,0.00190725,1742093895.346211
-0.0865,0.00275,0.25425,0.0059815003,0.045349,0.0046234997,1742093895.360699
-0.09325,0.005,0.237,0.0058135,0.03842175,0.0040587503,1742093895.3752341
-0.07075,-0.02175,0.218,0.006073,0.033325247,0.0020295,1742093895.391724
-0.05175,-0.0295,0.227,0.0048979996,0.03132625,0.0003815,1742093895.4037912
-0.0245,-0.01775,0.2595,0.0050812503,0.03421025,-0.00071725,1742093895.419869
-0.0125,-0.00225,0.27475,0.006256,0.03819275,-0.0030365,1742093895.4329169
-0.00825,0.01225,0.2845,0.00801075,0.0454865,-0.0032655,1742093895.447305
-0.01825,0.01425,0.26075,0.00555425,0.0455475,0.0013580001,1742093895.461759
-0.021,0.00175,0.2335,-0.00587475,0.036148,0.009292499,1742093895.476245
-0.003,-0.03775,0.2225,-0.0100707505,0.031967252,0.008865249,1742093895.491437
0.0205,-0.052,0.24775,-0.009292499,0.03344725,0.0032347501,1742093895.5051048
0.06775,-0.02425,0.31525,-0.0059205,0.03923025,-0.000229,1742093895.519569
0.0745,0.01525,0.33125,-0.0021057501,0.046524,-0.0029907501,1742093895.5338361
0.0665,0.0505,0.323,0.0029145,0.05752575,-0.00027475,1742093895.5492449
0.04,0.054,0.2335,0.001236,0.059753504,0.0058135,1742093895.56222
0.03775,0.01075,0.20375,-0.009658749,0.057373002,0.01206975,1742093895.576662
0.07725,-0.03675,0.2125,-0.013702501,0.05075075,0.00811775,1742093895.592201
0.10475,-0.0485,0.2345,-0.0078125,0.044464,-0.00328075,1742093895.605479
0.1395,-0.02875,0.27125,0.000229,0.0486145,-0.00842275,1742093895.61986
0.141,-0.00075,0.26875,0.00738525,0.0546875,-0.012496999,1742093895.63428
0.11325,0.048,0.22975,0.011031999,0.06375125,-0.015457249,1742093895.6489758
0.1085,0.0295,0.1885,0.0088805,0.064071745,-0.011734,1742093895.6631072
0.1135,-0.00975,0.14625,0.00086975005,0.057251,-0.001175,1742093895.679301
0.15525,-0.05425,0.144,-0.003418,0.053756747,0.002121,1742093895.691783
0.18075,-0.04275,0.176,-0.0018005001,0.056274503,0.00239575,1742093895.706109
0.1825,0.0025,0.19375,0.0032655,0.06166075,-0.0012207499,1742093895.720438
0.1665,0.001,0.17225,0.006302,0.0664215,-0.0065307496,1742093895.734577
0.14775,-0.016,0.0975,0.0039825,0.0645905,-0.0044707498,1742093895.749815
0.1425,-0.02775,0.051,0.00201425,0.06056225,0.0003815,1742093895.7632298
0.14675,-0.04075,0.017,0.00112925,0.04776,0.010299751,1742093895.777727
0.174,-0.038,0.02125,0.0028074998,0.041931253,0.0119934995,1742093895.79202
0.16925,-0.01975,0.022,0.010879501,0.03578175,0.00968925,1742093895.80634
0.0985,0.02925,-0.0565,0.01200875,0.03141775,0.008361749,1742093895.8207061
0.0355,0.033,-0.1385,0.0113525,0.0072937496,0.012085,1742093895.834928
-0.13575,-0.0155,-0.466,0.014389,-0.016570998,0.01330575,1742093895.8496451
-0.24975,-0.00125,-0.6205,0.018158002,-0.05160525,0.01036075,1742093895.8640058
-0.3845,0.03,-0.66025,0.020141501,-0.15013126,0.0019989999,1742093895.8794281
-0.70975,0.0235,-0.48175,0.010086001,-0.2019805,-0.000229,1742093895.893019
-0.89025,0.04025,-0.29125,-0.02970875,-0.29234326,-0.00093075,1742093895.9095922
-1.0,0.01525,0.23325,-0.03462225,-0.3207855,-0.00190725,1742093895.922379
-1.0,-0.09975,0.5275,0.0007935,-0.33686826,-0.006546,1742093895.9369972
-0.98525,-0.07175,0.9925,0.001648,-0.32876575,-0.00102225,1742093895.951592
-0.91125,0.02175,1.0,-0.015915,-0.2709045,0.026397752,1742093895.965995
-0.4825,-0.01575,1.0,-0.0022735,-0.2176665,0.030883752,1742093895.980721
-0.3065,-0.0475,0.992,0.019470248,-0.051712003,0.029831,1742093895.995224
-0.4235,0.07175,0.543,0.024108998,0.01640325,0.032424998,1742093896.0097542
-0.456,0.1195,0.16075,0.0267945,0.04745475,0.031845,1742093896.023577
-0.3495,0.114,-0.01125,0.016418502,0.03556825,0.020752002,1742093896.037942
-0.0635,0.01975,0.157,0.00817875,0.02598575,0.0154115,1742093896.0522282
-0.0185,0.00075,0.2045,0.002777,0.02845775,0.0088805,1742093896.0666869
-0.09275,0.01575,0.11325,0.00276175,0.03067025,0.0050202496,1742093896.081022
-0.14775,0.02325,0.07725,0.0035095,0.0243225,-0.00276175,1742093896.095521
-0.191,0.002,0.0815,0.00491325,0.019104,-0.0047912505,1742093896.109835
-0.191,-0.01325,0.11325,0.0047150003,0.014800999,-0.00561525,1742093896.124395
-0.18725,-0.0235,0.14975,-0.00378425,0.012039251,-0.0038757501,1742093896.138998
-0.179,-0.0235,0.19625,-0.0075072497,0.01322925,-0.002411,1742093896.153588
-0.18325,-0.01675,0.20025,-0.0067445002,0.016327,-7.625e-05,1742093896.168104
-0.18925,-0.0115,0.16775,-0.0056,0.01620475,0.00045775,1742093896.182483
-0.18375,-0.01825,0.15875,-0.006012,0.01351925,-0.0010375,1742093896.1969721
-0.169,-0.0475,0.17375,-0.0062255003,0.01194775,-0.001953,1742093896.2115278
-0.17025,-0.05825,0.18375,-0.00276175,0.0090637505,-0.00340275,1742093896.226023
-0.16425,-0.0365,0.17875,-0.000763,0.0078735,-0.0026092501,1742093896.2420638
-0.1615,-0.026,0.1835,-0.0008545,0.0080567505,-0.00064075,1742093896.255276
-0.1585,-0.02025,0.1945,-0.0014037499,0.011398249,0.00149525,1742093896.269773
-0.1565,-0.0105,0.2155,-0.00157175,0.011825499,0.001068,1742093896.284207
-0.1555,-0.01,0.22325,-0.0036162501,0.01194775,-0.0016632499,1742093896.2994509
-0.152,-0.021,0.23025,-0.00440975,0.013290499,-0.0023039998,1742093896.313141
-0.1525,-0.02775,0.22525,-0.0048217503,0.015213001,-0.00115975,1742093896.329403
-0.14775,-0.02675,0.23225,-0.00428775,0.01596075,-0.001419,1742093896.342079
-0.138,-0.0215,0.247,-0.002777,0.021698,-0.00531,1742093896.3565671
-0.123,-0.01725,0.276,-0.0021819999,0.027176,-0.0075225,1742093896.371111
-0.12025,-0.018,0.2925,-0.0020599999,0.033035252,-0.0085755,1742093896.385626
-0.1225,-0.0175,0.305,-0.0050355,0.040207002,-0.00488275,1742093896.400098
-0.13875,-0.02575,0.28375,-0.008072,0.04151925,-0.00193775,1742093896.414569
-0.14375,-0.0235,0.25975,-0.013092,0.0462495,-0.00283825,1742093896.429404
-0.101,-0.015,0.267,-0.008651749,0.05068975,-0.0051574996,1742093896.44359
-0.06825,-0.0195,0.2885,-0.00561525,0.05880725,-0.0097045,1742093896.459714
-0.0435,-0.023,0.3125,-0.008209251,0.062973,-0.010437001,1742093896.47259
-0.04675,-0.0025,0.31475,-0.00791925,0.069992,-0.009262,1742093896.487125
-0.08025,0.0365,0.276,-0.00154125,0.069213755,-0.007553,1742093896.501594
-0.08475,0.02275,0.23875,0.0073242504,0.0645905,-0.0052337497,1742093896.516007
-0.07225,-0.00575,0.21275,0.015518251,0.054382253,-0.0031127501,1742093896.530747
0.00375,-0.04575,0.246,0.0128175,0.052612253,-0.00263975,1742093896.5451179
0.04,-0.04625,0.281,0.0075377496,0.057556253,-0.0023497501,1742093896.559621
0.06025,-0.0105,0.31775,0.0066374997,0.061889753,-0.0043944996,1742093896.5737128
0.046,0.013,0.31175,0.0057525,0.068039,-0.00842275,1742093896.587994
0.021,0.01925,0.259,0.00488275,0.068863,-0.00947575,1742093896.6024141
0.0285,0.00025,0.233,0.001892,0.067871004,-0.009323,1742093896.616574
0.07475,-0.042,0.228,0.0009155,0.06622325,-0.0076905,1742093896.6310048
0.10075,-0.05125,0.2425,0.0010375,0.064819254,-0.0056304997,1742093896.64539
0.11475,-0.046,0.24925,0.0058287503,0.0671845,-0.0039825,1742093896.659737
0.102,-0.016,0.2135,0.00976575,0.06909175,-0.00372325,1742093896.674129
0.0935,-0.00225,0.18125,0.0114440005,0.06675725,-0.00225825,1742093896.688481
0.12125,-0.01425,0.1655,0.0077972496,0.0640565,-0.0027312501,1742093896.70302
0.138,-0.0275,0.1705,0.00399775,0.06279,-0.00372325,1742093896.71739
0.149,-0.0415,0.15375,0.0057677496,0.0631255,-0.0041810004,1742093896.731671
0.15725,-0.0345,0.1475,0.008072,0.063263,-0.0041810004,1742093896.746005
0.167,-0.01925,0.142,0.0114135,0.06451425,-0.001068,1742093896.760364
0.16475,-0.025,0.1045,0.010818499,0.065032996,0.0017395001,1742093896.774587
0.16525,-0.044,0.08475,0.0045777503,0.06216425,0.00897225,1742093896.788851
0.1635,-0.04625,0.04325,0.0028229998,0.059097253,0.0113525,1742093896.8031318
0.1505,-0.02675,0.01025,0.0055847503,0.04986575,0.0072937496,1742093896.817306
0.09875,0.0125,-0.08175,0.0079345,0.043213002,0.0038605002,1742093896.831605
0.057,0.02775,-0.15275,0.008865249,0.03421025,0.0037537501,1742093896.8458822
-0.0075,0.0195,-0.2615,0.0049742498,0.00083925005,0.013793999,1742093896.860322
-0.19375,0.006,-0.54275,-0.00010675,-0.029358,0.01678475,1742093896.874924
-0.29625,0.046,-0.5945,-0.009017999,-0.121612504,0.011764499,1742093896.8916101
-0.56225,0.04,-0.5615,-0.016128499,-0.17362975,0.00767525,1742093896.90412
-0.73125,0.035,-0.4775,-0.0485535,-0.265335,0.00801075,1742093896.919204
-1.0,0.1405,-0.1065,-0.05334475,-0.3005065,0.010009751,1742093896.9333062
-1.0,0.0905,0.13325,-0.003418,-0.34426874,-0.0046539996,1742093896.947801
-0.9935,-0.02925,0.82225,0.00488275,-0.3483735,-0.01200875,1742093896.9623559
-0.9105,0.0395,1.0,-0.021636998,-0.335785,-0.0074615004,1742093896.976872
-0.72675,0.08125,1.0,-0.053100497,-0.24768075,0.029571502,1742093896.991456
-0.353,-0.0725,0.99725,-0.021636998,-0.1744995,0.039779752,1742093897.005824
-0.321,-0.05025,0.95825,0.027130252,-0.025177,0.0453185,1742093897.020382
-0.4615,0.15675,0.481,0.033264253,0.019744748,0.04385375,1742093897.034583
-0.41525,0.15225,0.21925,0.0301055,0.0421905,0.027542,1742093897.04956
-0.1615,-0.01225,0.14325,0.024047751,0.037887502,0.02230825,1742093897.0633721
-0.0755,-0.0495,0.18275,0.012024,0.033203,0.019134501,1742093897.077796
-0.06525,0.011,0.19775,0.0070342496,0.035293497,0.0155030005,1742093897.092841
-0.09,0.03575,0.1865,0.0020295,0.0382385,0.00839225,1742093897.106293
-0.1235,0.03825,0.2,-0.009796251,0.04078675,-0.0076295,1742093897.12097
-0.2125,0.02125,0.21,-0.009277251,0.04190075,-0.010849,1742093897.135694
-0.233,-0.004,0.16775,0.003418,0.0390625,-0.00985725,1742093897.15017
-0.1995,-0.0415,0.168,0.0047607496,0.034835752,-0.008590749,1742093897.164577
-0.15875,-0.0395,0.21925,0.001648,0.0329285,-0.0068512503,1742093897.1793568
-0.08825,-0.02625,0.29875,0.00080875,0.035446253,-0.00637825,1742093897.1935842
-0.08875,-0.008,0.31225,0.00061025,0.0443115,-0.006012,1742093897.209406
-0.14325,0.01825,0.23325,-0.0020599999,0.046768248,-0.0073242504,1742093897.2224488
-0.16325,0.016,0.1735,-0.002655,0.045608502,-0.0090637505,1742093897.2369778
-0.1625,-0.00375,0.14425,0.0061035,0.0345155,-0.00747675,1742093897.2514648
-0.11925,-0.05225,0.183,0.0030669998,0.0298615,-0.0050355,1742093897.265871
-0.09175,-0.066,0.21925,-0.00662225,0.03050225,-0.00090025004,1742093897.280389
-0.05225,-0.0245,0.276,-0.00643925,0.03512575,-0.0005035,1742093897.294966
-0.05625,0.003,0.276,0.00517275,0.04588325,-0.00035100002,1742093897.309877
-0.086,0.0055,0.2465,0.00833125,0.047607496,0.00024425,1742093897.3238862
-0.08675,-0.01525,0.22225,9.15e-05,0.038681,0.00065625,1742093897.338298
-0.07175,-0.06325,0.20575,-0.0046539996,0.03344725,-0.00061025,1742093897.3528929
-0.04075,-0.07825,0.22925,-0.0068055,0.031433,-0.0024872501,1742093897.369144
-0.0115,-0.079,0.2575,-0.001236,0.0383605,-0.0048065,1742093897.382067
-0.0025,-0.01775,0.2745,0.00416575,0.042465247,-0.003891,1742093897.396493
-0.00925,0.00425,0.262,0.00868225,0.041366503,0.0020905002,1742093897.410795
-0.00725,-0.00575,0.24175,0.0037995,0.037704498,0.00469975,1742093897.425187
0.00725,-0.02525,0.25125,-0.0100555,0.034851003,0.0072937496,1742093897.4396942
0.0485,-0.0595,0.2875,-0.013626001,0.0378265,0.00741575,1742093897.454087
0.06225,-0.058,0.3035,-0.0129395,0.04986575,0.0045012496,1742093897.469366
0.0665,-0.016,0.30725,-0.010238751,0.0554505,0.00225825,1742093897.4828138
0.063,-0.001,0.28775,-0.0075072497,0.058471747,0.00035100002,1742093897.49726
0.06025,0.003,0.26175,-0.009506251,0.054550253,-0.001419,1742093897.511563
0.0755,-0.0215,0.23725,-0.01490775,0.0507355,-0.00013725001,1742093897.52597
0.09175,-0.0375,0.23875,-0.02095025,0.05163575,0.00444025,1742093897.540372
0.11325,-0.039,0.24275,-0.017455999,0.05496225,0.0047302498,1742093897.5548952
0.11725,-0.026,0.23875,-0.006073,0.05941775,0.00109875,1742093897.5699022
0.10125,-0.001,0.194,-0.0020295,0.058792,-0.00137325,1742093897.584033
0.09375,0.0055,0.16225,-0.00027475,0.05581675,-0.00355525,1742093897.599637
0.09775,0.0005,0.14025,-0.0012665,0.04765325,-0.00453175,1742093897.6127412
0.14675,-0.0365,0.15275,-0.0020752498,0.04544075,-0.0022125002,1742093897.627195
0.1705,-0.04325,0.1655,0.0032655,0.045715246,0.0039825,1742093897.641505
0.169,-0.02875,0.14825,0.00947575,0.046203498,0.0052947504,1742093897.655798
0.16425,-0.007,0.13425,0.017700251,0.046081502,0.0043944996,1742093897.670093
0.1675,0.02225,0.12025,0.018707251,0.045349,0.00308225,1742093897.6842308
0.17675,0.0145,0.12275,0.018509,0.04441825,0.0020599999,1742093897.699945
0.19,-0.00275,0.125,0.01643375,0.04312125,0.0026245,1742093897.7125561
0.202,-0.00325,0.135,0.016159,0.043335,0.0036162501,1742093897.726955
0.18275,0.012,0.115,0.0203095,0.04467775,0.000763,1742093897.742642
0.14075,0.02225,0.0245,0.021347,0.042923,-0.0012665,1742093897.7554638
0.13175,0.02475,-0.0135,0.017517,0.03208925,-0.00334175,1742093897.770137
0.08675,0.04175,-0.06475,0.014267,0.02418525,-0.00393675,1742093897.784201
0.03325,0.063,-0.1065,0.012024,0.015396,-0.004242,1742093897.799175
-0.034,0.07275,-0.1895,0.014419501,-0.01092525,-0.0052185003,1742093897.812984
-0.2305,0.05575,-0.44475,0.014679,-0.0334015,-0.010238751,1742093897.829261
-0.3635,0.04925,-0.51775,0.0033722501,-0.111023,-0.02934275,1742093897.842628
-0.60825,0.01225,-0.3525,-0.00538625,-0.1625365,-0.03585825,1742093897.85668
-0.72275,0.0385,-0.17475,-0.019592252,-0.24830624,-0.036026,1742093897.871257
-0.97775,0.0685,0.18575,-0.02250675,-0.276764,-0.04190075,1742093897.8858628
-1.0,-0.01875,0.4175,-0.0244445,-0.30479425,-0.06277475,1742093897.900466
-0.8605,-0.17975,0.94675,-0.038742002,-0.30432126,-0.058288503,1742093897.9150379
-0.64125,-0.20475,1.0,-0.062179502,-0.29296875,-0.03604125,1742093897.929666
-0.19425,-0.2515,1.0,-0.042846747,-0.22546375,0.017730748,1742093897.944192
-0.09725,-0.20175,0.994,-0.00231925,-0.16136175,0.026702998,1742093897.959881
-0.149,-0.065,0.93825,0.039215,-0.01782225,0.03964225,1742093897.9732962
-0.435,0.16175,0.38975,0.040573,0.016296498,0.040069498,1742093897.987714
-0.42825,0.13125,0.15775,0.0232085,0.02421575,0.019927999,1742093898.0020301
-0.1745,-0.0025,0.1595,0.0116425,0.02452075,0.01177975,1742093898.0166929
-0.081,-0.0105,0.22875,-0.00102225,0.030899,0.001419,1742093898.031083
-0.069,0.00225,0.24675,-0.005005,0.0341035,-0.002884,1742093898.045471
-0.099,-0.0125,0.24025,-0.01620475,0.0434875,-0.01498425,1742093898.0600362
-0.17025,0.0005,0.25725,-0.01927175,0.0484315,-0.01968375,1742093898.0745568
-0.20725,0.01375,0.23675,-0.0151215,0.04995725,-0.020446751,1742093898.088974
-0.23275,0.001,0.18775,0.00033575002,0.042846747,-0.014358499,1742093898.1033359
-0.22125,-0.03725,0.15025,0.00067150005,0.039734002,-0.011901749,1742093898.119133
-0.18625,-0.04575,0.17025,-0.004242,0.036376998,-0.0106965,1742093898.1323578
-0.10775,-0.05325,0.24125,-0.00708,0.03572075,-0.011078,1742093898.146962
-0.08325,-0.04625,0.27675,-0.01608275,0.04040525,-0.0123595,1742093898.161579
-0.10225,0.00775,0.27275,-0.01675425,0.04344175,-0.0122375,1742093898.175974
-0.12425,0.0095,0.22075,0.0,0.04356375,-0.0073242504,1742093898.1921449
-0.144,-0.01175,0.15275,0.0046539996,0.040741,-0.00369275,1742093898.204879
-0.12975,-0.015,0.149,0.00251775,0.037674,-0.0013427499,1742093898.2202392
-0.10775,-0.01425,0.16425,-0.0057372497,0.03152475,-0.0016175,1742093898.233804
-0.049,-0.0195,0.23375,-0.00720225,0.02908325,-0.00296025,1742093898.249687
-0.02175,-0.028,0.26925,-0.00747675,0.029663,-0.0049285004,1742093898.262804
-0.01975,-0.00575,0.29825,-0.006836,0.032409754,-0.0055695,1742093898.27738
-0.04075,0.01425,0.277,-0.00039675,0.0359955,-0.0058287503,1742093898.29189
-0.0725,-0.0015,0.2,0.0018005001,0.035263002,-0.0041504996,1742093898.306261
-0.06575,-0.01425,0.1875,-0.00279225,0.03034975,-0.00062550005,1742093898.320873
-0.0225,-0.02625,0.227,-0.0053405,0.027679501,-0.00019825,1742093898.335388
0.00375,-0.03025,0.25625,-0.0062865,0.026245002,-0.000534,1742093898.34981
0.02875,-0.0355,0.28075,-0.00469975,0.0288085,-0.0016632499,1742093898.3641999
0.044,-0.018,0.29425,-0.0038299998,0.032364,-0.0021515,1742093898.379379
0.0315,0.011,0.2815,-0.0020752498,0.0376435,-0.003662,1742093898.392985
-0.004,0.0395,0.2215,-0.00125125,0.03768925,-0.00343325,1742093898.407464
-0.00675,0.0205,0.20075,-0.0055085,0.03382875,0.00030525,1742093898.421875
0.0285,-0.021,0.227,-0.009262,0.03215025,0.0025634998,1742093898.436213
0.05375,-0.03225,0.25325,-0.010742251,0.031540003,0.0038605002,1742093898.4505758
0.09725,-0.037,0.28525,-0.00672925,0.034256,0.0019989999,1742093898.4648829
0.0975,-0.0125,0.2815,-0.00469975,0.037490748,-0.00019825,1742093898.479464
0.079,0.0215,0.26275,-0.00320425,0.041702252,-0.0052642496,1742093898.493811
0.04275,0.04325,0.19625,-0.0036010002,0.041076753,-0.00614925,1742093898.509439
0.04325,0.02675,0.17575,-0.00708,0.035675,-0.0021057501,1742093898.5225558
0.08,-0.015,0.188,-0.008316,0.032776,0.00067150005,1742093898.5368729
0.10225,-0.02725,0.20475,-0.00561525,0.030716,0.00251775,1742093898.551188
0.1315,-0.01775,0.2185,-0.0025787498,0.0314025,0.00198375,1742093898.5655522
0.138,-0.0055,0.217,-0.000412,0.0321655,0.001007,1742093898.579906
0.13625,0.00675,0.212,-0.00251775,0.033035252,-0.0022125002,1742093898.594272
0.112,0.034,0.188,-0.0042115003,0.033325247,-0.0032347501,1742093898.609782
0.1055,0.02625,0.1695,-0.00372325,0.03129575,-0.00077825,1742093898.623192
0.11975,0.00425,0.15975,-0.00390625,0.02958675,0.00149525,1742093898.637463
0.13925,0.001,0.171,-0.002472,0.02690125,0.0033570002,1742093898.6517959
0.1745,0.00275,0.203,0.00010675,0.02702325,0.0024414998,1742093898.6660008
0.18375,0.01675,0.2065,0.00267025,0.0283355,0.00090025004,1742093898.6802711
0.178,0.03175,0.19425,0.00514225,0.032135,-0.00225825,1742093898.694721
0.15875,0.02825,0.15625,0.0040435,0.033249002,-0.0022277501,1742093898.7096498
0.1585,0.0205,0.14525,-0.000473,0.034027,0.00340275,1742093898.723277
0.178,-0.01175,0.147,-0.0017395001,0.035446253,0.008194,1742093898.7377028
0.18625,-0.0075,0.153,0.000183,0.03692625,0.0115815,1742093898.7519748
0.18,0.05,0.14675,0.00193775,0.03671275,0.009674,1742093898.766218
0.18175,0.06225,0.13825,0.002884,0.0363465,0.0056609996,1742093898.780384
0.18675,0.056,0.12875,0.0028229998,0.035278253,-0.0012055,1742093898.794894
0.196,0.034,0.11175,0.002411,0.03524775,-0.00148,1742093898.80975
0.2,0.02325,0.10875,0.0026245,0.0361785,0.0010375,1742093898.823377
0.2105,0.01025,0.113,0.0041810004,0.037979253,0.0025025,1742093898.8376892
0.2065,0.003,0.104,0.0079955,0.0426025,0.004593,1742093898.851809
0.21275,0.00275,0.08175,0.0079955,0.043151747,0.00640875,1742093898.8659918
0.21625,0.02325,0.069,0.00671375,0.04255675,0.0077667497,1742093898.880181
0.21875,0.0455,0.058,0.0049742498,0.0398865,0.0047912505,1742093898.8942652
