acc_x,acc_y,acc_z,gyro_x,gyro_y,gyro_z,timestamp
0.0005,-0.01075,0.252,-0.000229,-4.575e-05,3.0500001e-05,1742092132.11504
0.0005,-0.01075,0.2515,-0.0002135,-9.15e-05,3.0500001e-05,1742092132.128818
0.00075,-0.01075,0.2515,-0.00019825,-9.15e-05,6.1000002e-05,1742092132.143214
0.00075,-0.011,0.25175,-0.00013725001,-6.1000002e-05,0.000183,1742092132.157692
0.001,-0.01125,0.252,-0.00013725001,-9.15e-05,0.00029,1742092132.172162
0.0,-0.01075,0.25175,-9.15e-05,-7.625e-05,0.00027475,1742092132.186707
-0.0005,-0.01,0.25025,-7.625e-05,-6.1000002e-05,0.00013725001,1742092132.201689
0.00025,-0.01025,0.25025,-9.15e-05,-4.575e-05,7.625e-05,1742092132.215683
0.0,-0.01025,0.2515,-0.0002595,-4.575e-05,0.0002595,1742092132.230227
-0.0005,-0.01,0.25225,-0.0002595,-4.575e-05,0.0002595,1742092132.244687
-0.0,-0.01025,0.2515,-3.0500001e-05,1.5250001e-05,0.000122000005,1742092132.259082
0.00075,-0.01075,0.25175,-1.5250001e-05,3.0500001e-05,0.00013725001,1742092132.273537
0.001,-0.01075,0.252,-3.0500001e-05,1.5250001e-05,0.00010675,1742092132.287915
0.0005,-0.0105,0.25125,-1.5250001e-05,-1.5250001e-05,7.625e-05,1742092132.302291
0.0005,-0.01025,0.25175,-6.1000002e-05,-7.625e-05,4.575e-05,1742092132.316698
0.00025,-0.01,0.252,-9.15e-05,-7.625e-05,6.1000002e-05,1742092132.3311849
0.00025,-0.0105,0.25175,-0.000122000005,-6.1000002e-05,7.625e-05,1742092132.3456728
-0.0,-0.01075,0.2515,-7.625e-05,-4.575e-05,0.0,1742092132.36131
-0.00025,-0.01025,0.25175,0.0,-1.5250001e-05,-4.575e-05,1742092132.374916
-0.0,-0.01025,0.25175,1.5250001e-05,3.0500001e-05,-3.0500001e-05,1742092132.3892941
0.0005,-0.01,0.2515,-1.5250001e-05,1.5250001e-05,0.0,1742092132.403605
0.00075,-0.01,0.2515,-4.575e-05,3.0500001e-05,1.5250001e-05,1742092132.417939
0.0005,-0.00975,0.25175,-4.575e-05,4.575e-05,1.5250001e-05,1742092132.433656
0.0005,-0.01,0.25175,-3.0500001e-05,7.625e-05,3.0500001e-05,1742092132.4467
0.0005,-0.0105,0.2515,7.625e-05,6.1000002e-05,-1.5250001e-05,1742092132.461735
0.00075,-0.0105,0.2515,0.00010675,6.1000002e-05,-6.1000002e-05,1742092132.475451
0.00075,-0.01025,0.25175,6.1000002e-05,3.0500001e-05,-9.15e-05,1742092132.490963
0.00025,-0.01025,0.2515,0.0,3.0500001e-05,-7.625e-05,1742092132.504163
0.00025,-0.01025,0.25175,-1.5250001e-05,6.1000002e-05,-9.15e-05,1742092132.51862
0.0005,-0.01025,0.25175,0.0,6.1000002e-05,-9.15e-05,1742092132.533452
0.0005,-0.01025,0.25175,3.0500001e-05,3.0500001e-05,-9.15e-05,1742092132.5472052
0.0005,-0.0105,0.2515,3.0500001e-05,-1.5250001e-05,-7.625e-05,1742092132.561685
0.0005,-0.01025,0.252,1.5250001e-05,-6.1000002e-05,-9.15e-05,1742092132.576038
0.00025,-0.01,0.252,6.1000002e-05,1.5250001e-05,-0.00016775,1742092132.590555
0.00025,-0.01025,0.25125,6.1000002e-05,3.0500001e-05,-0.0001525,1742092132.604697
0.00025,-0.01025,0.2515,3.0500001e-05,4.575e-05,-0.00010675,1742092132.619066
0.00075,-0.01025,0.252,1.5250001e-05,4.575e-05,-0.00010675,1742092132.633613
0.00075,-0.01025,0.25175,6.1000002e-05,7.625e-05,-0.00013725001,1742092132.64814
0.0005,-0.0105,0.2515,7.625e-05,9.15e-05,-0.0001525,1742092132.6625988
0.00075,-0.01075,0.2515,6.1000002e-05,6.1000002e-05,-0.00013725001,1742092132.676919
0.0005,-0.01075,0.252,4.575e-05,1.5250001e-05,-0.0001525,1742092132.691301
0.00075,-0.01025,0.2515,9.15e-05,3.0500001e-05,-0.0001525,1742092132.7055922
0.00075,-0.01,0.2515,0.00013725001,4.575e-05,-0.000122000005,1742092132.720682
0.0005,-0.01,0.25125,0.000122000005,3.0500001e-05,-0.00010675,1742092132.734227
0.00025,-0.01025,0.25125,-1.5250001e-05,-6.1000002e-05,0.0,1742092132.750777
-0.00025,-0.0105,0.25175,-4.575e-05,-4.575e-05,-1.5250001e-05,1742092132.7633421
0.00025,-0.01075,0.251,-3.0500001e-05,0.0,-7.625e-05,1742092132.7778099
0.00075,-0.01075,0.25075,-6.1000002e-05,0.0,-4.575e-05,1742092132.792275
0.0005,-0.01075,0.251,-0.000122000005,-3.0500001e-05,-1.5250001e-05,1742092132.806804
0.00025,-0.01025,0.2515,-0.00013725001,-1.5250001e-05,-1.5250001e-05,1742092132.821543
0.00025,-0.01,0.2515,-0.000122000005,3.0500001e-05,-3.0500001e-05,1742092132.836133
0.00025,-0.01,0.25175,-0.0002135,9.15e-05,7.625e-05,1742092132.8509371
-0.0,-0.01,0.2515,-0.00024425,9.15e-05,0.00010675,1742092132.865023
0.0,-0.01,0.2515,-0.00024425,9.15e-05,0.00013725001,1742092132.879405
0.0005,-0.01,0.25175,-0.00024425,9.15e-05,0.0001525,1742092132.893739
0.00075,-0.01,0.25175,-0.00019825,7.625e-05,0.00016775,1742092132.908129
0.0005,-0.01,0.25175,-0.00016775,6.1000002e-05,0.00016775,1742092132.922462
0.0005,-0.01,0.252,-0.00013725001,6.1000002e-05,0.0001525,1742092132.936725
0.0005,-0.00975,0.252,-6.1000002e-05,1.5250001e-05,6.1000002e-05,1742092132.951212
0.0005,-0.01,0.25175,-4.575e-05,-1.5250001e-05,3.0500001e-05,1742092132.965604
0.00075,-0.01,0.25175,-4.575e-05,-3.0500001e-05,-4.575e-05,1742092132.9801102
0.0005,-0.01,0.252,-6.1000002e-05,-1.5250001e-05,-6.1000002e-05,1742092132.994807
0.0005,-0.01,0.25175,-4.575e-05,-3.0500001e-05,-4.575e-05,1742092133.0093062
0.0005,-0.00975,0.25125,-3.0500001e-05,-3.0500001e-05,-4.575e-05,1742092133.023941
0.0005,-0.0095,0.25125,-4.575e-05,-1.5250001e-05,-6.1000002e-05,1742092133.038527
0.001,-0.00975,0.25175,-7.625e-05,-3.0500001e-05,-4.575e-05,1742092133.053101
0.0005,-0.0095,0.252,-9.15e-05,-3.0500001e-05,-1.5250001e-05,1742092133.0676968
0.0005,-0.00975,0.25175,0.0,-1.5250001e-05,-7.625e-05,1742092133.0831091
0.00075,-0.01,0.25175,0.0,-4.575e-05,-9.15e-05,1742092133.0964758
0.00075,-0.00975,0.252,1.5250001e-05,-3.0500001e-05,-0.00013725001,1742092133.1112452
0.00025,-0.00975,0.25125,3.0500001e-05,-3.0500001e-05,-0.000122000005,1742092133.12531
0.00025,-0.00975,0.25125,-1.5250001e-05,-3.0500001e-05,-0.000122000005,1742092133.1403708
0.00025,-0.00975,0.25175,-4.575e-05,-1.5250001e-05,-0.00013725001,1742092133.154369
0.00025,-0.0095,0.252,-4.575e-05,-1.5250001e-05,-0.0001525,1742092133.1689348
0.00025,-0.0095,0.25175,-6.1000002e-05,-3.0500001e-05,-0.0001525,1742092133.183397
0.00025,-0.00975,0.25175,-7.625e-05,-3.0500001e-05,-0.00013725001,1742092133.1979148
0.00025,-0.01,0.25175,-6.1000002e-05,0.0,-0.00013725001,1742092133.212302
0.0005,-0.00975,0.2515,-4.575e-05,-1.5250001e-05,-0.0001525,1742092133.226805
0.00025,-0.00925,0.2515,-6.1000002e-05,-4.575e-05,-0.000122000005,1742092133.241291
0.00025,-0.00925,0.2515,-9.15e-05,-6.1000002e-05,-9.15e-05,1742092133.2558138
0.00025,-0.0095,0.2515,-0.00016775,-7.625e-05,-1.5250001e-05,1742092133.270306
0.0005,-0.01075,0.25175,-0.000229,-7.625e-05,4.575e-05,1742092133.2847009
0.00025,-0.00975,0.25175,-0.000122000005,-4.575e-05,0.00024425,1742092133.299127
0.0005,-0.00975,0.25175,-0.00010675,-3.0500001e-05,0.000229,1742092133.313666
0.0005,-0.01025,0.252,-9.15e-05,-3.0500001e-05,0.0002135,1742092133.32807
0.00025,-0.0105,0.252,3.0500001e-05,-6.1000002e-05,0.000229,1742092133.3424509
0.0,-0.00825,0.2515,9.15e-05,-7.625e-05,0.00024425,1742092133.356766
0.0,-0.008,0.25175,1.5250001e-05,-6.1000002e-05,0.0001525,1742092133.371542
0.0,-0.0085,0.25175,-4.575e-05,-7.625e-05,6.1000002e-05,1742092133.38556
0.0,-0.00875,0.2515,-0.000122000005,-9.15e-05,-4.575e-05,1742092133.40107
0.00025,-0.00925,0.2515,-9.15e-05,-9.15e-05,-3.0500001e-05,1742092133.414594
0.00025,-0.0095,0.2515,-6.1000002e-05,-6.1000002e-05,-3.0500001e-05,1742092133.429091
0.00025,-0.0095,0.2515,-6.1000002e-05,-4.575e-05,-3.0500001e-05,1742092133.443786
0.00025,-0.00925,0.2515,-6.1000002e-05,-4.575e-05,-4.575e-05,1742092133.458377
-0.0,-0.00925,0.25125,-7.625e-05,-3.0500001e-05,-3.0500001e-05,1742092133.4729989
0.0,-0.00925,0.2515,-0.000122000005,-1.5250001e-05,1.5250001e-05,1742092133.4874282
0.00025,-0.00925,0.25175,-0.0001525,0.0,6.1000002e-05,1742092133.5017679
0.001,-0.01025,0.2515,-0.0001525,-1.5250001e-05,0.00010675,1742092133.516202
0.00075,-0.0095,0.25175,-3.0500001e-05,-1.5250001e-05,0.0003205,1742092133.5306659
0.0,-0.009,0.2515,1.5250001e-05,-3.0500001e-05,0.00024425,1742092133.5450099
0.00075,-0.0105,0.25175,4.575e-05,-4.575e-05,0.00013725001,1742092133.5593941
0.00275,-0.0105,0.25175,4.575e-05,-4.575e-05,0.00024425,1742092133.573781
0.00475,-0.01175,0.25225,3.0500001e-05,-3.0500001e-05,0.0003815,1742092133.588183
0.004,-0.01175,0.2525,0.000183,-6.1000002e-05,0.00112925,1742092133.602666
0.0015,-0.01,0.25175,0.0002595,-6.1000002e-05,0.0012665,1742092133.617013
0.00025,-0.0095,0.2515,0.0003205,-0.00010675,0.00096125,1742092133.6313658
0.001,-0.00925,0.2515,0.0003205,-9.15e-05,0.000763,1742092133.6456761
0.00075,-0.009,0.2515,0.00030525,-0.00010675,0.0007325,1742092133.660576
-0.0005,-0.00775,0.25125,0.00024425,-0.00010675,0.000763,1742092133.6748219
-0.00075,-0.008,0.2515,0.000183,-6.1000002e-05,0.0007325,1742092133.689291
-0.001,-0.0085,0.25175,0.00013725001,-4.575e-05,0.00061025,1742092133.703777
-0.00175,-0.00875,0.2515,9.15e-05,-6.1000002e-05,0.0005035,1742092133.718197
-0.00225,-0.0085,0.2515,-1.5250001e-05,-0.00010675,0.00027475,1742092133.7327921
-0.002,-0.0085,0.25175,-6.1000002e-05,-0.00010675,0.000183,1742092133.747398
-0.002,-0.00875,0.2515,-9.15e-05,-4.575e-05,0.00013725001,1742092133.7620149
-0.0025,-0.009,0.25175,-7.625e-05,-4.575e-05,0.00010675,1742092133.776588
-0.00175,-0.00925,0.25175,-3.0500001e-05,0.0,1.5250001e-05,1742092133.790981
-0.00025,-0.0095,0.2515,-6.1000002e-05,4.575e-05,1.5250001e-05,1742092133.805504
0.0,-0.00925,0.25175,-6.1000002e-05,7.625e-05,6.1000002e-05,1742092133.820696
0.00025,-0.0095,0.25175,-6.1000002e-05,6.1000002e-05,6.1000002e-05,1742092133.8344278
0.00025,-0.0095,0.252,-4.575e-05,3.0500001e-05,1.5250001e-05,1742092133.848819
0.00025,-0.0095,0.252,0.0,-4.575e-05,-4.575e-05,1742092133.863292
0.00025,-0.00925,0.252,-1.5250001e-05,-6.1000002e-05,-6.1000002e-05,1742092133.877839
-0.0,-0.00925,0.25175,-3.0500001e-05,-4.575e-05,-6.1000002e-05,1742092133.892491
-0.0005,-0.00925,0.2515,0.0,-4.575e-05,-6.1000002e-05,1742092133.9070878
-0.0005,-0.009,0.25175,3.0500001e-05,0.0,-4.575e-05,1742092133.921581
-0.0005,-0.0095,0.25175,4.575e-05,-1.5250001e-05,-6.1000002e-05,1742092133.9361448
-0.00025,-0.0095,0.25175,4.575e-05,-1.5250001e-05,-9.15e-05,1742092133.950696
-0.0,-0.00925,0.25175,4.575e-05,-1.5250001e-05,-7.625e-05,1742092133.965148
-0.0,-0.0095,0.2515,3.0500001e-05,-3.0500001e-05,-6.1000002e-05,1742092133.979659
-0.0,-0.0095,0.25175,1.5250001e-05,-1.5250001e-05,-4.575e-05,1742092133.994318
0.00025,-0.0095,0.25225,1.5250001e-05,-1.5250001e-05,-4.575e-05,1742092134.0088341
0.00025,-0.0095,0.25225,1.5250001e-05,-6.1000002e-05,-6.1000002e-05,1742092134.023336
-0.00025,-0.00975,0.25175,0.0,-0.00010675,-6.1000002e-05,1742092134.037896
0.00075,-0.011,0.252,0.000122000005,-9.15e-05,0.000183,1742092134.052214
-0.00025,-0.01,0.252,0.0002135,-7.625e-05,0.000534,1742092134.0667012
-0.00175,-0.00825,0.25175,0.00027475,-0.00010675,0.000534,1742092134.081095
-0.00125,-0.0085,0.2515,0.000229,-9.15e-05,0.00035100002,1742092134.095493
-0.001,-0.00875,0.25125,0.00019825,-4.575e-05,0.0002135,1742092134.110404
-0.0005,-0.009,0.25125,6.1000002e-05,-4.575e-05,1.5250001e-05,1742092134.124568
-0.0005,-0.00975,0.2515,1.5250001e-05,-6.1000002e-05,-1.5250001e-05,1742092134.139068
-0.00025,-0.00975,0.25125,-3.0500001e-05,-3.0500001e-05,7.625e-05,1742092134.1537201
-0.00025,-0.00975,0.2515,-3.0500001e-05,-3.0500001e-05,0.000122000005,1742092134.168223
-0.0,-0.01,0.25175,3.0500001e-05,-6.1000002e-05,0.000122000005,1742092134.183708
0.0005,-0.01075,0.25175,7.625e-05,-9.15e-05,0.000183,1742092134.1969101
-0.0005,-0.00975,0.25125,0.0001525,-0.00013725001,0.00033575002,1742092134.211393
-0.00075,-0.00925,0.2515,0.00013725001,-9.15e-05,0.00029,1742092134.225707
-0.00075,-0.00925,0.2515,0.00013725001,-3.0500001e-05,0.00024425,1742092134.240819
-0.00125,-0.00875,0.2515,0.00010675,4.575e-05,0.00024425,1742092134.254602
-0.00075,-0.0105,0.251,6.1000002e-05,7.625e-05,0.00027475,1742092134.268947
-0.0,-0.0115,0.251,-0.000183,-7.625e-05,0.00071725,1742092134.283681
0.00025,-0.0095,0.25175,-0.00027475,-0.00013725001,0.0010375,1742092134.297809
0.0005,-0.0085,0.25175,-0.00033575002,-0.00010675,0.0013427499,1742092134.3122969
0.00025,-0.00825,0.25125,-0.00033575002,-9.15e-05,0.00131225,1742092134.326679
0.0015,-0.009,0.2515,-0.00035100002,-0.00010675,0.0013580001,1742092134.3413
-0.002,-0.0085,0.2525,-0.0003815,-4.575e-05,0.00169375,1742092134.355906
-0.00275,-0.00825,0.252,-0.00033575002,-6.1000002e-05,0.00137325,1742092134.370541
-0.00275,-0.00875,0.2515,-0.00027475,-4.575e-05,0.00062550005,1742092134.384918
-0.00125,-0.009,0.25125,-0.00024425,-9.15e-05,0.00036625,1742092134.399383
-0.00075,-0.009,0.251,-0.0002595,-4.575e-05,0.00030525,1742092134.4139059
-0.001,-0.00875,0.2515,-0.00035100002,-3.0500001e-05,0.00036625,1742092134.428386
-0.001,-0.0085,0.25175,-0.00045775,-4.575e-05,0.00039675,1742092134.4430149
-0.0005,-0.00875,0.252,-0.000412,-4.575e-05,0.00033575002,1742092134.457589
-0.00025,-0.00875,0.252,-0.00024425,-3.0500001e-05,0.00016775,1742092134.472102
-0.00025,-0.00875,0.25175,-0.00019825,-3.0500001e-05,9.15e-05,1742092134.486733
-0.0005,-0.0085,0.25175,-0.00016775,-4.575e-05,4.575e-05,1742092134.501193
-0.00075,-0.00825,0.252,-0.000122000005,-0.000122000005,3.0500001e-05,1742092134.515792
-0.00075,-0.009,0.25175,-0.00010675,-0.000122000005,6.1000002e-05,1742092134.530356
-0.00075,-0.00875,0.2515,-0.00010675,-7.625e-05,-3.0500001e-05,1742092134.545003
-0.00125,-0.00825,0.25125,-9.15e-05,-7.625e-05,-6.1000002e-05,1742092134.559705
-0.001,-0.00825,0.2515,-0.00010675,-0.00010675,-6.1000002e-05,1742092134.5742662
-0.001,-0.00825,0.252,-0.000122000005,-0.000122000005,-4.575e-05,1742092134.5890229
-0.001,-0.00825,0.252,-9.15e-05,-9.15e-05,-3.0500001e-05,1742092134.603668
-0.00075,-0.0085,0.25175,-6.1000002e-05,-7.625e-05,-6.1000002e-05,1742092134.61828
-0.001,-0.0085,0.2515,-1.5250001e-05,-6.1000002e-05,-7.625e-05,1742092134.6340559
-0.001,-0.0085,0.2515,0.0,-7.625e-05,-9.15e-05,1742092134.647351
-0.001,-0.00825,0.25175,-1.5250001e-05,-9.15e-05,-9.15e-05,1742092134.6619892
-0.001,-0.00825,0.252,-7.625e-05,-0.00010675,-9.15e-05,1742092134.676666
-0.001,-0.00825,0.252,-6.1000002e-05,-9.15e-05,-9.15e-05,1742092134.691266
-0.001,-0.00825,0.25175,0.0,-6.1000002e-05,-0.00010675,1742092134.70591
-0.001,-0.008,0.25175,3.0500001e-05,-6.1000002e-05,-0.00010675,1742092134.720737
-0.001,-0.008,0.252,-1.5250001e-05,-7.625e-05,-0.00010675,1742092134.734984
-0.00125,-0.00825,0.251,-1.5250001e-05,-4.575e-05,-0.00010675,1742092134.750554
-0.00125,-0.00825,0.251,0.0,1.5250001e-05,-9.15e-05,1742092134.7641118
-0.00075,-0.00825,0.252,0.0,3.0500001e-05,-7.625e-05,1742092134.7786932
-0.00075,-0.00825,0.252,0.0,1.5250001e-05,-7.625e-05,1742092134.793083
-0.00125,-0.00825,0.25175,0.0,0.0,-0.00010675,1742092134.807459
-0.00125,-0.00825,0.25175,0.0,-1.5250001e-05,-0.00010675,1742092134.822112
-0.00125,-0.0085,0.2515,3.0500001e-05,-3.0500001e-05,-0.000122000005,1742092134.836664
-0.00125,-0.0085,0.25175,3.0500001e-05,-1.5250001e-05,-0.00013725001,1742092134.851209
-0.00125,-0.00825,0.25175,3.0500001e-05,1.5250001e-05,-0.00010675,1742092134.8656461
-0.001,-0.008,0.25175,3.0500001e-05,1.5250001e-05,-9.15e-05,1742092134.880109
-0.001,-0.008,0.25175,4.575e-05,6.1000002e-05,-0.00010675,1742092134.894583
-0.001,-0.0085,0.25175,6.1000002e-05,6.1000002e-05,-0.000122000005,1742092134.909014
-0.001,-0.00825,0.25175,9.15e-05,3.0500001e-05,-0.000122000005,1742092134.923491
-0.00075,-0.00825,0.25175,6.1000002e-05,1.5250001e-05,-0.00010675,1742092134.93798
-0.001,-0.00825,0.25175,4.575e-05,1.5250001e-05,-9.15e-05,1742092134.952474
-0.00125,-0.00825,0.2515,6.1000002e-05,3.0500001e-05,-0.00010675,1742092134.9669719
-0.00125,-0.0085,0.25175,4.575e-05,1.5250001e-05,-0.00010675,1742092134.982671
-0.00125,-0.00825,0.25175,1.5250001e-05,0.0,-7.625e-05,1742092134.995956
-0.00125,-0.00825,0.252,3.0500001e-05,1.5250001e-05,-7.625e-05,1742092135.010581
-0.00125,-0.00825,0.252,1.5250001e-05,3.0500001e-05,-9.15e-05,1742092135.025016
-0.00125,-0.0085,0.25175,1.5250001e-05,4.575e-05,-7.625e-05,1742092135.039476
-0.00125,-0.0085,0.25175,4.575e-05,4.575e-05,-6.1000002e-05,1742092135.054008
-0.00075,-0.0085,0.25175,4.575e-05,4.575e-05,-7.625e-05,1742092135.0684931
-0.001,-0.0085,0.25175,3.0500001e-05,3.0500001e-05,-9.15e-05,1742092135.083128
-0.0015,-0.0085,0.25175,3.0500001e-05,1.5250001e-05,-9.15e-05,1742092135.097465
-0.0015,-0.0085,0.2515,3.0500001e-05,3.0500001e-05,-9.15e-05,1742092135.111995
-0.00125,-0.0085,0.2515,-3.0500001e-05,7.625e-05,-6.1000002e-05,1742092135.126581
-0.001,-0.00825,0.25175,-3.0500001e-05,0.00010675,-7.625e-05,1742092135.141089
-0.00075,-0.00825,0.25175,-1.5250001e-05,0.00010675,-6.1000002e-05,1742092135.15567
-0.001,-0.00825,0.25175,0.0,9.15e-05,-6.1000002e-05,1742092135.170531
-0.0005,-0.00825,0.252,3.0500001e-05,3.0500001e-05,-9.15e-05,1742092135.184583
-0.0005,-0.0085,0.2515,3.0500001e-05,1.5250001e-05,-0.000122000005,1742092135.1989949
-0.00075,-0.00875,0.2515,1.5250001e-05,-4.575e-05,-0.0002135,1742092135.2135758
-0.001,-0.0085,0.2515,3.0500001e-05,-6.1000002e-05,-0.00024425,1742092135.2280772
-0.00125,-0.008,0.2515,3.0500001e-05,-6.1000002e-05,-0.000229,1742092135.2427032
-0.0015,-0.008,0.25125,0.0,-1.5250001e-05,-0.00013725001,1742092135.25729
-0.00125,-0.00775,0.2515,-3.0500001e-05,1.5250001e-05,-9.15e-05,1742092135.271905
-0.00125,-0.008,0.2515,-6.1000002e-05,3.0500001e-05,-1.5250001e-05,1742092135.286357
-0.0005,-0.0085,0.2515,-6.1000002e-05,3.0500001e-05,-1.5250001e-05,1742092135.300937
-0.00075,-0.0085,0.2515,-7.625e-05,3.0500001e-05,0.0,1742092135.3153212
-0.00075,-0.00825,0.25175,-7.625e-05,1.5250001e-05,0.0,1742092135.329613
-0.001,-0.00825,0.252,-7.625e-05,-4.575e-05,-6.1000002e-05,1742092135.344256
-0.001,-0.008,0.2515,-7.625e-05,-4.575e-05,-6.1000002e-05,1742092135.3589592
-0.001,-0.00825,0.25125,-9.15e-05,-4.575e-05,-6.1000002e-05,1742092135.373694
-0.001,-0.00825,0.2515,-0.000122000005,-3.0500001e-05,-6.1000002e-05,1742092135.388488
-0.00125,-0.0085,0.25175,-9.15e-05,-1.5250001e-05,-4.575e-05,1742092135.403209
-0.00125,-0.00825,0.25175,-9.15e-05,1.5250001e-05,-4.575e-05,1742092135.417782
-0.001,-0.008,0.25175,-7.625e-05,1.5250001e-05,-3.0500001e-05,1742092135.432368
-0.001,-0.008,0.25175,-0.00010675,1.5250001e-05,-1.5250001e-05,1742092135.4469051
-0.00125,-0.008,0.2515,-0.00013725001,1.5250001e-05,-1.5250001e-05,1742092135.461386
-0.00125,-0.00775,0.2515,-0.000122000005,1.5250001e-05,1.5250001e-05,1742092135.476011
-0.0015,-0.0075,0.25175,-0.00010675,1.5250001e-05,1.5250001e-05,1742092135.4910898
-0.00125,-0.008,0.25175,-6.1000002e-05,1.5250001e-05,3.0500001e-05,1742092135.50491
-0.001,-0.00825,0.25125,-6.1000002e-05,0.0,1.5250001e-05,1742092135.520669
-0.001,-0.008,0.25125,-7.625e-05,-1.5250001e-05,0.0,1742092135.533907
-0.001,-0.008,0.2515,-0.000122000005,-4.575e-05,-1.5250001e-05,1742092135.54846
-0.00075,-0.00775,0.25175,-0.0001525,-7.625e-05,-3.0500001e-05,1742092135.563191
-0.00075,-0.0075,0.2515,-0.0001525,-7.625e-05,-1.5250001e-05,1742092135.577891
-0.00125,-0.00775,0.2515,-0.00013725001,-6.1000002e-05,-1.5250001e-05,1742092135.592494
-0.00125,-0.00775,0.2515,-0.0001525,-4.575e-05,-3.0500001e-05,1742092135.607127
-0.00125,-0.00775,0.25175,-0.0001525,-3.0500001e-05,-1.5250001e-05,1742092135.621877
-0.001,-0.00775,0.25175,-0.00016775,0.0,-1.5250001e-05,1742092135.6363351
-0.00125,-0.0075,0.2515,-0.000183,0.0,-3.0500001e-05,1742092135.6508732
-0.00125,-0.0075,0.25125,-0.0002135,-1.5250001e-05,-1.5250001e-05,1742092135.665473
-0.001,-0.0075,0.25175,-0.000229,0.0,-1.5250001e-05,1742092135.680106
-0.001,-0.00775,0.25175,-0.000229,0.0,-3.0500001e-05,1742092135.694647
-0.00125,-0.00725,0.2515,-0.00027475,-1.5250001e-05,-4.575e-05,1742092135.7103848
-0.00125,-0.007,0.2515,-0.00033575002,0.0,-1.5250001e-05,1742092135.723901
-0.00125,-0.00725,0.25175,-0.00039675,3.0500001e-05,7.625e-05,1742092135.738227
-0.00125,-0.00725,0.25225,-0.0003815,1.5250001e-05,6.1000002e-05,1742092135.752894
-0.0015,-0.00675,0.252,-0.00033575002,0.0,3.0500001e-05,1742092135.7672
-0.00125,-0.00675,0.252,-0.00029,3.0500001e-05,6.1000002e-05,1742092135.7816849
-0.00125,-0.0065,0.252,-0.00024425,3.0500001e-05,7.625e-05,1742092135.796195
-0.0015,-0.0065,0.2515,-0.00027475,4.575e-05,7.625e-05,1742092135.810706
-0.001,-0.0065,0.2515,-0.000229,9.15e-05,6.1000002e-05,1742092135.82511
-0.00075,-0.007,0.252,-0.00019825,7.625e-05,4.575e-05,1742092135.839492
-0.00075,-0.007,0.252,-0.0001525,3.0500001e-05,0.0,1742092135.8540008
-0.001,-0.00675,0.2515,-0.00010675,-3.0500001e-05,-3.0500001e-05,1742092135.868767
-0.00125,-0.0065,0.25125,-0.000122000005,-1.5250001e-05,0.0,1742092135.883331
-0.0015,-0.00625,0.25125,-0.0002595,4.575e-05,0.000122000005,1742092135.8978329
-0.001,-0.0065,0.25175,-0.00029,4.575e-05,0.00016775,1742092135.912381
-0.00075,-0.0065,0.252,-0.0002595,3.0500001e-05,0.00016775,1742092135.926754
-0.001,-0.00625,0.25175,-0.00024425,1.5250001e-05,0.00013725001,1742092135.941378
-0.00125,-0.00625,0.2515,-0.00024425,3.0500001e-05,0.00013725001,1742092135.955908
-0.001,-0.00625,0.25175,-0.0002595,6.1000002e-05,0.000183,1742092135.9705112
-0.001,-0.00625,0.25225,-0.00027475,6.1000002e-05,0.000183,1742092135.984701
-0.001,-0.00625,0.252,-0.00019825,3.0500001e-05,9.15e-05,1742092135.9992268
-0.001,-0.00625,0.25125,-0.00016775,1.5250001e-05,4.575e-05,1742092136.013582
-0.00075,-0.00575,0.2515,-0.00010675,1.5250001e-05,-1.5250001e-05,1742092136.02809
-0.001,-0.006,0.2525,-0.00010675,1.5250001e-05,-3.0500001e-05,1742092136.042549
-0.00125,-0.006,0.25225,-0.000122000005,-1.5250001e-05,-6.1000002e-05,1742092136.0571892
-0.001,-0.006,0.25175,-9.15e-05,-1.5250001e-05,-7.625e-05,1742092136.071755
-0.001,-0.006,0.25175,-4.575e-05,-1.5250001e-05,-9.15e-05,1742092136.086428
-0.00125,-0.00575,0.25225,-1.5250001e-05,-1.5250001e-05,-0.00010675,1742092136.101136
-0.001,-0.00575,0.252,-1.5250001e-05,-3.0500001e-05,-0.00010675,1742092136.115702
-0.001,-0.00575,0.25125,-1.5250001e-05,-1.5250001e-05,-7.625e-05,1742092136.130465
-0.001,-0.00575,0.2515,-3.0500001e-05,-1.5250001e-05,-6.1000002e-05,1742092136.145107
-0.00075,-0.0055,0.252,-6.1000002e-05,0.0,-6.1000002e-05,1742092136.159682
-0.00075,-0.0055,0.252,-3.0500001e-05,1.5250001e-05,-6.1000002e-05,1742092136.174301
-0.001,-0.00575,0.25175,3.0500001e-05,0.0,-9.15e-05,1742092136.1886458
-0.00125,-0.00575,0.252,4.575e-05,0.0,-0.00010675,1742092136.203427
-0.00125,-0.0055,0.2515,0.0,0.0,-6.1000002e-05,1742092136.2177799
-0.001,-0.0055,0.25175,-3.0500001e-05,0.0,-4.575e-05,1742092136.2341561
-0.001,-0.00575,0.252,-4.575e-05,1.5250001e-05,-7.625e-05,1742092136.246905
-0.001,-0.00575,0.25225,-4.575e-05,3.0500001e-05,-7.625e-05,1742092136.261343
-0.00075,-0.00575,0.252,-4.575e-05,3.0500001e-05,-9.15e-05,1742092136.2759318
-0.001,-0.0055,0.25175,-1.5250001e-05,-1.5250001e-05,-9.15e-05,1742092136.290435
-0.001,-0.0055,0.252,0.0,-3.0500001e-05,-9.15e-05,1742092136.305102
-0.001,-0.00575,0.252,0.0,-3.0500001e-05,-0.00010675,1742092136.3207018
-0.001,-0.00575,0.2515,-1.5250001e-05,-3.0500001e-05,-9.15e-05,1742092136.334273
-0.001,-0.0055,0.25125,-9.15e-05,-1.5250001e-05,-4.575e-05,1742092136.348916
-0.00125,-0.0055,0.252,-0.000122000005,-1.5250001e-05,-3.0500001e-05,1742092136.363422
-0.00125,-0.00575,0.25175,-9.15e-05,-1.5250001e-05,-7.625e-05,1742092136.378056
-0.00075,-0.00575,0.2515,-6.1000002e-05,-3.0500001e-05,-9.15e-05,1742092136.392688
-0.001,-0.00575,0.2515,-3.0500001e-05,-4.575e-05,-0.00010675,1742092136.4072561
-0.00125,-0.00575,0.25175,-3.0500001e-05,-4.575e-05,-9.15e-05,1742092136.421891
-0.00125,-0.0055,0.2515,-9.15e-05,1.5250001e-05,-4.575e-05,1742092136.436398
-0.00125,-0.005,0.2515,-9.15e-05,3.0500001e-05,-3.0500001e-05,1742092136.451097
-0.00125,-0.00525,0.25175,-7.625e-05,4.575e-05,-3.0500001e-05,1742092136.465534
-0.001,-0.0055,0.252,-4.575e-05,1.5250001e-05,-4.575e-05,1742092136.480101
-0.00075,-0.0055,0.2515,-6.1000002e-05,1.5250001e-05,-6.1000002e-05,1742092136.494657
-0.00075,-0.0055,0.2515,-7.625e-05,0.0,-7.625e-05,1742092136.50929
-0.001,-0.0055,0.252,-6.1000002e-05,0.0,-7.625e-05,1742092136.523768
-0.00075,-0.0055,0.252,-4.575e-05,0.0,-7.625e-05,1742092136.538362
-0.00125,-0.0055,0.2515,-4.575e-05,0.0,-7.625e-05,1742092136.552904
-0.00125,-0.0055,0.2515,-9.15e-05,0.0,-4.575e-05,1742092136.56738
-0.00125,-0.00525,0.25175,-0.000122000005,1.5250001e-05,-3.0500001e-05,1742092136.582378
-0.00125,-0.00525,0.2515,-0.000122000005,0.0,-3.0500001e-05,1742092136.596456
-0.00125,-0.00525,0.2515,-9.15e-05,1.5250001e-05,-4.575e-05,1742092136.611125
-0.00125,-0.00525,0.25175,-9.15e-05,1.5250001e-05,-3.0500001e-05,1742092136.6256618
-0.001,-0.00525,0.25175,-9.15e-05,1.5250001e-05,-1.5250001e-05,1742092136.640852
-0.001,-0.005,0.25175,-9.15e-05,1.5250001e-05,0.0,1742092136.6546729
-0.00075,-0.005,0.2515,-6.1000002e-05,3.0500001e-05,1.5250001e-05,1742092136.669195
-0.00075,-0.005,0.2515,-6.1000002e-05,3.0500001e-05,3.0500001e-05,1742092136.683657
-0.001,-0.005,0.2515,-9.15e-05,4.575e-05,0.0,1742092136.698194
-0.001,-0.005,0.25175,-9.15e-05,3.0500001e-05,-1.5250001e-05,1742092136.712668
-0.001,-0.005,0.252,-3.0500001e-05,0.0,-4.575e-05,1742092136.727285
-0.001,-0.005,0.25225,1.5250001e-05,-3.0500001e-05,-6.1000002e-05,1742092136.741738
-0.001,-0.005,0.252,6.1000002e-05,-4.575e-05,-7.625e-05,1742092136.756269
-0.001,-0.005,0.25175,7.625e-05,-6.1000002e-05,-9.15e-05,1742092136.770761
-0.00125,-0.00525,0.2515,6.1000002e-05,-7.625e-05,-6.1000002e-05,1742092136.785281
-0.001,-0.00525,0.25175,0.0,-7.625e-05,-1.5250001e-05,1742092136.8008919
-0.00125,-0.005,0.25175,0.0,-7.625e-05,-1.5250001e-05,1742092136.814355
-0.00125,-0.00475,0.25175,1.5250001e-05,-4.575e-05,-1.5250001e-05,1742092136.828914
-0.00125,-0.005,0.2515,1.5250001e-05,-3.0500001e-05,1.5250001e-05,1742092136.84331
-0.00125,-0.005,0.2515,1.5250001e-05,1.5250001e-05,4.575e-05,1742092136.8575318
-0.00125,-0.00525,0.25225,1.5250001e-05,1.5250001e-05,1.5250001e-05,1742092136.871893
-0.00125,-0.00525,0.252,3.0500001e-05,-1.5250001e-05,-1.5250001e-05,1742092136.8863318
-0.001,-0.005,0.25175,0.0001525,3.0500001e-05,-0.0001525,1742092136.900683
-0.00075,-0.0055,0.25225,0.000183,3.0500001e-05,-0.0002135,1742092136.9152021
-0.00075,-0.00525,0.2525,0.000229,-4.575e-05,-0.00029,1742092136.929804
-0.00075,-0.0045,0.2515,0.00024425,-3.0500001e-05,-0.00027475,1742092136.944423
-0.001,-0.00475,0.2515,0.00030525,0.00010675,-0.00019825,1742092136.958858
-0.00125,-0.00575,0.252,0.00033575002,0.00013725001,-0.0002135,1742092136.973155
-0.00125,-0.00625,0.252,0.00033575002,-3.0500001e-05,-0.0002135,1742092136.987674
-0.00175,-0.00625,0.25125,0.00035100002,-6.1000002e-05,-0.000229,1742092137.002235
-0.00125,-0.0055,0.25125,0.000412,-4.575e-05,-0.00024425,1742092137.016784
-0.00075,-0.005,0.2515,0.00033575002,0.0,-0.00013725001,1742092137.031296
-0.00075,-0.0055,0.25175,0.0002595,-1.5250001e-05,-6.1000002e-05,1742092137.045795
-0.0015,-0.006,0.2515,0.0002135,-6.1000002e-05,-4.575e-05,1742092137.060503
-0.0015,-0.006,0.2515,0.0002135,-7.625e-05,-9.15e-05,1742092137.07478
-0.0015,-0.006,0.25175,0.000183,-9.15e-05,-0.0001525,1742092137.0892549
-0.00175,-0.00625,0.2515,0.000183,-9.15e-05,-0.0001525,1742092137.1037388
-0.0015,-0.00625,0.2515,0.0001525,-7.625e-05,-0.000122000005,1742092137.118285
-0.00175,-0.006,0.2515,0.000122000005,-4.575e-05,-9.15e-05,1742092137.13277
-0.002,-0.006,0.2515,9.15e-05,-1.5250001e-05,-7.625e-05,1742092137.147281
-0.002,-0.006,0.2515,4.575e-05,0.0,-7.625e-05,1742092137.16169
-0.00175,-0.00625,0.25175,4.575e-05,0.0,-9.15e-05,1742092137.1761549
-0.0015,-0.006,0.25175,3.0500001e-05,1.5250001e-05,-6.1000002e-05,1742092137.191135
-0.001,-0.0065,0.2515,0.0,0.0,-3.0500001e-05,1742092137.204944
-0.001,-0.0065,0.2515,-1.5250001e-05,-1.5250001e-05,-6.1000002e-05,1742092137.2203038
-0.0005,-0.00625,0.25175,0.0,-1.5250001e-05,-6.1000002e-05,1742092137.234248
-0.0005,-0.0065,0.25175,1.5250001e-05,-3.0500001e-05,0.0001525,1742092137.248675
-0.00225,-0.00625,0.252,4.575e-05,-4.575e-05,0.0002135,1742092137.263179
-0.002,-0.00625,0.252,7.625e-05,-7.625e-05,0.000122000005,1742092137.2775412
-0.0015,-0.006,0.252,7.625e-05,-9.15e-05,-4.575e-05,1742092137.292074
-0.00175,-0.00575,0.25175,6.1000002e-05,-7.625e-05,-1.5250001e-05,1742092137.3065212
-0.00175,-0.00575,0.25175,1.5250001e-05,-4.575e-05,-1.5250001e-05,1742092137.321055
-0.00175,-0.006,0.2515,0.0,-3.0500001e-05,-3.0500001e-05,1742092137.3355541
-0.0015,-0.006,0.25175,1.5250001e-05,1.5250001e-05,-3.0500001e-05,1742092137.350572
-0.0015,-0.00625,0.2515,3.0500001e-05,0.0,-3.0500001e-05,1742092137.3643699
-0.0015,-0.00625,0.25175,1.5250001e-05,-1.5250001e-05,-6.1000002e-05,1742092137.378946
-0.00125,-0.00625,0.252,0.0,0.0,-4.575e-05,1742092137.393396
-0.00125,-0.00625,0.25175,1.5250001e-05,1.5250001e-05,-4.575e-05,1742092137.407753
-0.00125,-0.00625,0.25175,3.0500001e-05,-3.0500001e-05,-7.625e-05,1742092137.422349
-0.00125,-0.00625,0.2515,3.0500001e-05,-4.575e-05,-7.625e-05,1742092137.436794
-0.00125,-0.00625,0.2515,3.0500001e-05,-3.0500001e-05,-6.1000002e-05,1742092137.4512699
-0.00175,-0.006,0.2515,3.0500001e-05,0.0,-4.575e-05,1742092137.465684
-0.002,-0.006,0.25175,3.0500001e-05,1.5250001e-05,-4.575e-05,1742092137.480153
-0.00175,-0.006,0.252,1.5250001e-05,3.0500001e-05,-6.1000002e-05,1742092137.494587
-0.0015,-0.00625,0.252,1.5250001e-05,7.625e-05,-9.15e-05,1742092137.5090759
-0.0015,-0.00625,0.25175,1.5250001e-05,6.1000002e-05,-0.00010675,1742092137.523447
-0.0015,-0.00625,0.25175,3.0500001e-05,1.5250001e-05,-0.000122000005,1742092137.5378911
-0.0015,-0.00625,0.25175,4.575e-05,0.0,-9.15e-05,1742092137.552395
-0.0015,-0.0065,0.25175,3.0500001e-05,1.5250001e-05,-9.15e-05,1742092137.566976
-0.0015,-0.006,0.25175,1.5250001e-05,6.1000002e-05,-9.15e-05,1742092137.581413
-0.00175,-0.006,0.252,-1.5250001e-05,7.625e-05,-6.1000002e-05,1742092137.596001
-0.0015,-0.006,0.252,-3.0500001e-05,6.1000002e-05,-3.0500001e-05,1742092137.610807
-0.00125,-0.00625,0.25175,-1.5250001e-05,4.575e-05,-4.575e-05,1742092137.624955
-0.0015,-0.00625,0.2515,4.575e-05,-3.0500001e-05,-0.00010675,1742092137.639554
-0.00125,-0.0065,0.2515,4.575e-05,-3.0500001e-05,-0.000122000005,1742092137.6540952
-0.0015,-0.0065,0.25125,4.575e-05,-3.0500001e-05,-0.000122000005,1742092137.668575
-0.00175,-0.00625,0.2515,3.0500001e-05,1.5250001e-05,-9.15e-05,1742092137.682982
-0.00175,-0.0065,0.25225,1.5250001e-05,4.575e-05,-6.1000002e-05,1742092137.6974552
-0.0015,-0.0065,0.25225,1.5250001e-05,7.625e-05,-3.0500001e-05,1742092137.711941
-0.0015,-0.00625,0.25125,1.5250001e-05,6.1000002e-05,-4.575e-05,1742092137.726475
-0.00175,-0.00625,0.25175,-1.5250001e-05,3.0500001e-05,-7.625e-05,1742092137.74108
-0.0015,-0.00625,0.25275,-1.5250001e-05,-1.5250001e-05,-0.00010675,1742092137.7557812
-0.0015,-0.00625,0.2515,3.0500001e-05,-3.0500001e-05,-0.00013725001,1742092137.771112
-0.00125,-0.00575,0.25125,4.575e-05,-1.5250001e-05,-0.00013725001,1742092137.7847931
-0.00125,-0.006,0.25225,4.575e-05,-1.5250001e-05,-0.000122000005,1742092137.799242
-0.00125,-0.006,0.25175,3.0500001e-05,3.0500001e-05,-0.00010675,1742092137.813673
-0.00125,-0.006,0.251,1.5250001e-05,4.575e-05,-7.625e-05,1742092137.82816
-0.00125,-0.00625,0.251,4.575e-05,3.0500001e-05,-7.625e-05,1742092137.842551
-0.00175,-0.0065,0.2525,4.575e-05,3.0500001e-05,-0.00010675,1742092137.85698
-0.00175,-0.00625,0.25225,6.1000002e-05,4.575e-05,-0.00013725001,1742092137.87144
-0.0015,-0.0065,0.25125,4.575e-05,6.1000002e-05,-9.15e-05,1742092137.885974
-0.0015,-0.0065,0.252,6.1000002e-05,4.575e-05,-7.625e-05,1742092137.9009302
-0.001,-0.00575,0.25225,4.575e-05,4.575e-05,-6.1000002e-05,1742092137.914901
-0.001,-0.00575,0.2515,3.0500001e-05,4.575e-05,-6.1000002e-05,1742092137.929472
-0.00125,-0.00575,0.251,1.5250001e-05,1.5250001e-05,-7.625e-05,1742092137.9438112
-0.0015,-0.006,0.25225,1.5250001e-05,-1.5250001e-05,-9.15e-05,1742092137.9582772
-0.0015,-0.00625,0.252,1.5250001e-05,-1.5250001e-05,-9.15e-05,1742092137.9727502
-0.0015,-0.006,0.251,1.5250001e-05,0.0,-9.15e-05,1742092137.987165
-0.0015,-0.006,0.2515,3.0500001e-05,3.0500001e-05,-9.15e-05,1742092138.001586
-0.0015,-0.00625,0.25225,3.0500001e-05,3.0500001e-05,-7.625e-05,1742092138.0159428
-0.0015,-0.006,0.252,0.0,3.0500001e-05,-7.625e-05,1742092138.0304089
-0.00125,-0.0065,0.25175,0.0,1.5250001e-05,-6.1000002e-05,1742092138.044946
-0.00125,-0.00675,0.252,1.5250001e-05,-1.5250001e-05,-7.625e-05,1742092138.0596569
-0.00125,-0.0065,0.252,4.575e-05,-1.5250001e-05,-9.15e-05,1742092138.074263
-0.00125,-0.00575,0.2515,6.1000002e-05,-1.5250001e-05,-9.15e-05,1742092138.088768
-0.0015,-0.006,0.2515,6.1000002e-05,0.0,-0.00010675,1742092138.103174
-0.00125,-0.00575,0.25175,4.575e-05,0.0,-9.15e-05,1742092138.1175559
-0.0015,-0.006,0.25175,3.0500001e-05,4.575e-05,-4.575e-05,1742092138.1319711
-0.0015,-0.00625,0.25175,1.5250001e-05,7.625e-05,-4.575e-05,1742092138.146433
-0.00125,-0.00625,0.252,1.5250001e-05,6.1000002e-05,-4.575e-05,1742092138.160977
-0.00125,-0.00625,0.25175,3.0500001e-05,4.575e-05,-4.575e-05,1742092138.175545
-0.00125,-0.00625,0.25125,3.0500001e-05,4.575e-05,-3.0500001e-05,1742092138.190382
-0.00125,-0.00625,0.25125,0.0,4.575e-05,-1.5250001e-05,1742092138.204417
-0.00125,-0.0065,0.252,-1.5250001e-05,4.575e-05,-3.0500001e-05,1742092138.219059
-0.00125,-0.0065,0.25225,0.0,1.5250001e-05,-3.0500001e-05,1742092138.233938
-0.00125,-0.00625,0.2515,0.0,0.0,-4.575e-05,1742092138.247956
-0.00125,-0.00625,0.25125,-1.5250001e-05,1.5250001e-05,-7.625e-05,1742092138.262552
-0.00175,-0.006,0.25125,-3.0500001e-05,4.575e-05,-7.625e-05,1742092138.2770948
-0.0015,-0.00625,0.25125,-3.0500001e-05,7.625e-05,-3.0500001e-05,1742092138.291585
-0.00125,-0.00625,0.252,-3.0500001e-05,7.625e-05,-3.0500001e-05,1742092138.30608
-0.00125,-0.0065,0.252,-3.0500001e-05,7.625e-05,-4.575e-05,1742092138.320756
-0.00075,-0.00625,0.25175,-1.5250001e-05,0.00010675,-6.1000002e-05,1742092138.3350809
-0.00075,-0.006,0.25175,-1.5250001e-05,9.15e-05,-4.575e-05,1742092138.350615
-0.00075,-0.006,0.252,-1.5250001e-05,0.00010675,0.0,1742092138.363961
-0.00125,-0.0065,0.2515,0.0,0.00010675,0.0,1742092138.378357
-0.00125,-0.0065,0.25175,-1.5250001e-05,3.0500001e-05,-7.625e-05,1742092138.3929012
-0.0015,-0.006,0.252,-3.0500001e-05,-1.5250001e-05,-9.15e-05,1742092138.4074671
-0.0015,-0.006,0.2515,0.0,-6.1000002e-05,-9.15e-05,1742092138.422035
-0.0015,-0.00625,0.25125,0.0,-4.575e-05,-9.15e-05,1742092138.436692
-0.0015,-0.00625,0.25175,-3.0500001e-05,-3.0500001e-05,-7.625e-05,1742092138.4513578
-0.00125,-0.0065,0.2515,-3.0500001e-05,-1.5250001e-05,-6.1000002e-05,1742092138.466073
-0.00125,-0.0065,0.2515,-1.5250001e-05,1.5250001e-05,-4.575e-05,1742092138.4805691
-0.001,-0.00625,0.2515,0.0,7.625e-05,0.0,1742092138.494879
-0.001,-0.006,0.2525,1.5250001e-05,7.625e-05,0.0,1742092138.509279
-0.001,-0.0055,0.25275,0.0,1.5250001e-05,1.5250001e-05,1742092138.523514
-0.001,-0.0055,0.25,3.0500001e-05,-1.5250001e-05,-3.0500001e-05,1742092138.538034
-0.001,-0.0055,0.24825,1.5250001e-05,-3.0500001e-05,-0.00010675,1742092138.552543
