acc_x,acc_y,acc_z,gyro_x,gyro_y,gyro_z,timestamp
-0.2485,-0.01875,-0.025,3.0500001e-05,-0.00036625,-0.00051875,1742093335.261342
-0.2485,-0.01875,-0.025,-0.00029,-0.00030525,-3.0500001e-05,1742093335.2734551
-0.2485,-0.0195,-0.0245,-0.00030525,-0.00027475,0.00016775,1742093335.287946
-0.248,-0.0195,-0.025,-0.000122000005,-0.00019825,0.00030525,1742093335.302627
-0.247,-0.02025,-0.026,0.0001525,3.0500001e-05,0.00042725,1742093335.3170612
-0.2475,-0.02025,-0.02525,0.00016775,0.00016775,0.00042725,1742093335.331487
-0.24775,-0.02025,-0.0245,0.00036625,0.00035100002,0.00035100002,1742093335.346055
-0.24775,-0.0205,-0.024,0.0005035,0.00039675,0.00033575002,1742093335.361003
-0.24775,-0.02075,-0.025,0.00051875,0.00036625,0.0003815,1742093335.375166
-0.24775,-0.021,-0.02375,0.00035100002,0.00035100002,0.00042725,1742093335.389778
-0.24775,-0.021,-0.0235,0.00045775,0.0005035,0.00039675,1742093335.4042509
-0.248,-0.02125,-0.0255,0.000473,0.0005645,0.00035100002,1742093335.418899
-0.24775,-0.02125,-0.02475,0.00019825,0.00067150005,0.00029,1742093335.434138
-0.24675,-0.022,-0.02375,0.00013725001,0.0007325,0.0002135,1742093335.448134
-0.24675,-0.02225,-0.0235,0.000122000005,0.000763,9.15e-05,1742093335.4626298
-0.247,-0.022,-0.0235,0.0001525,0.0007935,-0.00016775,1742093335.477237
-0.2475,-0.021,-0.02275,0.00016775,0.00077825,-0.00024425,1742093335.4918048
-0.2475,-0.021,-0.022,0.00030525,0.00067150005,-0.00024425,1742093335.506321
-0.248,-0.02125,-0.022,0.000473,0.00062550005,-0.00024425,1742093335.521052
-0.248,-0.02075,-0.0225,0.00054925,0.0005035,-0.0002135,1742093335.535614
-0.248,-0.02075,-0.0225,0.0004425,0.00042725,-0.00016775,1742093335.550129
-0.248,-0.02075,-0.0225,0.0002595,0.00027475,-0.00010675,1742093335.564713
-0.248,-0.02075,-0.0225,0.000229,0.0002595,-0.000122000005,1742093335.5793111
-0.24775,-0.0205,-0.02225,0.000229,0.0002595,-0.00013725001,1742093335.593837
-0.2475,-0.02075,-0.02175,0.00030525,0.00024425,-0.00013725001,1742093335.608335
-0.2475,-0.02075,-0.02175,0.0004425,0.000229,-0.0001525,1742093335.624375
-0.24775,-0.02075,-0.022,0.00051875,0.0002135,-0.0001525,1742093335.637677
-0.24775,-0.02075,-0.02225,0.00042725,0.000183,-0.000122000005,1742093335.652193
-0.24775,-0.02075,-0.022,0.00035100002,0.00010675,-9.15e-05,1742093335.666829
-0.24775,-0.0205,-0.022,0.000412,7.625e-05,-9.15e-05,1742093335.681323
-0.248,-0.0205,-0.022,0.00054925,3.0500001e-05,-7.625e-05,1742093335.69582
-0.24775,-0.0205,-0.02225,0.0005645,1.5250001e-05,-9.15e-05,1742093335.7103271
-0.24775,-0.0205,-0.02225,0.00061025,6.1000002e-05,-0.00016775,1742093335.725006
-0.24725,-0.02075,-0.0225,0.0005645,7.625e-05,-0.0002135,1742093335.739279
-0.24725,-0.02075,-0.022,0.0004425,0.000122000005,-0.00033575002,1742093335.75396
-0.2475,-0.02075,-0.02175,0.0004425,0.00010675,-0.0003815,1742093335.7683141
-0.248,-0.02025,-0.0215,0.0004425,7.625e-05,-0.000412,1742093335.782827
-0.24825,-0.01975,-0.0215,0.00042725,-4.575e-05,-0.000412,1742093335.79742
-0.248,-0.01975,-0.022,0.000473,-0.00010675,-0.00039675,1742093335.812032
-0.24775,-0.01975,-0.02225,0.000534,-0.000183,-0.0003815,1742093335.826726
-0.24775,-0.0195,-0.02225,0.000534,-0.000183,-0.00039675,1742093335.8414688
-0.248,-0.01925,-0.02225,0.000412,-0.0002595,-0.0003815,1742093335.8561358
-0.24775,-0.0195,-0.022,0.00030525,-0.00033575002,-0.00035100002,1742093335.870817
-0.2475,-0.01975,-0.02225,0.00016775,-0.0005035,-0.0003205,1742093335.8854332
-0.24825,-0.019,-0.0225,0.0001525,-0.0005645,-0.0002595,1742093335.900059
-0.2485,-0.0185,-0.02275,0.000183,-0.00064075,-9.15e-05,1742093335.9147468
-0.248,-0.0185,-0.0235,0.00027475,-0.00062550005,-3.0500001e-05,1742093335.929433
-0.2475,-0.01925,-0.0235,0.0003815,-0.00061025,1.5250001e-05,1742093335.944028
-0.248,-0.0195,-0.02375,0.000412,-0.00051875,1.5250001e-05,1742093335.9586072
-0.248,-0.0195,-0.024,0.00045775,-0.00045775,-1.5250001e-05,1742093335.9732149
-0.24775,-0.01975,-0.0245,0.00062550005,-0.000229,-6.1000002e-05,1742093335.987912
-0.248,-0.01975,-0.02475,0.00059500005,-7.625e-05,-9.15e-05,1742093336.003836
-0.24825,-0.0195,-0.02425,0.0003815,0.00024425,-9.15e-05,1742093336.0172129
-0.24775,-0.0195,-0.02375,0.00033575002,0.00035100002,-7.625e-05,1742093336.031769
-0.2475,-0.0195,-0.0235,0.00045775,0.000412,-0.000122000005,1742093336.046307
-0.2475,-0.0195,-0.0235,0.00054925,0.00045775,-0.00016775,1742093336.060797
-0.24775,-0.01925,-0.021,0.00102225,0.00067150005,-0.0002595,1742093336.0753431
-0.24825,-0.0185,-0.0235,0.0016632499,0.000824,-0.00027475,1742093336.089834
-0.24825,-0.01875,-0.02375,0.0019989999,0.000885,-0.000229,1742093336.1043131
-0.248,-0.0185,-0.02175,0.00193775,0.0008545,-6.1000002e-05,1742093336.118979
-0.248,-0.01825,-0.02225,0.0020599999,0.0007935,-1.5250001e-05,1742093336.133853
-0.24825,-0.0185,-0.023,0.0018615,0.00048825,0.00016775,1742093336.1480992
-0.248,-0.0195,-0.02225,0.00154125,0.0003205,0.00024425,1742093336.162605
-0.24775,-0.02,-0.021,0.0012665,0.00024425,0.00019825,1742093336.177023
-0.2475,-0.02,-0.02225,0.0012665,0.0002135,0.00013725001,1742093336.19161
-0.24775,-0.02,-0.02225,0.0009155,7.625e-05,0.0,1742093336.206016
-0.2475,-0.0195,-0.02225,0.0009765,9.15e-05,-7.625e-05,1742093336.2205272
-0.2475,-0.01975,-0.0235,0.00086975005,0.00010675,-0.0002595,1742093336.235202
-0.24725,-0.01975,-0.02325,0.00054925,9.15e-05,-0.00033575002,1742093336.24984
-0.2475,-0.01975,-0.02275,0.0002595,7.625e-05,-0.00042725,1742093336.264443
-0.24775,-0.0195,-0.0225,0.0,0.00010675,-0.00065625,1742093336.278962
-0.248,-0.019,-0.02225,-4.575e-05,0.00016775,-0.00074775,1742093336.293951
-0.24775,-0.0185,-0.022,-0.00010675,0.0002595,-0.00086975005,1742093336.3082292
-0.24725,-0.0185,-0.02175,-3.0500001e-05,0.00024425,-0.00096125,1742093336.3229382
-0.2475,-0.01825,-0.02125,0.00010675,0.0001525,-0.001114,1742093336.3375418
-0.248,-0.01775,-0.02225,-3.0500001e-05,0.000122000005,-0.0011445,1742093336.352152
-0.248,-0.01775,-0.02225,-0.00013725001,0.000122000005,-0.0012207499,1742093336.3669178
-0.24775,-0.01725,-0.02175,-7.625e-05,0.00010675,-0.0012970001,1742093336.3816772
-0.2475,-0.017,-0.0215,4.575e-05,7.625e-05,-0.0013885,1742093336.3962398
-0.248,-0.016,-0.022,0.00013725001,9.15e-05,-0.001419,1742093336.4109728
-0.24825,-0.01575,-0.02175,0.00013725001,0.000122000005,-0.0013885,1742093336.4256582
-0.2485,-0.0155,-0.0215,-6.1000002e-05,7.625e-05,-0.0013427499,1742093336.440361
-0.2485,-0.01475,-0.023,-0.00030525,3.0500001e-05,-0.0012970001,1742093336.454893
-0.24825,-0.0145,-0.02225,-0.000229,0.00019825,-0.001236,1742093336.469586
-0.248,-0.01425,-0.02175,-0.0001525,0.0001525,-0.0012207499,1742093336.4841979
-0.24825,-0.01425,-0.02175,-0.00024425,9.15e-05,-0.001114,1742093336.498952
-0.249,-0.013,-0.02125,-0.00027475,0.00013725001,-0.0010375,1742093336.51387
-0.249,-0.0125,-0.0215,-4.575e-05,0.00024425,-0.00071725,1742093336.528251
-0.24875,-0.013,-0.02125,9.15e-05,0.0002595,-0.000534,1742093336.543563
-0.2485,-0.01325,-0.021,0.00019825,0.0002135,-0.00029,1742093336.557649
-0.24825,-0.0135,-0.02125,0.0001525,0.00013725001,-0.000229,1742093336.572119
-0.248,-0.0135,-0.021,0.000122000005,1.5250001e-05,-0.0001525,1742093336.586625
-0.248,-0.0135,-0.021,0.0001525,-1.5250001e-05,-0.0001525,1742093336.6012428
-0.24825,-0.0135,-0.021,0.00029,-6.1000002e-05,-0.000122000005,1742093336.6159308
-0.24825,-0.0135,-0.02175,0.00033575002,-7.625e-05,-0.00010675,1742093336.630616
-0.248,-0.01375,-0.0215,0.0003205,-7.625e-05,-0.00010675,1742093336.645241
-0.248,-0.01425,-0.02125,0.00027475,-6.1000002e-05,-0.0002135,1742093336.659942
-0.24825,-0.01375,-0.02125,0.00029,-4.575e-05,-0.0003205,1742093336.675807
-0.24825,-0.0135,-0.02175,0.00033575002,0.0,-0.00048825,1742093336.689089
-0.24825,-0.0135,-0.02175,0.0003815,6.1000002e-05,-0.00051875,1742093336.703994
-0.248,-0.01325,-0.02175,0.00048825,0.00016775,-0.00062550005,1742093336.718126
-0.248,-0.01325,-0.022,0.000412,0.0002135,-0.00067150005,1742093336.733833
-0.24825,-0.013,-0.02175,0.0002135,0.00033575002,-0.00077825,1742093336.747427
-0.2485,-0.0125,-0.021,0.000229,0.00035100002,-0.00083925005,1742093336.761931
-0.2485,-0.0125,-0.021,0.00030525,0.00029,-0.00086975005,1742093336.776513
-0.2485,-0.01225,-0.0205,0.00030525,0.00027475,-0.00086975005,1742093336.791239
-0.24875,-0.01175,-0.0205,0.00027475,0.0002595,-0.00086975005,1742093336.805898
-0.24875,-0.0115,-0.02075,0.0002135,0.00024425,-0.00077825,1742093336.82044
-0.24825,-0.0115,-0.02075,0.000183,0.000229,-0.00067150005,1742093336.834945
-0.24825,-0.01125,-0.021,0.000229,0.000183,-0.000534,1742093336.849514
-0.24875,-0.011,-0.02075,0.00027475,0.00019825,-0.000473,1742093336.864197
-0.24875,-0.011,-0.0205,0.0002595,0.0001525,-0.00033575002,1742093336.878719
-0.2485,-0.011,-0.02075,0.0002135,0.00010675,-0.0002595,1742093336.893877
-0.24825,-0.011,-0.02075,0.000183,3.0500001e-05,-0.00016775,1742093336.907816
-0.24875,-0.01125,-0.02075,0.00019825,1.5250001e-05,-0.0001525,1742093336.922291
-0.24875,-0.01125,-0.02075,0.0001525,4.575e-05,-0.000122000005,1742093336.9368231
-0.24875,-0.01075,-0.021,0.000122000005,7.625e-05,-7.625e-05,1742093336.951319
-0.24875,-0.011,-0.02075,7.625e-05,9.15e-05,-1.5250001e-05,1742093336.9657989
-0.24825,-0.0115,-0.02075,4.575e-05,3.0500001e-05,4.575e-05,1742093336.9802392
-0.2485,-0.011,-0.02075,7.625e-05,0.0,4.575e-05,1742093336.9947488
-0.24875,-0.0105,-0.021,0.00019825,6.1000002e-05,0.000122000005,1742093337.0091991
-0.24875,-0.011,-0.02125,0.00019825,9.15e-05,0.000183,1742093337.0236611
-0.24875,-0.01125,-0.021,0.00010675,0.00010675,0.0002595,1742093337.038264
-0.248,-0.012,-0.0205,0.000122000005,0.000122000005,0.000229,1742093337.053905
-0.248,-0.012,-0.02025,0.00010675,0.000122000005,0.000122000005,1742093337.067162
-0.24825,-0.012,-0.0205,0.00010675,0.000122000005,6.1000002e-05,1742093337.081728
-0.2485,-0.012,-0.02075,0.00010675,0.00013725001,0.0,1742093337.096226
-0.24825,-0.012,-0.02075,0.0,0.000183,-7.625e-05,1742093337.1108422
-0.24825,-0.0115,-0.02025,-3.0500001e-05,0.00016775,-0.00010675,1742093337.125407
-0.2485,-0.01125,-0.0205,1.5250001e-05,0.00010675,-0.00013725001,1742093337.139991
-0.2485,-0.01125,-0.02025,9.15e-05,0.00010675,-0.000122000005,1742093337.154498
-0.2485,-0.01125,-0.0205,9.15e-05,7.625e-05,-0.000122000005,1742093337.169097
-0.2485,-0.01175,-0.0205,6.1000002e-05,9.15e-05,-0.000122000005,1742093337.183713
-0.2485,-0.01175,-0.0205,7.625e-05,0.00013725001,-0.000183,1742093337.198113
-0.24825,-0.0115,-0.0205,4.575e-05,0.00016775,-0.0002135,1742093337.2126021
-0.24825,-0.0115,-0.02075,3.0500001e-05,0.00030525,-0.0002595,1742093337.227114
-0.24825,-0.01125,-0.02075,-1.5250001e-05,0.0003815,-0.00027475,1742093337.2417338
-0.24875,-0.011,-0.02075,-3.0500001e-05,0.00045775,-0.0002595,1742093337.256435
-0.249,-0.01075,-0.02075,0.0,0.00054925,-0.00016775,1742093337.270916
-0.24875,-0.01075,-0.01975,6.1000002e-05,0.00057975,-9.15e-05,1742093337.2854881
-0.24875,-0.0105,-0.019,0.00010675,0.000534,4.575e-05,1742093337.3000069
-0.24875,-0.01075,-0.019,0.0001525,0.000473,9.15e-05,1742093337.314507
-0.24875,-0.01075,-0.019,0.00024425,0.00035100002,0.00019825,1742093337.328984
-0.24875,-0.0115,-0.019,0.000229,0.00029,0.00024425,1742093337.343749
-0.24875,-0.01175,-0.01925,0.00019825,0.0001525,0.00024425,1742093337.3584971
-0.24825,-0.01175,-0.01875,0.000229,9.15e-05,0.000229,1742093337.3724952
-0.24825,-0.01175,-0.019,0.00027475,4.575e-05,0.00019825,1742093337.387033
-0.24825,-0.01175,-0.019,0.00024425,-1.5250001e-05,0.00013725001,1742093337.40175
-0.2485,-0.01175,-0.019,0.000229,-4.575e-05,7.625e-05,1742093337.4162931
-0.2485,-0.01175,-0.01925,0.00016775,-0.00010675,-1.5250001e-05,1742093337.430926
-0.24825,-0.012,-0.019,0.0001525,-0.00013725001,-3.0500001e-05,1742093337.445556
-0.24825,-0.01175,-0.01875,0.00010675,-0.000229,-0.00013725001,1742093337.460429
-0.2485,-0.01175,-0.01925,9.15e-05,-0.00024425,-0.00019825,1742093337.475041
-0.2485,-0.01175,-0.0195,0.000122000005,-0.000229,-0.0002595,1742093337.489749
-0.249,-0.01125,-0.02,0.0001525,-0.00019825,-0.00024425,1742093337.504411
-0.24875,-0.0115,-0.02,7.625e-05,-9.15e-05,-0.000183,1742093337.518971
-0.24825,-0.01125,-0.01975,4.575e-05,-6.1000002e-05,-0.00019825,1742093337.534019
-0.2485,-0.01125,-0.02,0.00010675,1.5250001e-05,-0.00019825,1742093337.548179
-0.24875,-0.01075,-0.0205,0.000122000005,4.575e-05,-0.0001525,1742093337.5639749
-0.24875,-0.0105,-0.0205,0.00013725001,7.625e-05,-9.15e-05,1742093337.577421
-0.24875,-0.01075,-0.02025,0.00013725001,0.000183,6.1000002e-05,1742093337.591946
-0.2485,-0.01125,-0.02,0.000122000005,0.000229,0.00010675,1742093337.606401
-0.2485,-0.01125,-0.01975,9.15e-05,0.0003205,0.00010675,1742093337.6208389
-0.24875,-0.0115,-0.0195,7.625e-05,0.00036625,0.000122000005,1742093337.635324
-0.2485,-0.01175,-0.01925,-4.575e-05,0.00036625,0.00010675,1742093337.6499379
-0.2485,-0.0115,-0.01825,-6.1000002e-05,0.00030525,7.625e-05,1742093337.664482
-0.2485,-0.01125,-0.018,-3.0500001e-05,0.00010675,6.1000002e-05,1742093337.679113
-0.24875,-0.011,-0.01775,1.5250001e-05,-3.0500001e-05,7.625e-05,1742093337.6936479
-0.2485,-0.011,-0.01775,0.00013725001,-0.00019825,0.000122000005,1742093337.708201
-0.2485,-0.012,-0.0185,0.00029,-0.000534,0.00024425,1742093337.722937
-0.24825,-0.012,-0.019,0.00030525,-0.00068675,0.0002595,1742093337.737501
-0.248,-0.01225,-0.01925,0.0003815,-0.000885,0.00016775,1742093337.7521422
-0.24825,-0.01275,-0.02025,0.000412,-0.00090025004,7.625e-05,1742093337.7666419
-0.24825,-0.01275,-0.02075,0.00029,-0.0007935,-0.0001525,1742093337.7813299
-0.248,-0.0125,-0.0215,0.0001525,-0.00067150005,-0.0002595,1742093337.795939
-0.24825,-0.01225,-0.0215,9.15e-05,-0.000412,-0.00048825,1742093337.810644
-0.24825,-0.01175,-0.02125,0.000122000005,-0.00027475,-0.0005645,1742093337.825435
-0.2485,-0.0115,-0.0215,9.15e-05,-4.575e-05,-0.00071725,1742093337.8399308
-0.2485,-0.0105,-0.021,4.575e-05,4.575e-05,-0.00071725,1742093337.854479
-0.2485,-0.0105,-0.02075,-6.1000002e-05,7.625e-05,-0.00062550005,1742093337.869196
-0.2485,-0.0105,-0.02025,-7.625e-05,6.1000002e-05,-0.00054925,1742093337.884049
-0.24825,-0.0105,-0.02025,-7.625e-05,6.1000002e-05,-0.000473,1742093337.898392
-0.24875,-0.01025,-0.02025,1.5250001e-05,-3.0500001e-05,-0.00030525,1742093337.9141529
-0.249,-0.01025,-0.02025,9.15e-05,-6.1000002e-05,-0.0002135,1742093337.9277928
-0.249,-0.0105,-0.0205,0.00016775,-9.15e-05,-4.575e-05,1742093337.942392
-0.24875,-0.01075,-0.021,0.00013725001,-0.00010675,0.0,1742093337.956888
-0.2485,-0.0105,-0.021,0.000122000005,-0.00010675,4.575e-05,1742093337.9715142
-0.2485,-0.01075,-0.02125,0.00016775,-7.625e-05,7.625e-05,1742093337.986152
-0.2485,-0.011,-0.02125,0.00016775,7.625e-05,9.15e-05,1742093338.0005078
-0.24825,-0.0115,-0.02125,0.00010675,0.0001525,3.0500001e-05,1742093338.0152588
-0.24825,-0.01125,-0.021,-1.5250001e-05,0.00029,-0.0001525,1742093338.029917
-0.24825,-0.011,-0.02075,-9.15e-05,0.00035100002,-0.000229,1742093338.044835
-0.24825,-0.01075,-0.02025,-0.00013725001,0.0004425,-0.0003205,1742093338.059181
-0.24875,-0.0105,-0.02025,-0.00010675,0.00039675,-0.0003205,1742093338.0751019
-0.24875,-0.0105,-0.02,-4.575e-05,0.00033575002,-0.00027475,1742093338.088601
-0.24875,-0.01025,-0.02,3.0500001e-05,0.000229,-0.00016775,1742093338.1037598
-0.2485,-0.01025,-0.01975,6.1000002e-05,0.000183,-0.000122000005,1742093338.117685
-0.24825,-0.01075,-0.0195,7.625e-05,0.00010675,-7.625e-05,1742093338.13218
-0.24825,-0.01075,-0.02,7.625e-05,6.1000002e-05,-7.625e-05,1742093338.14674
-0.2485,-0.0105,-0.0195,4.575e-05,-6.1000002e-05,-1.5250001e-05,1742093338.161398
-0.24875,-0.0105,-0.01925,7.625e-05,-0.00013725001,3.0500001e-05,1742093338.1758919
-0.2485,-0.0105,-0.0195,0.000183,-0.00030525,0.00010675,1742093338.19047
-0.24825,-0.01075,-0.02,0.000183,-0.0003815,0.00010675,1742093338.205108
-0.24825,-0.011,-0.02025,0.00019825,-0.00048825,3.0500001e-05,1742093338.2196338
-0.24825,-0.01125,-0.0205,0.00016775,-0.0005035,-4.575e-05,1742093338.234273
-0.248,-0.0115,-0.0205,0.0001525,-0.000534,-0.00010675,1742093338.248876
-0.248,-0.0115,-0.0205,0.0001525,-0.00059500005,-0.0003205,1742093338.264113
-0.248,-0.01125,-0.02075,0.000183,-0.00061025,-0.00045775,1742093338.2783098
-0.24825,-0.011,-0.021,0.000122000005,-0.00068675,-0.00065625,1742093338.293751
-0.2485,-0.0105,-0.02125,0.00010675,-0.00071725,-0.00070200005,1742093338.30764
-0.24825,-0.0105,-0.02125,9.15e-05,-0.00070200005,-0.000824,1742093338.3223
-0.24825,-0.01,-0.022,0.00010675,-0.00067150005,-0.00090025004,1742093338.336839
-0.24825,-0.00975,-0.0225,0.0001525,-0.00061025,-0.00102225,1742093338.3516412
-0.2485,-0.00925,-0.023,0.0001525,-0.00051875,-0.001068,1742093338.366282
-0.249,-0.009,-0.023,0.00010675,-0.00030525,-0.00099175,1742093338.381012
-0.24875,-0.0085,-0.0225,0.00010675,-0.000229,-0.00090025004,1742093338.395807
-0.24875,-0.00825,-0.0225,6.1000002e-05,-0.00016775,-0.00067150005,1742093338.41039
-0.2485,-0.0085,-0.02425,-4.575e-05,-0.0002135,-0.00057975,1742093338.425065
-0.2485,-0.00825,-0.0225,-0.0003815,-0.00030525,-0.00048825,1742093338.439838
-0.24875,-0.00775,-0.02125,-0.0002135,-0.00019825,-0.00036625,1742093338.45469
-0.24875,-0.00825,-0.02225,0.00013725001,-0.00013725001,-0.00030525,1742093338.469505
-0.24875,-0.0085,-0.02275,0.00016775,-0.000122000005,-0.0002135,1742093338.4843252
-0.2485,-0.0085,-0.023,0.00013725001,-0.000122000005,-0.00019825,1742093338.499004
-0.2485,-0.0085,-0.0225,7.625e-05,-6.1000002e-05,-0.00016775,1742093338.513835
-0.2485,-0.00825,-0.02275,4.575e-05,-1.5250001e-05,-0.00019825,1742093338.528256
-0.2485,-0.00825,-0.023,3.0500001e-05,6.1000002e-05,-0.00019825,1742093338.542816
-0.2485,-0.00775,-0.02275,6.1000002e-05,9.15e-05,-0.00016775,1742093338.557421
-0.2485,-0.008,-0.0225,9.15e-05,0.000122000005,-0.00010675,1742093338.571882
-0.24825,-0.008,-0.023,7.625e-05,0.0001525,-7.625e-05,1742093338.586459
-0.24825,-0.00825,-0.02275,6.1000002e-05,0.0002595,-0.00010675,1742093338.601088
-0.24825,-0.00875,-0.02275,1.5250001e-05,0.00030525,-0.0001525,1742093338.615503
-0.248,-0.0085,-0.02275,-7.625e-05,0.00036625,-0.0002135,1742093338.630185
-0.24825,-0.008,-0.022,-0.0001525,0.00045775,-0.00033575002,1742093338.644812
-0.24825,-0.008,-0.022,-0.000122000005,0.0005035,-0.00036625,1742093338.659467
-0.24825,-0.008,-0.02225,-0.00010675,0.000534,-0.000412,1742093338.674258
-0.2485,-0.00775,-0.02175,-9.15e-05,0.00051875,-0.0004425,1742093338.688798
-0.24825,-0.0075,-0.02275,-0.00019825,0.00042725,-0.00042725,1742093338.7039099
-0.249,-0.0075,-0.02175,-0.00064075,0.0003205,-0.00033575002,1742093338.717974
-0.249,-0.0075,-0.019,-0.00048825,0.000473,-0.0002595,1742093338.733142
-0.24875,-0.00775,-0.021,-6.1000002e-05,0.0005645,-0.00029,1742093338.7471502
-0.24825,-0.00775,-0.02125,-4.575e-05,0.00051875,-0.0002595,1742093338.761822
-0.24825,-0.00775,-0.02175,-0.00033575002,0.00039675,-0.0002135,1742093338.7766001
-0.2485,-0.0075,-0.0195,-0.00042725,0.0003205,-0.0002135,1742093338.7911592
-0.248,-0.00725,-0.02,-9.15e-05,0.0003205,-0.0002595,1742093338.805791
-0.24825,-0.00725,-0.0205,6.1000002e-05,0.00027475,-0.00027475,1742093338.82049
-0.249,-0.00725,-0.02075,9.15e-05,9.15e-05,-0.000183,1742093338.835087
-0.249,-0.0075,-0.02075,0.000122000005,1.5250001e-05,-0.000122000005,1742093338.849597
-0.24875,-0.0075,-0.02075,7.625e-05,-4.575e-05,-7.625e-05,1742093338.864259
-0.248,-0.00725,-0.0205,3.0500001e-05,-6.1000002e-05,-9.15e-05,1742093338.878913
-0.24825,-0.00725,-0.0205,9.15e-05,-0.00010675,-0.00010675,1742093338.893884
-0.24875,-0.00725,-0.021,0.000122000005,-9.15e-05,-0.00010675,1742093338.908092
-0.2485,-0.00725,-0.02125,6.1000002e-05,-4.575e-05,-9.15e-05,1742093338.922795
-0.24825,-0.007,-0.021,4.575e-05,-3.0500001e-05,-9.15e-05,1742093338.937372
-0.2485,-0.007,-0.021,7.625e-05,-1.5250001e-05,-6.1000002e-05,1742093338.951998
-0.2485,-0.007,-0.02075,6.1000002e-05,-3.0500001e-05,-1.5250001e-05,1742093338.9665742
-0.2485,-0.007,-0.02075,4.575e-05,-3.0500001e-05,3.0500001e-05,1742093338.98109
-0.2485,-0.007,-0.021,0.0,-4.575e-05,0.00010675,1742093338.995688
-0.2485,-0.007,-0.021,1.5250001e-05,-6.1000002e-05,0.00013725001,1742093339.01018
-0.2485,-0.00725,-0.02075,0.00010675,-0.000122000005,0.000183,1742093339.024719
-0.24875,-0.00775,-0.021,0.00016775,-0.00013725001,0.00019825,1742093339.039284
-0.2485,-0.008,-0.021,0.00016775,-0.000183,0.00016775,1742093339.0538611
-0.24825,-0.00775,-0.02125,0.0001525,-0.000183,0.000122000005,1742093339.0684512
-0.24825,-0.008,-0.0215,0.00010675,-0.00016775,3.0500001e-05,1742093339.083849
-0.24825,-0.00825,-0.02125,4.575e-05,-0.0001525,-4.575e-05,1742093339.0976498
-0.24825,-0.008,-0.02125,-6.1000002e-05,-0.00016775,-0.00019825,1742093339.1134322
-0.248,-0.00775,-0.02125,-0.000122000005,-0.00016775,-0.00027475,1742093339.127059
-0.24825,-0.0075,-0.02125,-0.000122000005,-0.0002135,-0.00029,1742093339.141875
-0.24875,-0.00725,-0.021,-6.1000002e-05,-0.00024425,-0.00024425,1742093339.156682
-0.24875,-0.00725,-0.021,-1.5250001e-05,-0.0003205,-0.00019825,1742093339.171401
-0.2485,-0.0075,-0.0215,7.625e-05,-0.00045775,-0.0001525,1742093339.185964
-0.24825,-0.0075,-0.02175,0.0001525,-0.00048825,-0.0001525,1742093339.2005801
-0.24825,-0.0075,-0.022,0.00019825,-0.0005035,-0.000183,1742093339.215266
-0.2485,-0.00725,-0.0225,0.000183,-0.000473,-0.00019825,1742093339.229886
-0.24825,-0.0075,-0.0225,0.00013725001,-0.00035100002,-0.00024425,1742093339.244498
-0.248,-0.0075,-0.02275,0.00013725001,-0.00029,-0.00027475,1742093339.259176
-0.24825,-0.00725,-0.023,0.00013725001,-0.000122000005,-0.0003205,1742093339.2748291
-0.2485,-0.007,-0.0225,0.00010675,-3.0500001e-05,-0.0003205,1742093339.288407
-0.2485,-0.00675,-0.02225,0.000122000005,6.1000002e-05,-0.00036625,1742093339.3038669
-0.248,-0.007,-0.022,0.0001525,6.1000002e-05,-0.0003815,1742093339.31763
-0.24825,-0.007,-0.02225,0.00019825,0.0,-0.000412,1742093339.3320892
-0.2485,-0.00675,-0.02225,0.0001525,-4.575e-05,-0.0004425,1742093339.346795
-0.2485,-0.00675,-0.02225,0.000122000005,-0.00010675,-0.00045775,1742093339.361599
-0.2485,-0.00625,-0.02225,9.15e-05,-0.00024425,-0.00042725,1742093339.376161
-0.2485,-0.006,-0.02175,9.15e-05,-0.0003205,-0.00039675,1742093339.390795
-0.2485,-0.006,-0.022,0.00016775,-0.00045775,-0.0003205,1742093339.4056199
-0.24825,-0.00625,-0.0225,0.00016775,-0.000534,-0.00030525,1742093339.42024
-0.248,-0.00625,-0.0225,0.000183,-0.00065625,-0.00030525,1742093339.434876
-0.24825,-0.0065,-0.02325,0.00019825,-0.00070200005,-0.00035100002,1742093339.4495869
-0.248,-0.0065,-0.0235,0.0001525,-0.00068675,-0.00042725,1742093339.464266
-0.2485,-0.00625,-0.024,0.000122000005,-0.00065625,-0.00048825,1742093339.4788759
-0.2485,-0.00575,-0.02425,9.15e-05,-0.00048825,-0.00054925,1742093339.4940438
-0.24875,-0.00525,-0.0245,6.1000002e-05,-0.00042725,-0.000534,1742093339.508239
-0.2485,-0.00525,-0.024,0.00013725001,-0.00027475,-0.0004425,1742093339.5228422
-0.2485,-0.00475,-0.0235,0.00035100002,-0.0002135,-0.00039675,1742093339.5375779
-0.24825,-0.005,-0.024,0.00054925,-0.00016775,-0.00035100002,1742093339.552256
-0.248,-0.00525,-0.0245,0.00064075,-6.1000002e-05,-0.00029,1742093339.5668979
-0.24825,-0.00525,-0.02425,0.00064075,-1.5250001e-05,-0.00029,1742093339.581569
-0.24825,-0.00525,-0.0245,0.00064075,7.625e-05,-0.00029,1742093339.596079
-0.24825,-0.00525,-0.02425,0.0005645,0.00013725001,-0.00029,1742093339.610687
-0.24825,-0.00525,-0.024,0.000473,0.000183,-0.00027475,1742093339.6251578
-0.248,-0.00525,-0.024,0.00042725,0.00019825,-0.00029,1742093339.6398048
-0.24825,-0.005,-0.024,0.00029,0.00019825,-0.00033575002,1742093339.6544461
-0.2485,-0.0045,-0.02375,0.000229,0.00019825,-0.00035100002,1742093339.6690838
-0.2485,-0.0045,-0.024,0.000183,0.0002135,-0.0003205,1742093339.6839721
-0.24825,-0.005,-0.024,0.00016775,0.00024425,-0.00030525,1742093339.698199
-0.24825,-0.00475,-0.024,0.000122000005,0.00027475,-0.00030525,1742093339.713692
-0.2485,-0.00425,-0.02375,0.00013725001,0.00030525,-0.0003205,1742093339.72719
-0.2485,-0.00425,-0.024,0.00019825,0.00035100002,-0.0003205,1742093339.7417018
-0.2485,-0.00425,-0.024,0.0001525,0.0005035,-0.00030525,1742093339.756193
-0.24825,-0.00425,-0.024,0.00010675,0.00057975,-0.00030525,1742093339.7708108
-0.24825,-0.00425,-0.024,-4.575e-05,0.00077825,-0.0003205,1742093339.785463
-0.2485,-0.00375,-0.02325,-7.625e-05,0.0008545,-0.00030525,1742093339.80017
-0.2485,-0.00375,-0.0225,-6.1000002e-05,0.0009155,-0.0002135,1742093339.8147972
-0.24825,-0.00375,-0.0215,-3.0500001e-05,0.0008545,-0.0001525,1742093339.82947
-0.24825,-0.00375,-0.021,0.0,0.00064075,-6.1000002e-05,1742093339.844084
-0.24825,-0.00375,-0.02075,3.0500001e-05,0.00048825,0.0,1742093339.8586
-0.2485,-0.00375,-0.021,7.625e-05,0.00033575002,6.1000002e-05,1742093339.873052
-0.24825,-0.00425,-0.02125,0.00016775,4.575e-05,0.00016775,1742093339.8876212
-0.24825,-0.00475,-0.0215,0.0002135,-9.15e-05,0.000183,1742093339.9022121
-0.24825,-0.00475,-0.02125,0.00016775,-0.0003205,0.00013725001,1742093339.916667
-0.24825,-0.00475,-0.022,0.000122000005,-0.00042725,9.15e-05,1742093339.9311502
-0.24825,-0.00475,-0.022,6.1000002e-05,-0.00054925,-1.5250001e-05,1742093339.945796
-0.24825,-0.00475,-0.02225,4.575e-05,-0.00057975,-7.625e-05,1742093339.9606311
-0.2485,-0.0045,-0.02225,1.5250001e-05,-0.00054925,-0.00016775,1742093339.975959
-0.2485,-0.00425,-0.023,1.5250001e-05,-0.000534,-0.0002135,1742093339.9899058
-0.24875,-0.00425,-0.02325,-4.575e-05,-0.0004425,-0.00029,1742093340.004707
-0.2485,-0.00375,-0.02325,-7.625e-05,-0.0003815,-0.0003205,1742093340.019409
-0.2485,-0.0035,-0.02325,-4.575e-05,-0.0002595,-0.00029,1742093340.0342028
-0.24875,-0.0035,-0.02325,-6.1000002e-05,-0.00019825,-0.00024425,1742093340.048886
-0.24825,-0.0035,-0.02325,-7.625e-05,-0.000122000005,-0.00019825,1742093340.064168
-0.2485,-0.00325,-0.02325,-4.575e-05,1.5250001e-05,-0.000122000005,1742093340.0782971
-0.2485,-0.00325,-0.02325,-3.0500001e-05,7.625e-05,-6.1000002e-05,1742093340.093413
-0.2485,-0.00325,-0.023,4.575e-05,0.0001525,4.575e-05,1742093340.107452
-0.2485,-0.0035,-0.02275,9.15e-05,0.00016775,7.625e-05,1742093340.1219862
-0.24825,-0.00375,-0.02275,0.00010675,0.00016775,9.15e-05,1742093340.1364732
-0.24825,-0.00425,-0.02275,0.00010675,0.00016775,7.625e-05,1742093340.151003
-0.2485,-0.0045,-0.023,9.15e-05,0.00019825,1.5250001e-05,1742093340.165427
-0.24825,-0.00475,-0.02325,6.1000002e-05,0.00019825,-1.5250001e-05,1742093340.1801522
-0.2485,-0.00475,-0.023,1.5250001e-05,0.00019825,-6.1000002e-05,1742093340.194667
-0.2485,-0.004,-0.023,-3.0500001e-05,0.00019825,-0.00010675,1742093340.209261
-0.24825,-0.0035,-0.0225,-7.625e-05,0.0002135,-0.00013725001,1742093340.224745
-0.2485,-0.0035,-0.02225,0.0,0.00019825,-9.15e-05,1742093340.2384472
-0.2485,-0.00375,-0.0225,6.1000002e-05,0.000183,-6.1000002e-05,1742093340.25389
-0.2485,-0.004,-0.02275,0.000122000005,0.0002135,0.0,1742093340.267638
-0.2485,-0.00425,-0.02275,0.00010675,0.0002135,1.5250001e-05,1742093340.282048
-0.24825,-0.00425,-0.0225,3.0500001e-05,0.00027475,-4.575e-05,1742093340.296669
-0.2485,-0.00425,-0.02275,1.5250001e-05,0.00030525,-7.625e-05,1742093340.3111649
-0.2485,-0.00425,-0.0225,-3.0500001e-05,0.00035100002,-9.15e-05,1742093340.325871
-0.2485,-0.0045,-0.022,-3.0500001e-05,0.00033575002,-9.15e-05,1742093340.340472
-0.2485,-0.0045,-0.02175,-7.625e-05,0.00024425,-0.00013725001,1742093340.3551822
-0.2485,-0.004,-0.022,-0.00010675,0.0002135,-0.0001525,1742093340.369783
-0.2485,-0.004,-0.022,-0.00010675,0.000183,-0.00016775,1742093340.3844469
-0.2485,-0.00375,-0.02225,0.0,0.0002135,-0.00016775,1742093340.399037
-0.2485,-0.004,-0.022,1.5250001e-05,0.000229,-0.0001525,1742093340.4140038
-0.2485,-0.00375,-0.022,0.0,0.00027475,-0.00016775,1742093340.428163
-0.2485,-0.004,-0.023,0.0,0.0003205,-0.00016775,1742093340.44387
-0.2485,-0.00425,-0.02325,-0.00024425,0.00039675,-0.00016775,1742093340.4572659
-0.2485,-0.00375,-0.02025,-0.00024425,0.00045775,-0.00016775,1742093340.471982
-0.24825,-0.0035,-0.02125,0.000122000005,0.00045775,-0.000122000005,1742093340.486569
-0.2485,-0.0035,-0.0215,0.00019825,0.00042725,-9.15e-05,1742093340.501041
-0.2485,-0.00375,-0.0215,0.00029,0.0004425,-6.1000002e-05,1742093340.515661
-0.2485,-0.00375,-0.02125,0.00027475,0.000473,-6.1000002e-05,1742093340.5301409
-0.24825,-0.00375,-0.02125,0.0002595,0.00048825,-7.625e-05,1742093340.544678
-0.2485,-0.00375,-0.021,0.0002135,0.0005645,-0.000122000005,1742093340.5591838
-0.2485,-0.00375,-0.021,0.000183,0.00062550005,-0.0001525,1742093340.5752902
-0.2485,-0.00375,-0.021,0.0001525,0.00070200005,-0.00019825,1742093340.588257
-0.2485,-0.0035,-0.0205,9.15e-05,0.00074775,-0.0002135,1742093340.603818
-0.2485,-0.00325,-0.02025,4.575e-05,0.00080875,-0.0002135,1742093340.617537
-0.2485,-0.003,-0.01975,7.625e-05,0.000824,-0.00019825,1742093340.6320791
-0.24875,-0.00325,-0.01925,9.15e-05,0.000763,-0.0001525,1742093340.64668
-0.2485,-0.0035,-0.019,7.625e-05,0.00070200005,-0.0001525,1742093340.661172
-0.2485,-0.0035,-0.01875,9.15e-05,0.00054925,-0.0001525,1742093340.6757529
-0.24875,-0.00325,-0.019,4.575e-05,0.00045775,-0.00013725001,1742093340.69038
-0.249,-0.00325,-0.01775,-4.575e-05,0.0003815,-0.000122000005,1742093340.705042
-0.24825,-0.00325,-0.0185,3.0500001e-05,0.000229,-0.000122000005,1742093340.719701
-0.24825,-0.00325,-0.01875,7.625e-05,0.000183,-0.000122000005,1742093340.734166
-0.2485,-0.00325,-0.01875,4.575e-05,0.00010675,-0.000122000005,1742093340.7486641
-0.24875,-0.0035,-0.019,0.0,7.625e-05,-0.000122000005,1742093340.7642298
-0.24875,-0.0035,-0.01925,0.0,6.1000002e-05,-0.0001525,1742093340.77772
-0.2485,-0.003,-0.01875,1.5250001e-05,3.0500001e-05,-0.00016775,1742093340.792172
-0.24875,-0.00275,-0.0185,4.575e-05,-7.625e-05,-0.000183,1742093340.806772
-0.24875,-0.00275,-0.019,9.15e-05,-0.00013725001,-0.00013725001,1742093340.8214521
-0.24875,-0.003,-0.01925,0.000183,-0.00016775,-4.575e-05,1742093340.8360581
-0.24875,-0.00275,-0.01925,0.000183,-0.000183,-1.5250001e-05,1742093340.850689
-0.24875,-0.00275,-0.01925,0.00016775,-0.00019825,-1.5250001e-05,1742093340.865206
-0.24875,-0.0035,-0.0195,0.000183,-0.00019825,0.0,1742093340.879756
-0.249,-0.0035,-0.01975,0.000183,-0.000183,-3.0500001e-05,1742093340.894458
-0.249,-0.0035,-0.0195,7.625e-05,-0.000122000005,-0.00013725001,1742093340.9091141
-0.249,-0.0035,-0.0195,4.575e-05,-0.000122000005,-0.000183,1742093340.923794
-0.24875,-0.00325,-0.0195,-1.5250001e-05,-0.000122000005,-0.00024425,1742093340.938587
-0.2485,-0.00275,-0.01925,-4.575e-05,-0.000122000005,-0.00027475,1742093340.954129
-0.2485,-0.00275,-0.0195,-3.0500001e-05,-0.00013725001,-0.00029,1742093340.968191
-0.24875,-0.00325,-0.02025,-0.00010675,-0.0001525,-0.00029,1742093340.982826
-0.2485,-0.003,-0.019,-0.00024425,-6.1000002e-05,-0.00030525,1742093340.997642
-0.2485,-0.00275,-0.0195,-0.00016775,-3.0500001e-05,-0.0003205,1742093341.012366
-0.24875,-0.0025,-0.01925,-7.625e-05,-1.5250001e-05,-0.00029,1742093341.0270772
-0.24875,-0.0015,-0.01925,-1.5250001e-05,-3.0500001e-05,-0.00024425,1742093341.04185
-0.24875,-0.00125,-0.01925,6.1000002e-05,-7.625e-05,-0.00013725001,1742093341.056457
-0.24875,-0.0015,-0.01925,0.000122000005,-0.00010675,-6.1000002e-05,1742093341.0711832
-0.24875,-0.00175,-0.0195,0.000183,-0.00013725001,1.5250001e-05,1742093341.0856938
-0.24875,-0.00225,-0.0195,0.000229,-0.00019825,0.00010675,1742093341.100181
-0.2485,-0.00275,-0.02,0.000229,-0.0002135,0.000122000005,1742093341.1146848
-0.24875,-0.0025,-0.02,0.00019825,-0.0001525,0.00010675,1742093341.129157
-0.24875,-0.00275,-0.02,0.00019825,-0.00010675,9.15e-05,1742093341.143869
-0.24875,-0.003,-0.02025,0.000122000005,0.0,-1.5250001e-05,1742093341.1581628
-0.24875,-0.00325,-0.02025,9.15e-05,4.575e-05,-6.1000002e-05,1742093341.172671
-0.24875,-0.003,-0.02025,4.575e-05,0.00016775,-0.000122000005,1742093341.187208
-0.24875,-0.00275,-0.02,3.0500001e-05,0.000229,-0.00013725001,1742093341.201681
-0.2485,-0.00275,-0.01975,3.0500001e-05,0.00024425,-0.0001525,1742093341.216216
-0.2485,-0.00225,-0.0195,1.5250001e-05,0.00024425,-0.000183,1742093341.230859
-0.249,-0.00225,-0.01925,-1.5250001e-05,0.000229,-0.000183,1742093341.245603
-0.249,-0.00225,-0.0195,-4.575e-05,0.0002595,-0.0001525,1742093341.260261
-0.249,-0.00225,-0.01975,-1.5250001e-05,0.0003205,-0.000122000005,1742093341.275081
-0.249,-0.00225,-0.0195,6.1000002e-05,0.00045775,-0.00010675,1742093341.289546
-0.24875,-0.0025,-0.0195,6.1000002e-05,0.0005035,-9.15e-05,1742093341.304244
-0.2485,-0.0025,-0.01925,4.575e-05,0.0005645,-9.15e-05,1742093341.3186738
-0.24875,-0.0025,-0.019,7.625e-05,0.00057975,-0.00010675,1742093341.333724
-0.24875,-0.0025,-0.01875,9.15e-05,0.00061025,-0.000122000005,1742093341.347681
-0.24875,-0.0025,-0.01875,7.625e-05,0.00062550005,-0.000122000005,1742093341.362174
-0.2485,-0.0025,-0.0185,4.575e-05,0.00061025,-0.00010675,1742093341.376673
-0.24875,-0.0025,-0.0185,4.575e-05,0.00061025,-0.00010675,1742093341.391263
-0.249,-0.0025,-0.01825,4.575e-05,0.00062550005,-0.00010675,1742093341.4058409
-0.249,-0.0025,-0.018,0.0,0.00064075,-0.000122000005,1742093341.420442
-0.24875,-0.00225,-0.0175,-4.575e-05,0.00061025,-0.000122000005,1742093341.4351559
-0.24875,-0.0025,-0.017,-6.1000002e-05,0.0005035,-0.00010675,1742093341.4497879
-0.24875,-0.00225,-0.017,-4.575e-05,0.00045775,-9.15e-05,1742093341.464418
-0.24875,-0.00225,-0.017,-4.575e-05,0.00036625,-9.15e-05,1742093341.479158
-0.249,-0.0025,-0.017,-9.15e-05,0.0003205,-0.00013725001,1742093341.4938948
-0.24875,-0.00225,-0.01725,-0.00016775,0.00024425,-0.00019825,1742093341.508529
-0.24875,-0.00225,-0.017,-0.000183,0.000229,-0.00019825,1742093341.5231519
-0.24875,-0.00225,-0.01675,-0.00019825,0.000183,-0.00019825,1742093341.537795
-0.2485,-0.00225,-0.01725,-0.00019825,0.0001525,-0.0002135,1742093341.552456
-0.24875,-0.002,-0.018,-0.00019825,0.000122000005,-0.0002135,1742093341.567082
-0.249,-0.002,-0.01625,-0.00027475,0.0001525,-0.000229,1742093341.5817962
-0.249,-0.002,-0.01725,-0.000183,0.000183,-0.000229,1742093341.5964448
-0.24875,-0.002,-0.0175,-0.00013725001,0.0002595,-0.000183,1742093341.6111438
-0.24875,-0.002,-0.0165,-0.00010675,0.00027475,-0.00016775,1742093341.6257641
-0.24875,-0.002,-0.0165,-1.5250001e-05,0.00024425,-0.000122000005,1742093341.640471
-0.249,-0.002,-0.01675,0.0,0.000229,-9.15e-05,1742093341.6549718
-0.24875,-0.002,-0.01675,3.0500001e-05,0.00019825,-4.575e-05,1742093341.669578
-0.24875,-0.00225,-0.01625,4.575e-05,0.00019825,-4.575e-05,1742093341.684182
-0.249,-0.00225,-0.01625,9.15e-05,0.00016775,-4.575e-05,1742093341.698648
-0.24875,-0.002,-0.0165,0.0001525,0.0001525,-4.575e-05,1742093341.713644
-0.24875,-0.002,-0.0165,0.00016775,0.00010675,-4.575e-05,1742093341.7276359
-0.24875,-0.00225,-0.0165,0.000122000005,9.15e-05,-6.1000002e-05,1742093341.742164
-0.24875,-0.00225,-0.0165,4.575e-05,0.00010675,-9.15e-05,1742093341.756717
-0.24875,-0.00225,-0.0165,0.0,9.15e-05,-0.00013725001,1742093341.771231
-0.24875,-0.00175,-0.01675,0.0,9.15e-05,-0.000122000005,1742093341.785803
-0.24875,-0.00175,-0.0165,1.5250001e-05,7.625e-05,-9.15e-05,1742093341.8003771
-0.249,-0.002,-0.0165,4.575e-05,7.625e-05,-9.15e-05,1742093341.8148339
-0.249,-0.00225,-0.0165,0.00010675,6.1000002e-05,-6.1000002e-05,1742093341.829421
-0.24875,-0.00225,-0.0165,7.625e-05,7.625e-05,-6.1000002e-05,1742093341.844065
-0.24875,-0.002,-0.0165,0.0,4.575e-05,-7.625e-05,1742093341.8586292
-0.249,-0.0015,-0.01625,0.0,3.0500001e-05,-6.1000002e-05,1742093341.8731189
-0.249,-0.00175,-0.01625,4.575e-05,3.0500001e-05,-4.575e-05,1742093341.8876889
-0.24875,-0.002,-0.01625,6.1000002e-05,1.5250001e-05,-1.5250001e-05,1742093341.902267
-0.24875,-0.002,-0.01625,4.575e-05,0.0,-1.5250001e-05,1742093341.916817
-0.24875,-0.00175,-0.01625,7.625e-05,-4.575e-05,-3.0500001e-05,1742093341.931463
-0.24925,-0.002,-0.01625,0.00010675,-7.625e-05,-3.0500001e-05,1742093341.946093
-0.249,-0.002,-0.0165,0.00010675,-9.15e-05,0.0,1742093341.960657
-0.2485,-0.002,-0.01625,7.625e-05,-0.00010675,0.0,1742093341.975467
-0.2485,-0.00175,-0.01625,6.1000002e-05,-0.00019825,0.0,1742093341.9896152
-0.24875,-0.00175,-0.0165,7.625e-05,-0.00024425,0.0,1742093342.004158
-0.24875,-0.002,-0.0165,7.625e-05,-0.00029,-1.5250001e-05,1742093342.018943
-0.24875,-0.002,-0.0165,4.575e-05,-0.00029,-4.575e-05,1742093342.033779
-0.24875,-0.002,-0.0165,0.0,-0.00029,-4.575e-05,1742093342.0481238
-0.249,-0.00175,-0.0165,0.0,-0.00030525,-6.1000002e-05,1742093342.0633678
-0.249,-0.002,-0.01675,0.0,-0.0003205,-7.625e-05,1742093342.077324
-0.249,-0.002,-0.01675,-4.575e-05,-0.00035100002,-6.1000002e-05,1742093342.092033
-0.249,-0.002,-0.017,-4.575e-05,-0.00035100002,-4.575e-05,1742093342.1067898
-0.249,-0.002,-0.01725,1.5250001e-05,-0.00030525,-7.625e-05,1742093342.1214058
-0.24875,-0.00175,-0.01775,3.0500001e-05,-0.0002595,-6.1000002e-05,1742093342.136095
-0.2485,-0.002,-0.01775,3.0500001e-05,-0.00016775,-4.575e-05,1742093342.150753
-0.24875,-0.00225,-0.01775,3.0500001e-05,-0.000122000005,-4.575e-05,1742093342.1654022
-0.24875,-0.002,-0.01775,1.5250001e-05,-9.15e-05,-4.575e-05,1742093342.180094
-0.24875,-0.00175,-0.01725,0.0,-9.15e-05,-4.575e-05,1742093342.194706
-0.24875,-0.002,-0.017,4.575e-05,-0.0001525,0.0,1742093342.2092092
-0.24875,-0.002,-0.01775,9.15e-05,-0.00019825,1.5250001e-05,1742093342.224172
-0.24875,-0.00225,-0.018,0.000122000005,-0.00019825,3.0500001e-05,1742093342.238335
-0.24875,-0.00225,-0.018,0.00010675,-0.000122000005,3.0500001e-05,1742093342.2536478
-0.249,-0.00225,-0.0175,6.1000002e-05,-9.15e-05,1.5250001e-05,1742093342.267405
-0.249,-0.00225,-0.01775,1.5250001e-05,-4.575e-05,-4.575e-05,1742093342.2820961
-0.2485,-0.00225,-0.018,0.0,-3.0500001e-05,-6.1000002e-05,1742093342.2967129
-0.249,-0.00225,-0.01775,-6.1000002e-05,0.0,-7.625e-05,1742093342.311429
-0.24875,-0.002,-0.0175,-6.1000002e-05,0.0,-7.625e-05,1742093342.326102
-0.24875,-0.00175,-0.0175,-1.5250001e-05,-6.1000002e-05,-7.625e-05,1742093342.340783
-0.2485,-0.002,-0.0175,1.5250001e-05,-0.00010675,-6.1000002e-05,1742093342.355413
-0.24875,-0.002,-0.0175,4.575e-05,-0.00016775,-6.1000002e-05,1742093342.370112
-0.24875,-0.002,-0.01775,4.575e-05,-0.000183,-4.575e-05,1742093342.3847349
-0.24875,-0.002,-0.018,3.0500001e-05,-0.00019825,-1.5250001e-05,1742093342.3994062
-0.2485,-0.002,-0.01825,3.0500001e-05,-0.000183,-1.5250001e-05,1742093342.414057
-0.24875,-0.00225,-0.01825,3.0500001e-05,-0.00016775,-3.0500001e-05,1742093342.428758
-0.2485,-0.002,-0.01825,0.00010675,-1.5250001e-05,-3.0500001e-05,1742093342.443865
-0.2485,-0.00225,-0.01725,0.000122000005,-1.5250001e-05,-4.575e-05,1742093342.458125
-0.24875,-0.00225,-0.018,6.1000002e-05,-0.000122000005,-3.0500001e-05,1742093342.4727402
-0.249,-0.00225,-0.01825,3.0500001e-05,-6.1000002e-05,-3.0500001e-05,1742093342.48733
-0.24875,-0.002,-0.018,6.1000002e-05,3.0500001e-05,-1.5250001e-05,1742093342.501857
-0.24875,-0.00175,-0.018,0.000122000005,7.625e-05,0.0,1742093342.516341
-0.24875,-0.00175,-0.018,0.00013725001,9.15e-05,0.0,1742093342.530762
-0.2485,-0.002,-0.018,0.000122000005,7.625e-05,0.0,1742093342.5451992
-0.2485,-0.0025,-0.01775,9.15e-05,6.1000002e-05,0.0,1742093342.5596569
-0.24875,-0.0025,-0.01775,7.625e-05,4.575e-05,-1.5250001e-05,1742093342.5742102
-0.24875,-0.00225,-0.018,6.1000002e-05,3.0500001e-05,-1.5250001e-05,1742093342.588846
-0.24875,-0.00225,-0.018,1.5250001e-05,0.0,0.0,1742093342.604063
-0.249,-0.002,-0.018,-3.0500001e-05,-1.5250001e-05,-1.5250001e-05,1742093342.617999
-0.249,-0.00225,-0.01775,-6.1000002e-05,0.0,-1.5250001e-05,1742093342.6326551
-0.24875,-0.0025,-0.018,-6.1000002e-05,4.575e-05,-1.5250001e-05,1742093342.647239
-0.24875,-0.0025,-0.01825,-7.625e-05,0.00010675,-4.575e-05,1742093342.661852
-0.24875,-0.00225,-0.01825,-7.625e-05,0.000122000005,-6.1000002e-05,1742093342.6765702
-0.249,-0.002,-0.01775,-1.5250001e-05,0.0001525,-6.1000002e-05,1742093342.691214
-0.249,-0.0025,-0.01775,0.0,0.00019825,-7.625e-05,1742093342.7058392
-0.24875,-0.0025,-0.018,3.0500001e-05,0.00029,-0.00010675,1742093342.720355
-0.24875,-0.002,-0.01775,3.0500001e-05,0.00030525,-0.00010675,1742093342.734859
-0.2485,-0.00175,-0.01775,6.1000002e-05,0.00029,-7.625e-05,1742093342.749399
-0.2485,-0.00175,-0.01775,0.0001525,0.000229,-3.0500001e-05,1742093342.7640991
-0.249,-0.00175,-0.01775,0.000183,0.00019825,-1.5250001e-05,1742093342.7786481
-0.249,-0.002,-0.01775,0.000183,0.00019825,-1.5250001e-05,1742093342.793694
-0.24875,-0.0025,-0.0175,0.00013725001,0.0002135,-3.0500001e-05,1742093342.8076642
-0.2485,-0.0025,-0.01725,0.00010675,0.00024425,-3.0500001e-05,1742093342.8222232
-0.24875,-0.00225,-0.01725,0.00010675,0.000229,-1.5250001e-05,1742093342.836709
-0.24875,-0.002,-0.017,7.625e-05,0.0002135,-3.0500001e-05,1742093342.851277
-0.24875,-0.002,-0.01725,7.625e-05,0.00019825,-3.0500001e-05,1742093342.865823
-0.249,-0.00225,-0.01725,7.625e-05,0.000183,-4.575e-05,1742093342.880356
-0.249,-0.002,-0.017,7.625e-05,0.00016775,-4.575e-05,1742093342.894881
-0.24875,-0.00225,-0.017,6.1000002e-05,0.0001525,-4.575e-05,1742093342.9094331
-0.24875,-0.00225,-0.017,6.1000002e-05,7.625e-05,-7.625e-05,1742093342.92499
-0.249,-0.00225,-0.01725,4.575e-05,7.625e-05,-9.15e-05,1742093342.938533
-0.249,-0.00225,-0.017,1.5250001e-05,0.00010675,-0.00010675,1742093342.953747
-0.24875,-0.00225,-0.017,0.0,0.00010675,-0.00010675,1742093342.967629
-0.2485,-0.00225,-0.017,-1.5250001e-05,4.575e-05,-0.00013725001,1742093342.9831161
-0.24875,-0.002,-0.01675,-3.0500001e-05,1.5250001e-05,-0.0001525,1742093342.996856
-0.249,-0.002,-0.01675,-3.0500001e-05,-3.0500001e-05,-0.000122000005,1742093343.0116491
-0.2485,-0.002,-0.017,-3.0500001e-05,-3.0500001e-05,-0.00010675,1742093343.0263438
-0.24875,-0.002,-0.01725,-4.575e-05,-3.0500001e-05,-0.000122000005,1742093343.041012
-0.24875,-0.00225,-0.017,-3.0500001e-05,-3.0500001e-05,-0.00010675,1742093343.055746
-0.24875,-0.00225,-0.01675,0.0,-3.0500001e-05,-0.00010675,1742093343.07043
-0.24875,-0.00175,-0.017,3.0500001e-05,-1.5250001e-05,-0.00010675,1742093343.0851378
-0.24875,-0.00175,-0.017,3.0500001e-05,-1.5250001e-05,-0.00010675,1742093343.099753
-0.249,-0.002,-0.017,1.5250001e-05,-1.5250001e-05,-7.625e-05,1742093343.114463
-0.24875,-0.00225,-0.017,1.5250001e-05,-1.5250001e-05,-6.1000002e-05,1742093343.12912
-0.249,-0.002,-0.017,3.0500001e-05,-6.1000002e-05,-9.15e-05,1742093343.143896
-0.24875,-0.00175,-0.017,3.0500001e-05,-7.625e-05,-9.15e-05,1742093343.15848
-0.24875,-0.002,-0.01725,1.5250001e-05,-6.1000002e-05,-6.1000002e-05,1742093343.173252
-0.24875,-0.002,-0.01725,4.575e-05,-6.1000002e-05,-6.1000002e-05,1742093343.187853
-0.249,-0.002,-0.017,6.1000002e-05,-4.575e-05,-6.1000002e-05,1742093343.202615
-0.249,-0.00225,-0.017,4.575e-05,-3.0500001e-05,-6.1000002e-05,1742093343.2171829
-0.24875,-0.002,-0.017,3.0500001e-05,-3.0500001e-05,-7.625e-05,1742093343.231723
-0.249,-0.002,-0.01725,3.0500001e-05,-3.0500001e-05,-7.625e-05,1742093343.246451
-0.249,-0.002,-0.01725,1.5250001e-05,-1.5250001e-05,-9.15e-05,1742093343.2611399
-0.24875,-0.002,-0.01725,0.0,4.575e-05,-7.625e-05,1742093343.2756648
-0.24875,-0.002,-0.01725,1.5250001e-05,7.625e-05,-6.1000002e-05,1742093343.290118
-0.249,-0.002,-0.01725,6.1000002e-05,4.575e-05,-6.1000002e-05,1742093343.304758
-0.24875,-0.00175,-0.017,0.00010675,1.5250001e-05,-4.575e-05,1742093343.319414
-0.24875,-0.00175,-0.01675,0.00010675,0.0,-1.5250001e-05,1742093343.3340642
-0.24875,-0.00175,-0.017,0.00010675,-1.5250001e-05,-3.0500001e-05,1742093343.3486562
-0.24875,-0.002,-0.01725,4.575e-05,-6.1000002e-05,-6.1000002e-05,1742093343.364063
-0.249,-0.00175,-0.01725,3.0500001e-05,-9.15e-05,-6.1000002e-05,1742093343.3779252
-0.249,-0.00175,-0.01725,0.0,-0.000122000005,-6.1000002e-05,1742093343.393526
-0.24875,-0.00175,-0.0175,0.0,-0.000122000005,-4.575e-05,1742093343.407197
-0.24875,-0.002,-0.0175,1.5250001e-05,-0.00010675,-4.575e-05,1742093343.4218528
-0.249,-0.00175,-0.01725,1.5250001e-05,-9.15e-05,-7.625e-05,1742093343.4365609
-0.24875,-0.0015,-0.0175,3.0500001e-05,-6.1000002e-05,-9.15e-05,1742093343.451197
-0.24875,-0.00175,-0.01725,3.0500001e-05,-6.1000002e-05,-7.625e-05,1742093343.4657679
-0.24875,-0.002,-0.01725,4.575e-05,-9.15e-05,-7.625e-05,1742093343.480406
-0.24875,-0.002,-0.01725,4.575e-05,-0.000122000005,-6.1000002e-05,1742093343.495133
-0.24875,-0.002,-0.01725,4.575e-05,-0.000122000005,-6.1000002e-05,1742093343.509807
-0.24875,-0.002,-0.0175,4.575e-05,-0.00010675,-9.15e-05,1742093343.526109
-0.24875,-0.00175,-0.018,4.575e-05,-9.15e-05,-9.15e-05,1742093343.539167
-0.249,-0.0015,-0.018,1.5250001e-05,-1.5250001e-05,-9.15e-05,1742093343.554065
-0.24875,-0.0015,-0.018,1.5250001e-05,1.5250001e-05,-9.15e-05,1742093343.568353
-0.2485,-0.002,-0.01775,6.1000002e-05,0.00010675,-9.15e-05,1742093343.583643
-0.24875,-0.002,-0.01725,6.1000002e-05,0.000122000005,-9.15e-05,1742093343.597549
-0.2485,-0.00175,-0.01725,7.625e-05,0.00010675,-7.625e-05,1742093343.612114
-0.24875,-0.0015,-0.017,7.625e-05,0.00010675,-7.625e-05,1742093343.6266549
-0.24875,-0.00175,-0.017,7.625e-05,0.000122000005,-7.625e-05,1742093343.641203
-0.249,-0.00175,-0.017,9.15e-05,0.00010675,-9.15e-05,1742093343.655713
-0.24875,-0.00175,-0.017,9.15e-05,7.625e-05,-7.625e-05,1742093343.6703439
-0.24875,-0.0015,-0.01725,0.00010675,1.5250001e-05,-4.575e-05,1742093343.68484
-0.24875,-0.0015,-0.01725,0.00010675,-1.5250001e-05,-3.0500001e-05,1742093343.699448
-0.24875,-0.002,-0.0175,9.15e-05,-4.575e-05,-1.5250001e-05,1742093343.71411
-0.2485,-0.002,-0.0175,9.15e-05,-4.575e-05,-1.5250001e-05,1742093343.7287092
-0.24875,-0.00175,-0.0175,0.00010675,-4.575e-05,-3.0500001e-05,1742093343.7438238
-0.24875,-0.002,-0.01775,0.00010675,-6.1000002e-05,-3.0500001e-05,1742093343.758136
-0.24875,-0.002,-0.0175,4.575e-05,-6.1000002e-05,-7.625e-05,1742093343.7727191
-0.24875,-0.002,-0.01775,0.0,-4.575e-05,-9.15e-05,1742093343.7874079
-0.24875,-0.00175,-0.018,-3.0500001e-05,-1.5250001e-05,-0.000122000005,1742093343.8021991
-0.24925,-0.0015,-0.01775,-4.575e-05,6.1000002e-05,-0.00010675,1742093343.816865
-0.249,-0.0015,-0.01725,-1.5250001e-05,7.625e-05,-9.15e-05,1742093343.8314219
-0.24875,-0.00175,-0.01725,0.0,6.1000002e-05,-6.1000002e-05,1742093343.846011
-0.24875,-0.0015,-0.01725,0.0,4.575e-05,-4.575e-05,1742093343.860519
-0.249,-0.0015,-0.0175,3.0500001e-05,0.0,-3.0500001e-05,1742093343.8757188
-0.249,-0.00175,-0.0175,4.575e-05,-1.5250001e-05,-1.5250001e-05,1742093343.889729
-0.249,-0.00175,-0.01725,7.625e-05,-4.575e-05,-1.5250001e-05,1742093343.9044201
-0.24875,-0.002,-0.01775,9.15e-05,-3.0500001e-05,-1.5250001e-05,1742093343.9190888
-0.24875,-0.002,-0.01775,4.575e-05,4.575e-05,-4.575e-05,1742093343.934289
-0.24875,-0.00175,-0.01775,3.0500001e-05,9.15e-05,-6.1000002e-05,1742093343.948338
-0.249,-0.00175,-0.0175,-1.5250001e-05,7.625e-05,-9.15e-05,1742093343.964083
-0.24875,-0.00175,-0.01675,-4.575e-05,4.575e-05,-9.15e-05,1742093343.9776618
-0.2485,-0.002,-0.01725,-4.575e-05,1.5250001e-05,-7.625e-05,1742093343.9933271
-0.2485,-0.0015,-0.01775,-1.5250001e-05,-1.5250001e-05,-7.625e-05,1742093344.007207
-0.24875,-0.0015,-0.01775,3.0500001e-05,-1.5250001e-05,-7.625e-05,1742093344.021847
-0.249,-0.0015,-0.01775,7.625e-05,4.575e-05,-6.1000002e-05,1742093344.0363789
-0.249,-0.002,-0.0175,4.575e-05,9.15e-05,-9.15e-05,1742093344.050874
-0.24875,-0.00175,-0.0175,-1.5250001e-05,0.00013725001,-0.00010675,1742093344.0655339
-0.2485,-0.00125,-0.01725,-3.0500001e-05,0.000122000005,-9.15e-05,1742093344.0802119
-0.24875,-0.0015,-0.017,3.0500001e-05,6.1000002e-05,-7.625e-05,1742093344.094753
-0.249,-0.0015,-0.01725,3.0500001e-05,1.5250001e-05,-7.625e-05,1742093344.109327
-0.24875,-0.00175,-0.01725,-3.0500001e-05,-7.625e-05,-6.1000002e-05,1742093344.1255062
-0.24875,-0.00175,-0.01725,0.0,-0.00010675,-6.1000002e-05,1742093344.138685
-0.249,-0.00175,-0.017,4.575e-05,-7.625e-05,-7.625e-05,1742093344.153717
-0.249,-0.00175,-0.01725,3.0500001e-05,-6.1000002e-05,-7.625e-05,1742093344.168138
-0.24875,-0.0015,-0.0175,0.0,-1.5250001e-05,-9.15e-05,1742093344.1827772
-0.2485,-0.00125,-0.0175,0.0,4.575e-05,-9.15e-05,1742093344.197333
-0.249,-0.0015,-0.0175,3.0500001e-05,6.1000002e-05,-7.625e-05,1742093344.2118459
-0.24925,-0.0015,-0.01775,6.1000002e-05,6.1000002e-05,-6.1000002e-05,1742093344.226453
-0.2485,-0.00175,-0.01775,6.1000002e-05,7.625e-05,-4.575e-05,1742093344.241027
-0.2485,-0.00175,-0.0175,1.5250001e-05,0.00013725001,-9.15e-05,1742093344.255527
-0.249,-0.00175,-0.01725,1.5250001e-05,0.00013725001,-0.00010675,1742093344.270151
-0.249,-0.0015,-0.0175,3.0500001e-05,0.0001525,-0.00010675,1742093344.2847118
-0.24875,-0.0015,-0.01725,1.5250001e-05,0.00016775,-0.00010675,1742093344.29933
-0.249,-0.0015,-0.01725,4.575e-05,0.00016775,-6.1000002e-05,1742093344.3139431
-0.249,-0.00125,-0.01725,4.575e-05,0.000183,-7.625e-05,1742093344.328567
-0.24875,-0.0015,-0.017,3.0500001e-05,0.000183,-9.15e-05,1742093344.343806
-0.24875,-0.0015,-0.01675,-1.5250001e-05,0.000183,-9.15e-05,1742093344.357759
-0.249,-0.00125,-0.017,0.0,0.00016775,-7.625e-05,1742093344.372345
-0.249,-0.0015,-0.017,3.0500001e-05,0.00016775,-7.625e-05,1742093344.38691
-0.24875,-0.00175,-0.017,0.0,0.000183,-7.625e-05,1742093344.401529
-0.24875,-0.00175,-0.017,-1.5250001e-05,0.00019825,-9.15e-05,1742093344.4162261
-0.24875,-0.00125,-0.01675,-1.5250001e-05,0.00019825,-0.00010675,1742093344.430811
-0.24875,-0.00125,-0.0165,3.0500001e-05,0.000183,-0.00010675,1742093344.4453561
-0.249,-0.0015,-0.0165,3.0500001e-05,0.000183,-9.15e-05,1742093344.459954
-0.24875,-0.0015,-0.017,-1.5250001e-05,0.000183,-7.625e-05,1742093344.475696
-0.24875,-0.00125,-0.0165,-4.575e-05,0.00016775,-7.625e-05,1742093344.489246
-0.249,-0.00125,-0.01625,-1.5250001e-05,0.0001525,-6.1000002e-05,1742093344.5039418
-0.24875,-0.00125,-0.0165,6.1000002e-05,9.15e-05,-4.575e-05,1742093344.518552
-0.249,-0.00125,-0.0165,7.625e-05,7.625e-05,-4.575e-05,1742093344.533717
-0.249,-0.0015,-0.0165,3.0500001e-05,4.575e-05,-6.1000002e-05,1742093344.547643
-0.24875,-0.00175,-0.01625,0.0,4.575e-05,-7.625e-05,1742093344.563519
-0.24875,-0.00175,-0.01625,-1.5250001e-05,6.1000002e-05,-9.15e-05,1742093344.576849
-0.24875,-0.00125,-0.0165,-1.5250001e-05,4.575e-05,-9.15e-05,1742093344.591535
-0.249,-0.00125,-0.01625,0.0,1.5250001e-05,-9.15e-05,1742093344.6060228
-0.249,-0.0015,-0.01625,1.5250001e-05,1.5250001e-05,-7.625e-05,1742093344.620501
-0.24875,-0.00125,-0.01625,3.0500001e-05,0.0,-6.1000002e-05,1742093344.635096
-0.24875,-0.00125,-0.01625,3.0500001e-05,0.0,-4.575e-05,1742093344.649726
-0.24875,-0.001,-0.0165,4.575e-05,-1.5250001e-05,-4.575e-05,1742093344.664447
-0.24875,-0.0015,-0.01675,3.0500001e-05,-9.15e-05,-4.575e-05,1742093344.679105
-0.24875,-0.00175,-0.01675,1.5250001e-05,-0.00010675,-3.0500001e-05,1742093344.6940002
-0.24875,-0.0015,-0.0165,1.5250001e-05,-7.625e-05,-4.575e-05,1742093344.708504
-0.249,-0.0015,-0.0165,3.0500001e-05,-6.1000002e-05,-4.575e-05,1742093344.723149
-0.24875,-0.0015,-0.0165,6.1000002e-05,-7.625e-05,-1.5250001e-05,1742093344.737851
-0.2485,-0.0015,-0.0165,6.1000002e-05,-7.625e-05,-1.5250001e-05,1742093344.752424
-0.24875,-0.00125,-0.01675,3.0500001e-05,-7.625e-05,-4.575e-05,1742093344.7671459
-0.24875,-0.00125,-0.01675,1.5250001e-05,-7.625e-05,-4.575e-05,1742093344.781784
-0.24875,-0.00125,-0.01675,4.575e-05,-1.5250001e-05,-6.1000002e-05,1742093344.796383
-0.24875,-0.00175,-0.01675,4.575e-05,1.5250001e-05,-7.625e-05,1742093344.8110468
-0.24875,-0.00175,-0.017,0.0,6.1000002e-05,-9.15e-05,1742093344.825547
-0.24875,-0.00125,-0.0165,-1.5250001e-05,6.1000002e-05,-9.15e-05,1742093344.840087
-0.24875,-0.00125,-0.0165,0.0,3.0500001e-05,-6.1000002e-05,1742093344.8545432
-0.24925,-0.0015,-0.017,6.1000002e-05,0.0,-3.0500001e-05,1742093344.869044
-0.24875,-0.0015,-0.017,4.575e-05,0.0,-3.0500001e-05,1742093344.8841238
-0.2485,-0.0015,-0.017,0.0,1.5250001e-05,-4.575e-05,1742093344.8980842
-0.2485,-0.00125,-0.01675,0.0,1.5250001e-05,-4.575e-05,1742093344.9138198
-0.249,-0.0015,-0.01675,6.1000002e-05,4.575e-05,-4.575e-05,1742093344.92732
-0.249,-0.0015,-0.01725,7.625e-05,7.625e-05,-3.0500001e-05,1742093344.941887
-0.2485,-0.00125,-0.01725,7.625e-05,0.00019825,-1.5250001e-05,1742093344.956417
-0.24875,-0.0015,-0.01675,7.625e-05,0.00024425,-1.5250001e-05,1742093344.9709928
-0.249,-0.00125,-0.0165,0.000122000005,0.00030525,0.0,1742093344.9854898
-0.24875,-0.00125,-0.01675,0.0001525,0.0003205,1.5250001e-05,1742093345.0000389
-0.24875,-0.00125,-0.0165,0.0001525,0.0003205,3.0500001e-05,1742093345.0145721
-0.24875,-0.0015,-0.0165,0.000183,0.00033575002,6.1000002e-05,1742093345.0290182
-0.24875,-0.00175,-0.016,0.000183,0.00033575002,6.1000002e-05,1742093345.0439649
-0.24875,-0.002,-0.01575,0.00013725001,0.0002595,3.0500001e-05,1742093345.05792
-0.24875,-0.00175,-0.0155,9.15e-05,0.0002135,0.0,1742093345.072452
-0.2485,-0.00175,-0.0155,4.575e-05,0.00013725001,-4.575e-05,1742093345.087022
-0.249,-0.002,-0.0155,4.575e-05,9.15e-05,-6.1000002e-05,1742093345.101561
-0.24875,-0.00175,-0.01575,4.575e-05,0.0,-0.00010675,1742093345.116061
-0.246,-0.0015,-0.0155,1.5250001e-05,1.5250001e-05,-0.00010675,1742093345.130624
