acc_x,acc_y,acc_z,gyro_x,gyro_y,gyro_z,timestamp
0.24525,0.0135,-0.0165,-0.00019825,-0.00067150005,-0.00016775,1742093410.344495
0.247,0.01425,-0.01375,0.00010675,-0.0003815,-0.00054925,1742093410.358856
0.2475,0.01375,-0.0125,0.00024425,-0.00010675,-0.0010375,1742093410.3733351
0.24725,0.01175,-0.0135,0.000412,-0.0003205,-0.001587,1742093410.387765
0.2455,0.00775,-0.017,0.0005035,-0.00074775,-0.00149525,1742093410.402289
0.2455,0.008,-0.01825,0.00042725,-0.0009765,-0.00064075,1742093410.4173682
0.24825,0.007,-0.01575,0.00039675,-0.00062550005,-0.00019825,1742093410.4313111
0.249,0.007,-0.01375,0.000473,-0.00024425,-3.0500001e-05,1742093410.4457679
0.24925,0.00775,-0.01175,0.00096125,-0.000183,-0.00024425,1742093410.460211
0.24925,0.01125,-0.01025,0.001114,-0.0002595,-0.00030525,1742093410.4746869
0.2505,0.0135,-0.00975,0.000946,0.00016775,-0.00027475,1742093410.489057
0.25075,0.01675,-0.01,0.00077825,0.000412,-0.0003205,1742093410.504282
0.24875,0.01625,-0.01225,0.00057975,0.0005035,-0.00048825,1742093410.5178041
0.24525,0.0145,-0.0165,0.0007325,0.0004425,-0.00071725,1742093410.532157
0.244,0.01425,-0.01775,0.0012207499,0.00013725001,-0.00119025,1742093410.546619
0.243,0.01425,-0.017,0.00112925,3.0500001e-05,-0.00105275,1742093410.560992
0.243,0.0135,-0.016,0.00080875,-1.5250001e-05,-0.00070200005,1742093410.575493
0.2435,0.0125,-0.0155,0.00035100002,-6.1000002e-05,-0.00029,1742093410.589928
0.24425,0.0105,-0.016,0.00039675,-7.625e-05,-0.00036625,1742093410.604364
0.2445,0.00925,-0.016,0.00065625,-0.00027475,-0.00061025,1742093410.6187809
0.24675,0.00725,-0.01325,0.00071725,-0.00030525,-0.00067150005,1742093410.633601
0.247,0.00675,-0.01225,0.0007325,-0.000183,-0.00059500005,1742093410.647753
0.24925,0.00725,-0.01125,0.0007325,-0.000122000005,-0.00036625,1742093410.6621828
0.2515,0.0075,-0.01175,0.000885,-4.575e-05,-0.0001525,1742093410.676608
0.254,0.007,-0.013,0.0024872501,0.000946,-0.0002595,1742093410.690957
0.245,0.03275,-0.018,0.0044250004,0.00228875,-0.000473,1742093410.705257
0.23275,0.071,-0.02725,0.00997925,0.00511175,0.0013275,1742093410.7196102
0.1765,0.27375,-0.06875,0.009719751,0.00697325,0.0029449998,1742093410.734389
0.13625,0.48625,-0.1205,-0.00737,0.0080415,0.0060577504,1742093410.7482939
0.0545,0.821,-0.19625,-0.01876825,0.0052795,0.0045165,1742093410.762666
0.02475,0.74525,-0.15975,-0.028885,-0.000122000005,-0.00369275,1742093410.777199
0.09975,0.24375,0.02775,-0.029068,-0.017807,-0.035766497,1742093410.791637
0.19975,-0.025,0.14425,-0.023956249,-0.0243225,-0.044372503,1742093410.806154
0.30625,-0.252,0.24925,-0.022094749,-0.02127075,-0.033844,1742093410.820787
0.45675,-0.53525,0.34225,-0.02510075,-0.015167249,-0.022094749,1742093410.835438
0.4665,-0.583,0.30825,-0.02845775,0.00514225,-0.00177,1742093410.8498921
0.3545,-0.49625,0.116,-0.026474,0.01419075,0.00367725,1742093410.8644538
0.27625,-0.38975,0.02,-0.01734925,0.019592252,0.0068665,1742093410.878676
0.186,-0.19825,-0.087,-0.00968925,0.017334,0.0054475004,1742093410.893135
0.17225,-0.147,-0.09975,0.0029449998,0.008377,-0.00146475,1742093410.907705
0.183,-0.1015,-0.089,0.0061035,0.0035095,-0.0043944996,1742093410.9221828
0.198,-0.08375,-0.0725,0.007782,-0.00059500005,-0.0054932497,1742093410.9367292
0.216,-0.0625,-0.0525,0.007553,-0.004837,-0.0039215,1742093410.951266
0.24975,-0.03525,-0.0155,0.0066985004,-0.004593,-0.0032347501,1742093410.965845
0.25925,-0.03625,-0.0035,0.0056,-0.0014037499,-0.0037079998,1742093410.980427
0.26175,-0.048,0.006,0.0049590003,0.000473,-0.00384525,1742093410.9948
0.25825,-0.05175,0.006,0.00317375,0.00355525,-0.0032347501,1742093411.0093381
0.246,-0.05625,-0.004,0.0022735,0.0045012496,-0.00251775,1742093411.025203
0.2395,-0.05475,-0.01025,0.000946,0.0048979996,-0.00071725,1742093411.038238
0.23375,-0.0465,-0.01675,0.00067150005,0.0040587503,-0.00016775,1742093411.05262
0.2345,-0.04625,-0.019,0.00065625,0.00270075,6.1000002e-05,1742093411.0669398
0.23525,-0.04775,-0.0205,0.00148,3.0500001e-05,-0.000122000005,1742093411.081416
0.23925,-0.04825,-0.0205,0.0022125002,-0.001007,-0.00036625,1742093411.0959601
0.24325,-0.04575,-0.0185,0.0032655,-0.00225825,-0.0004425,1742093411.110456
0.25225,-0.04275,-0.013,0.00355525,-0.00239575,-0.00030525,1742093411.124935
0.2545,-0.041,-0.01175,0.0039215,-0.00177,-0.00054925,1742093411.139426
0.25525,-0.039,-0.01075,0.004013,-0.0012055,-0.00064075,1742093411.154424
0.25375,-0.04025,-0.01075,0.0037537501,-0.000183,9.15e-05,1742093411.168588
0.249,-0.04325,-0.01125,0.0036010002,0.000229,0.0007325,1742093411.184175
0.24725,-0.04475,-0.0125,0.003418,0.00054925,0.0012970001,1742093411.1973429
0.24475,-0.04475,-0.014,0.0029145,0.00096125,0.0021057501,1742093411.211785
0.2395,-0.04225,-0.018,0.00279225,0.00090025004,0.0029907501,1742093411.226165
0.2365,-0.04275,-0.021,0.00308225,0.00080875,0.00369275,1742093411.2406368
0.23425,-0.03825,-0.02625,0.003769,0.0008545,0.0031889998,1742093411.25507
0.23125,-0.0325,-0.029,0.0054475004,0.0005035,0.001587,1742093411.269583
0.23375,-0.024,-0.028,0.0059815003,0.000122000005,0.00096125,1742093411.284477
0.2375,-0.02275,-0.02575,0.00614925,-0.00030525,0.0012817499,1742093411.298461
0.241,-0.02525,-0.0245,0.0062865,-0.00057975,0.001831,1742093411.314137
0.24075,-0.027,-0.0245,0.007019,-0.001007,0.0020599999,1742093411.327362
0.2405,-0.0275,-0.0245,0.00846875,-0.001709,0.0012665,1742093411.341888
0.23975,-0.0245,-0.02575,0.0085602505,-0.0014495,0.00051875,1742093411.3563242
0.2395,-0.02375,-0.02525,0.00874325,-0.0009155,-0.00083925005,1742093411.3708491
0.24325,-0.0235,-0.022,0.00891125,-0.000946,-0.0012207499,1742093411.3854551
0.24475,-0.0225,-0.02175,0.00912475,-0.00083925005,-0.00157175,1742093411.3999739
0.2445,-0.01675,-0.025,0.009002751,-0.00064075,-0.001419,1742093411.414732
0.243,-0.015,-0.02625,0.00811775,-0.00024425,3.0500001e-05,1742093411.4305642
0.24225,-0.01675,-0.0245,0.0074615004,-0.000229,0.001175,1742093411.472411
0.24225,-0.019,-0.02225,0.0067597497,-0.0004425,0.002411,1742093411.475816
0.243,-0.02125,-0.02075,0.006302,-0.0012665,0.00378425,1742093411.4759831
0.2455,-0.0225,-0.01825,0.0069885002,-0.00154125,0.00328075,1742093411.487647
0.2455,-0.01875,-0.0175,0.009017999,-0.0015565,0.001068,1742093411.517012
0.24775,-0.008,-0.0135,0.009552,-0.00146475,0.000183,1742093411.51728
0.24875,-0.00475,-0.01225,0.009323,-0.0013427499,-0.00024425,1742093411.538398
0.2485,-0.005,-0.013,0.00883475,-0.0013885,3.0500001e-05,1742093411.545373
0.2485,-0.0075,-0.01275,0.00801075,-0.0014495,0.00061025,1742093411.565712
0.2505,-0.01325,-0.0095,0.007904,-0.001419,0.00070200005,1742093411.582488
0.25125,-0.01325,-0.00875,0.00791925,-0.0012817499,0.0007325,1742093411.5923781
0.252,-0.00825,-0.00775,0.0075225,-0.00074775,0.00109875,1742093411.606752
0.2525,-0.0065,-0.008,0.0070342496,-0.00054925,0.00137325,1742093411.621682
0.25275,-0.007,-0.0085,0.0064850003,-0.00036625,0.0012817499,1742093411.636364
0.2505,-0.0125,-0.00975,0.0066374997,-0.0003205,0.0009155,1742093411.650558
0.24925,-0.016,-0.009,0.0072937496,-3.0500001e-05,0.00045775,1742093411.6636312
0.2485,-0.0205,-0.0075,0.0075225,0.0001525,0.00045775,1742093411.680776
0.2475,-0.02075,-0.008,0.00744625,0.00042725,0.001175,1742093411.6904168
0.2455,-0.01875,-0.011,0.00737,0.00048825,0.001587,1742093411.711807
0.24525,-0.01625,-0.01125,0.0073547503,0.00045775,0.0019225,1742093411.71915
0.2445,-0.013,-0.0105,0.00741575,0.00036625,0.0023039998,1742093411.740847
0.245,-0.01475,-0.0115,0.00764475,0.00029,0.0022277501,1742093411.7482429
0.24675,-0.016,-0.0115,0.008850001,0.00036625,0.00146475,1742093411.762312
0.2505,-0.01075,-0.006,0.009582501,0.0003205,0.001068,1742093411.777777
0.254,-0.00625,-0.00075,0.010437001,0.0005035,0.001007,1742093411.791609
0.258,0.0,0.005,0.01071175,0.000885,0.00125125,1742093411.8055701
0.25625,0.00725,0.004,0.01206975,0.0021819999,0.0021057501,1742093411.819676
0.243,0.05725,-0.0105,0.0133667495,0.002655,0.00340275,1742093411.8340878
0.2325,0.12475,-0.02025,0.0154725,0.00340275,0.00514225,1742093411.848381
0.209,0.25575,-0.0375,0.01747125,0.00546275,0.008712751,1742093411.8624651
0.1675,0.71525,-0.10525,0.010253999,0.00491325,0.010803251,1742093411.87668
0.182,0.93375,-0.12575,-0.021698,0.00154125,0.005005,1742093411.891082
0.148,0.9975,-0.09325,-0.0384675,-0.00099175,-0.00320425,1742093411.907818
0.11,0.80925,-0.03025,-0.066574,-0.0078735,-0.01708975,1742093411.920146
0.12125,0.113,0.1935,-0.0727235,-0.009781,-0.0199585,1742093411.934748
0.1705,-0.26475,0.29675,-0.07276925,-0.0088195,-0.020629998,1742093411.9491599
0.2285,-0.60075,0.3495,-0.06526175,-0.0023497501,-0.0072785,1742093411.963905
0.33275,-0.97525,0.33425,-0.05812075,-0.00093075,0.0030669998,1742093411.9783309
0.3425,-0.96075,0.25825,-0.035141,0.002472,0.0052795,1742093411.992765
0.25225,-0.64525,0.06275,-0.020462,0.006668,0.00099175,1742093412.007157
0.2145,-0.45325,0.016,0.0042115003,0.0103455,-0.0029755002,1742093412.02156
0.21225,-0.1635,-0.00575,0.009017999,0.00611875,-0.00099175,1742093412.036051
0.23425,-0.071,-0.01775,0.00924675,-0.01054375,0.0028687501,1742093412.050465
0.2795,0.0325,-0.04575,0.0079345,-0.016037,0.0010375,1742093412.06498
0.2975,0.0535,-0.03575,0.008651749,-0.017685,-0.004013,1742093412.079391
0.31075,0.05675,-0.016,0.011535751,-0.016983,-0.014510999,1742093412.094354
0.32225,0.022,0.00375,0.01019275,-0.013031,-0.014572251,1742093412.108259
0.31575,-0.008,0.00675,0.0053709997,0.001114,-0.00688175,1742093412.12264
0.28175,-0.05875,0.00375,0.0037537501,0.0057677496,-0.00328075,1742093412.136939
0.262,-0.0675,-0.002,0.00354,0.00708,-0.0012665,1742093412.151422
0.23775,-0.05975,-0.00325,0.0036162501,0.006363,-0.0012970001,1742093412.1658618
0.2405,-0.05,0.0065,0.00193775,0.0074615004,0.00024425,1742093412.180143
0.24725,-0.04175,0.0065,0.000183,0.0069885002,0.00305175,1742093412.19458
0.24475,-0.04425,0.003,0.00177,0.0033875,0.00169375,1742093412.2087722
0.23975,-0.04725,-0.00125,0.0045165,-0.0013275,1.5250001e-05,1742093412.223258
0.2435,-0.04975,-0.00225,0.00538625,-0.002411,-4.575e-05,1742093412.237859
0.2465,-0.05,0.002,0.00399775,-0.001648,0.00119025,1742093412.252383
0.2465,-0.051,0.0025,0.00228875,-0.000824,0.0026854998,1742093412.266743
0.247,-0.05025,0.00025,0.00112925,0.0005645,0.0051880004,1742093412.281266
0.2415,-0.04475,-0.01225,0.00157175,0.00109875,0.005249,1742093412.295676
0.2395,-0.04,-0.01925,0.00213625,0.001587,0.004776,1742093412.310061
0.23925,-0.0345,-0.02475,0.0034942501,0.00225825,0.0031585,1742093412.3250492
0.2415,-0.028,-0.02925,0.00416575,0.0021515,0.00231925,1742093412.338759
0.24125,-0.029,-0.029,0.0053405,0.00148,0.00154125,1742093412.3544471
0.24425,-0.03475,-0.0225,0.0058899997,0.001114,0.00149525,1742093412.367745
0.246,-0.03425,-0.01925,0.00671375,0.00074775,0.00143425,1742093412.382157
0.2445,-0.0255,-0.01725,0.0068665,0.00065625,0.0012665,1742093412.396632
0.244,-0.0215,-0.018,0.006607,0.0007325,0.0013275,1742093412.410961
0.2445,-0.0225,-0.017,0.00640875,0.001007,0.00193775,1742093412.42536
0.24375,-0.022,-0.01675,0.0061950004,0.00131225,0.002777,1742093412.439785
0.24175,-0.02,-0.01825,0.0059815003,0.0016632499,0.0039215,1742093412.4543831
0.2375,-0.0175,-0.022,0.006363,0.0016785001,0.00396725,1742093412.46859
0.23825,-0.0185,-0.02075,0.0077972496,0.001007,0.002884,1742093412.4829462
0.241,-0.01625,-0.017,0.008499251,0.0003815,0.002243,1742093412.497349
0.24225,-0.0115,-0.01525,0.0089875,-0.0002595,0.00146475,1742093412.511858
0.244,-0.004,-0.0125,0.0085755,-0.0002135,0.0013580001,1742093412.526336
0.2435,-0.006,-0.01275,0.0076295,0.0,0.0017395001,1742093412.540763
0.24125,-0.01025,-0.01425,0.00561525,0.00083925005,0.00384525,1742093412.555209
0.2355,-0.018,-0.0195,0.00546275,0.00115975,0.0044707498,1742093412.569571
0.234,-0.0185,-0.023,0.0068512503,0.00077825,0.0041504996,1742093412.584406
0.2385,-0.0125,-0.0215,0.00764475,0.000229,0.003891,1742093412.598293
0.244,-0.009,-0.01625,0.008316,-0.000885,0.00367725,1742093412.614439
0.25,-0.0095,-0.003,0.008270251,-0.00119025,0.00354,1742093412.627382
0.24975,-0.014,0.0015,0.008865249,-0.00086975005,0.00320425,1742093412.6417549
0.248,-0.024,-0.00175,0.009643501,-0.000412,0.0028535,1742093412.656318
0.2455,-0.02375,-0.005,0.010452249,1.5250001e-05,0.00238025,1742093412.670732
0.245,-0.01825,-0.00675,0.011245751,6.1000002e-05,0.00238025,1742093412.685281
0.246,-0.0005,-0.006,0.0106355,-0.00024425,0.00340275,1742093412.699761
0.246,0.0045,-0.00425,0.009094249,-0.0007935,0.0054475004,1742093412.7145731
0.242,-0.0015,-0.00425,0.0093995,-0.0009155,0.00517275,1742093412.72867
0.241,-0.00625,-0.005,0.01193225,-0.00115975,0.0027160002,1742093412.744287
0.243,-0.00075,-0.009,0.013412501,-0.00137325,0.001648,1742093412.757653
0.24225,0.0165,-0.00975,0.014358499,-0.00184625,0.00190725,1742093412.772047
0.24025,0.06325,-0.01825,0.014160249,-0.0019685,0.00289925,1742093412.786405
0.237,0.096,-0.02825,0.014587499,-0.00131225,0.003662,1742093412.800765
0.2295,0.157,-0.04325,0.016983,0.0034942501,0.004486,1742093412.815017
0.17075,0.45125,-0.10425,0.01408375,0.00546275,0.0059205,1742093412.8293262
0.12675,0.67075,-0.1545,-0.01127625,0.0031585,0.008667,1742093412.844508
0.0815,0.9385,-0.22425,-0.02757275,-0.00112925,0.00381475,1742093412.858429
0.06875,0.866,-0.20275,-0.04353325,-0.015915,-0.024063,1742093412.873034
0.07575,0.444,-0.0375,-0.047287,-0.02297975,-0.0379485,1742093412.887653
0.10725,0.162,0.07,-0.0618745,-0.025528,-0.0312805,1742093412.902123
0.23725,-0.35875,0.31125,-0.064086996,-0.0227355,-0.017700251,1742093412.916737
0.33625,-0.53875,0.41975,-0.05896,-0.02009575,-0.010376001,1742093412.931458
0.41975,-0.65325,0.47725,-0.044113252,-0.011031999,-0.013321,1742093412.946047
0.4605,-0.742,0.43375,-0.035827752,-0.0049895,-0.01368725,1742093412.96062
0.401,-0.7025,0.3185,-0.015625,0.006012,-0.009445249,1742093412.9754229
0.23125,-0.42275,0.08575,-0.007904,0.0112915,-0.0046845004,1742093412.989677
0.15475,-0.25125,-0.0015,-0.00169375,0.0104674995,0.00396725,1742093413.004726
0.10075,-0.0535,-0.1035,-0.0005645,0.00611875,0.00511175,1742093413.0187058
0.122,-0.0295,-0.10925,0.0060577504,-0.0026245,0.0021515,1742093413.0332658
0.20475,0.01125,-0.053,0.008194,-0.00631725,0.001648,1742093413.047719
0.2495,0.043,-0.009,0.00770575,-0.009155249,0.0023497501,1742093413.0620549
0.28675,0.0655,0.0285,0.00283825,-0.009597749,0.0015565,1742093413.076319
0.3135,0.047,0.0535,0.00137325,-0.007019,-0.000122000005,1742093413.0907352
0.306,0.01925,0.05025,0.00061025,0.00077825,-0.00112925,1742093413.105054
0.2795,-0.02875,0.0415,-0.0001525,0.00390625,-0.00029,1742093413.119593
0.26525,-0.04425,0.03475,-0.00216675,0.00505075,0.0015565,1742093413.1348622
0.244,-0.0575,0.01775,-0.00245675,0.004242,0.00216675,1742093413.148349
0.2415,-0.05725,0.01225,-0.00216675,0.002655,0.00343325,1742093413.162768
0.24375,-0.059,0.01,-0.0016632499,0.00254825,0.004074,1742093413.177185
0.24675,-0.06025,0.01175,-0.00059500005,0.0033264998,0.0043639997,1742093413.191595
0.25275,-0.05925,0.01375,0.00160225,0.00378425,0.0043639997,1742093413.205763
0.25975,-0.0505,0.02625,0.0031889998,0.00314325,0.00460825,1742093413.2200398
0.2605,-0.048,0.029,0.00396725,0.0015105,0.00283825,1742093413.2343569
0.253,-0.0435,0.022,0.0045165,0.00125125,0.00190725,1742093413.2486458
0.24625,-0.04075,0.01825,0.0055085,0.0021972498,0.0013275,1742093413.26419
0.2355,-0.038,0.00825,0.0052337497,0.0029145,0.0018005001,1742093413.277241
0.23325,-0.039,0.00275,0.0048065,0.0033875,0.0026854998,1742093413.2915761
0.23275,-0.03775,-0.002,0.004593,0.0033264998,0.00393675,1742093413.3059561
0.23675,-0.0275,-0.00625,0.0045777503,0.0029145,0.004013,1742093413.320319
0.2395,-0.02275,-0.00675,0.0050965,0.001831,0.00343325,1742093413.334792
0.24175,-0.01825,-0.007,0.00564575,0.00137325,0.002655,1742093413.349134
0.2415,-0.019,-0.007,0.0068512503,0.0011445,0.0009765,1742093413.3640141
0.23725,-0.02475,-0.00775,0.0074920002,0.001236,0.00048825,1742093413.377928
0.23675,-0.0275,-0.00825,0.0081025,0.0012207499,0.00033575002,1742093413.392328
0.23775,-0.0265,-0.0085,0.0089569995,0.00077825,0.0007325,1742093413.406698
0.24225,-0.01425,-0.00575,0.0087585,0.00042725,0.0013427499,1742093413.421046
0.245,-0.00875,-0.0025,0.00794975,0.0,0.00213625,1742093413.4355001
0.2475,-0.0085,0.0035,0.007965,1.5250001e-05,0.0017242499,1742093413.4497302
0.247,-0.0125,0.005,0.008224499,0.00033575002,0.000473,1742093413.464483
0.244,-0.0235,0.0045,0.008209251,0.0005645,0.00048825,1742093413.478305
0.24325,-0.02625,0.003,0.008255,0.00070200005,0.00083925005,1742093413.492544
0.24225,-0.02575,0.00025,0.0089569995,0.00070200005,0.00125125,1742093413.50684
0.2425,-0.01575,-0.001,0.009506251,0.00051875,0.00105275,1742093413.521226
0.24175,-0.01025,-0.001,0.01004025,0.00013725001,0.0007325,1742093413.5356538
0.23975,-0.0055,-0.0015,0.00976575,6.1000002e-05,0.00099175,1742093413.550112
0.24075,-0.006,-0.00075,0.0093995,-0.00016775,0.0013275,1742093413.564648
0.24575,-0.01175,0.0025,0.0097045,-0.00013725001,0.00099175,1742093413.579041
0.247,-0.0155,0.0035,0.01026925,-7.625e-05,0.00045775,1742093413.594444
0.25075,-0.01875,0.0055,0.011169501,0.000122000005,-9.15e-05,1742093413.607761
0.25125,-0.015,0.00525,0.01104725,0.00029,0.00045775,1742093413.6220071
0.25075,-0.00725,0.00475,0.0099945,0.00068675,0.0021972498,1742093413.636557
0.2475,0.00475,0.00325,0.009613,0.0007935,0.0024414998,1742093413.6507761
0.24625,0.00275,0.0035,0.00991825,0.0007935,0.0015105,1742093413.665032
0.24825,-0.0085,0.0105,0.01048275,0.00068675,0.0008545,1742093413.679347
0.2505,-0.0125,0.01325,0.0109709995,0.00067150005,0.000534,1742093413.694446
0.252,-0.00925,0.012,0.010757499,0.001114,0.00190725,1742093413.707938
0.252,-0.00475,0.011,0.01019275,0.00148,0.0032195,1742093413.7222168
0.25325,-0.0025,0.01225,0.01013175,0.0019989999,0.004242,1742093413.736606
0.2555,-0.009,0.01825,0.01136775,0.0021515,0.0032347501,1742093413.7508469
0.25725,-0.0145,0.02,0.014679,0.0026854998,0.001236,1742093413.7652328
0.26375,-0.011,0.0205,0.0153807495,0.0033875,0.0021515,1742093413.7794828
0.2675,0.00275,0.02175,0.0149995005,0.00444025,0.00485225,1742093413.794315
0.27225,0.019,0.02575,0.014297499,0.008072,0.0117035,1742093413.807991
0.27,0.07225,0.02925,0.015335,0.010437001,0.013488751,1742093413.8221178
0.26075,0.13375,0.02325,0.01419075,0.0137635,0.014862,1742093413.836311
0.23175,0.3665,-0.028,0.00903325,0.014587499,0.015808,1742093413.8506188
0.19125,0.55225,-0.07475,-0.008270251,0.014038,0.01345825,1742093413.86495
0.08575,0.909,-0.2135,-0.025115998,0.0128175,0.009323,1742093413.879595
0.01675,0.94825,-0.283,-0.043578997,0.01193225,0.00340275,1742093413.894451
-0.11,0.67825,-0.25975,-0.06311025,0.002533,-0.018737748,1742093413.9087439
-0.0855,0.452,-0.1235,-0.064026,-0.012146,-0.03144825,1742093413.924809
0.01875,0.1795,0.07825,-0.065307505,-0.040634252,-0.038818248,1742093413.937932
0.41125,-0.474,0.569,-0.06416325,-0.041626,-0.03363025,1742093413.9525728
0.5545,-0.742,0.69375,-0.054535,-0.015854,-0.024292,1742093413.9671948
0.4665,-0.98325,0.50175,-0.046752997,0.00283825,-0.017135499,1742093413.981676
0.3465,-0.91625,0.31375,-0.02810675,0.02415475,0.0024414998,1742093413.996156
0.178,-0.53625,0.03175,-0.017868,0.02534475,0.0080567505,1742093414.0105531
0.1255,-0.358,-0.052,0.00019825,0.01776125,0.00764475,1742093414.024992
0.066,-0.1335,-0.1565,0.00671375,0.010589501,0.0055695,1742093414.039368
0.08,-0.0465,-0.169,0.009842,0.0018615,0.004547,1742093414.054721
0.123,0.041,-0.1565,0.0069885002,-0.01454175,0.002533,1742093414.068483
0.242,0.14525,-0.071,0.009613,-0.02053825,-0.000763,1742093414.0846689
0.29475,0.143,-0.01175,0.0139770005,-0.01982125,-0.008727999,1742093414.097575
0.33525,0.06425,0.05325,0.010742251,-0.0134735005,-0.01004025,1742093414.1120179
0.33125,0.00975,0.06175,0.00325,-0.00064075,-0.0064239996,1742093414.126451
0.29375,-0.0675,0.0435,0.00137325,0.00317375,-0.003418,1742093414.1408021
0.2715,-0.085,0.026,0.00042725,0.00691225,0.0012970001,1742093414.155148
0.239,-0.09075,-0.0005,0.00051875,0.008072,0.00213625,1742093414.1695812
0.23,-0.0845,-0.01425,-0.0002595,0.009674,0.00245675,1742093414.1848772
0.225,-0.07125,-0.02575,-0.00109875,0.009887749,0.00428775,1742093414.198561
0.23625,-0.056,-0.0155,0.0016632499,0.0052642496,0.00369275,1742093414.2147279
0.24325,-0.052,-0.00775,0.0064545004,-0.00239575,0.0015105,1742093414.227485
0.2475,-0.04875,-0.00475,0.008133001,-0.00434875,0.00068675,1742093414.241993
0.25,-0.04825,-0.0035,0.00723275,-0.0030975002,0.00070200005,1742093414.256406
0.24875,-0.03425,-0.0065,0.0059967497,-0.001114,0.0016175,1742093414.270835
0.246,-0.024,-0.0085,0.0042267498,0.00163275,0.0047455,1742093414.2852302
0.24275,-0.01025,-0.01275,0.0038757501,0.00254825,0.0054932497,1742093414.2995489
0.2385,-0.01175,-0.01675,0.0041810004,0.0033264998,0.00469975,1742093414.314467
0.2345,-0.0175,-0.0215,0.0060272496,0.0034484998,0.00067150005,1742093414.3286111
0.235,-0.0225,-0.024,0.0068512503,0.00267025,-0.0007325,1742093414.3447099
0.23875,-0.022,-0.021,0.0075835,0.00108325,-0.00109875,1742093414.358028
0.24625,-0.02425,-0.015,0.0074004997,0.00102225,-0.00065625,1742093414.372538
0.24725,-0.027,-0.01375,0.00694275,0.001068,4.575e-05,1742093414.3870678
0.24625,-0.032,-0.0155,0.0069274995,0.000885,0.000229,1742093414.4014301
0.24625,-0.033,-0.01525,0.0072937496,0.00093075,0.00024425,1742093414.4159439
0.24475,-0.03375,-0.01775,0.0075225,0.001114,0.00016775,1742093414.430293
0.2445,-0.03325,-0.01775,0.0078125,0.0012055,0.0002135,1742093414.44467
0.245,-0.03225,-0.0165,0.008407501,0.00090025004,0.0007325,1742093414.45905
0.246,-0.02625,-0.01525,0.0085602505,0.00067150005,0.0011445,1742093414.4733481
0.24575,-0.02325,-0.01475,0.008499251,0.00054925,0.00201425,1742093414.487721
0.24775,-0.02025,-0.0125,0.00842275,0.00061025,0.002243,1742093414.502097
0.248,-0.0215,-0.012,0.008788999,0.0012207499,0.00157175,1742093414.516479
0.2425,-0.02875,-0.0155,0.009201,0.0013580001,0.00112925,1742093414.530977
0.24025,-0.032,-0.0175,0.009643501,0.00125125,0.00108325,1742093414.545343
0.23925,-0.03,-0.0185,0.010101249,0.00090025004,0.0021819999,1742093414.56
0.24025,-0.0125,-0.02,0.009887749,0.0007325,0.0031585,1742093414.57501
0.2425,-0.00225,-0.01975,0.008865249,0.00062550005,0.0045777503,1742093414.5888278
0.2445,0.0055,-0.0205,0.00845325,0.00064075,0.00444025,1742093414.603141
0.24475,0.001,-0.02,0.0085755,0.000473,0.0028229998,1742093414.617436
0.2495,-0.01475,-0.01225,0.009140001,0.00035100002,0.00181575,1742093414.6318269
0.25025,-0.02075,-0.00875,0.010559,0.00036625,0.000473,1742093414.646255
0.24925,-0.02025,-0.00475,0.010727,0.0003815,0.00077825,1742093414.66066
0.25,-0.0175,-0.00275,0.010376001,0.0005645,0.0017395001,1742093414.675116
0.24875,-0.017,-0.003,0.009552,0.00146475,0.0035095,1742093414.689549
0.2385,-0.02275,-0.00925,0.0094604995,0.0018615,0.004013,1742093414.704418
0.23525,-0.02625,-0.0115,0.01020825,0.00190725,0.0047607496,1742093414.718384
0.23325,-0.02225,-0.0145,0.0109709995,0.0015565,0.0051269997,1742093414.7327502
0.2345,-0.0095,-0.01425,0.01193225,0.00080875,0.00611875,1742093414.747115
0.23925,0.01875,-0.01475,0.01187125,0.00071725,0.00637825,1742093414.761347
0.24025,0.027,-0.0165,0.0115967505,0.000824,0.0062865,1742093414.775678
0.24075,0.03325,-0.01975,0.0110015,0.00112925,0.0056,1742093414.789896
0.24075,0.056,-0.026,0.0104065,0.0013427499,0.005844,1742093414.804468
0.239,0.0745,-0.026,0.0072480002,0.002777,0.008788999,1742093414.818455
0.2395,0.109,-0.029,0.0049742498,0.00434875,0.01095575,1742093414.834004
0.238,0.12775,-0.04025,0.00314325,0.008514499,0.013702501,1742093414.8472278
0.195,0.2315,-0.07725,0.00283825,0.010299751,0.013717749,1742093414.86168
0.16225,0.32375,-0.09925,0.000412,0.010604749,0.013564999,1742093414.875929
0.138,0.425,-0.12225,-0.011139,0.0069580004,0.013641249,1742093414.8902102
0.095,0.64425,-0.1745,-0.0206145,0.0042725,0.011016751,1742093414.904625
0.07225,0.723,-0.1895,-0.0456695,-0.0023497501,-3.0500001e-05,1742093414.919304
0.013,0.6705,-0.148,-0.055236753,-0.0068665,-0.0079955,1742093414.9344032
-0.0,0.53275,-0.0935,-0.0641175,-0.019699,-0.02778625,1742093414.948631
0.0995,0.1265,0.114,-0.06596375,-0.0254365,-0.0330505,1742093414.9645288
0.2275,-0.14275,0.2905,-0.057129003,-0.030609248,-0.03622425,1742093414.977709
0.51625,-0.718,0.594,-0.049881,-0.027771,-0.036514252,1742093414.9922738
0.593,-0.92325,0.612,-0.042755,-0.01930225,-0.0318145,1742093415.00684
0.476,-0.89975,0.35075,-0.026764,0.0077972496,-0.0027312501,1742093415.021295
0.35675,-0.705,0.18875,-0.0200805,0.01855475,0.013626001,1742093415.035747
0.2435,-0.48775,0.05375,-0.0048065,0.022521999,0.020904498,1742093415.050148
0.1035,-0.169,-0.127,0.0030975002,0.01879875,0.015274,1742093415.064532
0.0975,-0.063,-0.1605,0.01098625,0.00738525,0.008346501,1742093415.0789871
0.1675,0.121,-0.14575,0.01150525,0.000473,0.0060272496,1742093415.094721
0.21625,0.166,-0.11675,0.009155249,-0.012329,-0.00292975,1742093415.1077309
0.28775,0.112,-0.05025,0.00868225,-0.014038,-0.008148249,1742093415.12219
0.29525,0.0605,-0.015,0.0091705,-0.011245751,-0.01150525,1742093415.136641
0.293,0.01425,0.0115,0.00643925,-0.000946,-0.0080872495,1742093415.151086
0.2785,-0.05,0.02725,0.0040435,0.00352475,-0.00325,1742093415.16544
0.26625,-0.0635,0.02125,0.002365,0.008224499,0.00393675,1742093415.179918
0.24125,-0.06825,-0.00625,0.00245675,0.0075835,0.0042115003,1742093415.194675
0.23,-0.06575,-0.01825,0.0066985004,0.004303,0.00238025,1742093415.208756
0.22,-0.06425,-0.02725,0.0070647504,0.0030975002,0.001236,1742093415.223045
0.2245,-0.06575,-0.028,0.00646975,0.001175,0.000534,1742093415.237411
0.23775,-0.0625,-0.02125,0.00717175,0.0003205,0.00071725,1742093415.251741
0.24475,-0.05825,-0.019,0.00823975,-0.00039675,0.000946,1742093415.266222
0.25125,-0.0515,-0.0185,0.010376001,-0.00099175,0.0014037499,1742093415.2806342
0.25775,-0.03775,-0.02075,0.011078,-0.001007,0.001526,1742093415.29505
0.25875,-0.0325,-0.02075,0.011306751,-0.000534,0.0019225,1742093415.309529
0.25925,-0.02275,-0.01975,0.011123749,9.15e-05,0.0022125002,1742093415.325438
0.25675,-0.01775,-0.0195,0.01086425,0.00148,0.00242625,1742093415.338393
0.2525,-0.011,-0.021,0.010742251,0.0021819999,0.00225825,1742093415.3527648
0.248,-0.00925,-0.02475,0.010803251,0.00289925,0.001709,1742093415.367132
0.243,-0.0055,-0.03,0.010879501,0.00367725,0.00045775,1742093415.381521
0.23675,0.0075,-0.03425,0.010498,0.00358575,0.0003815,1742093415.3958242
0.233,0.00975,-0.036,0.0090637505,0.00352475,0.001175,1742093415.410177
0.2275,0.0005,-0.03575,0.0084379995,0.00354,0.00148,1742093415.425148
0.22575,-0.00375,-0.03675,0.00883475,0.00279225,0.00105275,1742093415.438781
0.22425,0.0,-0.03925,0.009674,0.0021972498,0.0002595,1742093415.454397
0.22325,0.00275,-0.0395,0.010559,0.00160225,-0.00064075,1742093415.467448
0.2225,0.00175,-0.03875,0.011245751,0.0004425,-0.0012970001,1742093415.4820118
0.225,-0.00575,-0.0345,0.011016751,-3.0500001e-05,-0.00064075,1742093415.496543
0.22725,-0.0045,-0.03325,0.010238751,-0.0005645,0.00143425,1742093415.5109172
0.23325,0.01125,-0.0315,0.009933501,-0.000763,0.0021057501,1742093415.5255601
0.23625,0.01925,-0.031,0.009597749,-0.00090025004,0.00175475,1742093415.539722
0.23875,0.01825,-0.02875,0.0097045,-0.0008545,0.00080875,1742093415.5545018
0.238,0.01225,-0.028,0.0099639995,-0.001068,-0.0007935,1742093415.568557
0.24,0.00125,-0.02675,0.0099639995,-0.0012817499,-0.000946,1742093415.584327
0.2425,0.0005,-0.026,0.00991825,-0.0014495,-0.00064075,1742093415.597458
0.243,0.00675,-0.02625,0.009002751,-0.0012665,0.0014037499,1742093415.61182
0.243,0.0235,-0.02675,0.008224499,-0.001114,0.0023497501,1742093415.6262
0.24325,0.023,-0.0265,0.0080567505,-0.001175,0.0014495,1742093415.640645
0.24325,0.00925,-0.02225,0.0088195,-0.0013885,6.1000002e-05,1742093415.6550431
0.24425,0.003,-0.018,0.010162249,-0.0020295,-0.0017242499,1742093415.669536
0.24825,-0.0005,-0.013,0.01033025,-0.0021057501,-0.001587,1742093415.684643
0.249,0.00025,-0.0125,0.01026925,-0.00193775,-0.00090025004,1742093415.6984131
0.24525,-0.0025,-0.0135,0.01019275,-0.0014037499,0.00048825,1742093415.714058
0.244,-0.0045,-0.01425,0.010437001,-0.001236,0.00083925005,1742093415.72733
0.243,-0.00375,-0.01575,0.0118407495,-0.00109875,0.0012055,1742093415.7418408
0.24225,0.01075,-0.0205,0.01272575,-0.00096125,0.0015565,1742093415.756216
0.2425,0.02625,-0.02125,0.01412975,-0.00108325,0.00276175,1742093415.770638
0.25125,0.0615,-0.0135,0.014679,-0.001419,0.0034942501,1742093415.785043
0.2535,0.08475,-0.01,0.01637275,-0.0014495,0.0050202496,1742093415.799307
0.25125,0.17875,-0.02425,0.016159,-0.001648,0.0061645,1742093415.814371
0.26075,0.2645,-0.03975,0.0135955,-0.001587,0.00697325,1742093415.828117
0.26825,0.39275,-0.06425,0.00276175,0.00169375,0.0057525,1742093415.842408
0.24175,0.71175,-0.11925,-0.009781,0.00384525,0.0055085,1742093415.8567271
0.21925,0.81725,-0.1465,-0.04151925,0.0060577504,0.002655,1742093415.87111
0.1165,0.829,-0.16325,-0.051818747,0.0045012496,-0.0069885002,1742093415.885646
0.084,0.709,-0.09225,-0.06584175,-0.0072480002,-0.03530875,1742093415.900325
0.1505,0.1205,0.21725,-0.0699615,-0.0116425,-0.04391475,1742093415.914816
0.21475,-0.278,0.364,-0.068267755,-0.00538625,-0.03550725,1742093415.929429
0.33225,-0.91125,0.49525,-0.06513975,0.0018005001,-0.02127075,1742093415.944878
0.3345,-1.0,0.4455,-0.059997503,0.00930775,-0.0071409997,1742093415.958407
0.30375,-0.997,0.3375,-0.037506,0.016570998,0.0079955,1742093415.972754
0.20925,-0.66875,0.09675,-0.02354425,0.01620475,0.009582501,1742093415.987138
0.16,-0.463,0.0125,-0.0027160002,0.0122375,0.005844,1742093416.0015628
0.08125,-0.1445,-0.10625,0.0028535,0.00791925,0.0034790002,1742093416.0159822
0.08025,-0.041,-0.1445,0.00891125,-0.006546,0.0009765,1742093416.030445
0.1675,0.08225,-0.14175,0.008377,-0.014282251,-0.0013275,1742093416.044909
0.22625,0.108,-0.12025,0.00747675,-0.02374275,-0.0078125,1742093416.0594208
0.315,0.084,-0.01625,0.009781,-0.0219115,-0.01013175,1742093416.075712
0.3315,0.048,0.02225,0.008636501,-0.0167695,-0.01121525,1742093416.0882711
0.33075,0.01,0.039,0.00109875,-0.0048217503,-0.00880425,1742093416.102716
0.30675,-0.05525,0.03025,-0.00112925,-0.00086975005,-0.0064239996,1742093416.117408
0.291,-0.07825,0.01725,-0.00149525,0.00367725,-0.00231925,1742093416.131822
0.263,-0.0955,0.00225,-0.00093075,0.005066,-0.00065625,1742093416.146291
0.25125,-0.0935,-0.00175,-0.00061025,0.0075682504,0.00131225,1742093416.160707
0.2305,-0.07975,-0.022,-0.0013885,0.0086975,0.0020752498,1742093416.1752472
0.22775,-0.07325,-0.0255,0.00086975005,0.0062255003,0.002884,1742093416.189624
0.23675,-0.07225,-0.01475,0.00334175,0.00279225,0.00276175,1742093416.204618
0.23925,-0.07225,-0.01375,0.0056304997,-0.000122000005,0.00225825,1742093416.218542
0.24,-0.07075,-0.01825,0.010314999,-0.0045625,0.0009155,1742093416.2329311
0.245,-0.061,-0.017,0.0114744995,-0.0050355,0.000534,1742093416.247456
0.2465,-0.0515,-0.01675,0.009582501,-0.0021819999,0.00093075,1742093416.261908
0.24575,-0.035,-0.02075,0.00842275,-0.00064075,0.00181575,1742093416.276286
0.246,-0.034,-0.0225,0.0072175004,0.00146475,0.0037385002,1742093416.290841
0.245,-0.0365,-0.02875,0.0073242504,0.0021972498,0.00358575,1742093416.305322
0.24325,-0.03625,-0.03275,0.007782,0.0024414998,0.00270075,1742093416.319711
0.24775,-0.043,-0.03025,0.0086975,0.002121,0.00154125,1742093416.335061
0.2515,-0.0495,-0.024,0.00897225,0.001953,0.00143425,1742093416.348512
0.2525,-0.05425,-0.019,0.00968925,0.0016785001,0.0017242499,1742093416.3646069
0.245,-0.05075,-0.017,0.01004025,0.00149525,0.00193775,1742093416.3773172
0.241,-0.0465,-0.019,0.010742251,0.001175,0.0020295,1742093416.391901
0.2365,-0.0415,-0.02275,0.01133725,0.00143425,0.0019225,1742093416.406315
0.23425,-0.03725,-0.02475,0.012024,0.00184625,0.0020599999,1742093416.420886
0.2345,-0.035,-0.024,0.012252751,0.001648,0.0023497501,1742093416.435329
0.2355,-0.03625,-0.0215,0.012741,0.0012817499,0.00238025,1742093416.449721
0.2355,-0.03675,-0.01975,0.014145001,0.000534,0.0018615,1742093416.4646962
0.232,-0.02875,-0.023,0.01440425,0.00029,0.00213625,1742093416.478539
0.23325,-0.021,-0.024,0.0138855,6.1000002e-05,0.0037079998,1742093416.4943528
0.2355,-0.0065,-0.02775,0.01345825,0.00016775,0.00396725,1742093416.507214
0.2335,-0.00825,-0.03225,0.0129700005,9.15e-05,0.0034637498,1742093416.52163
0.233,-0.023,-0.0325,0.01345825,-0.0003205,0.00302125,1742093416.536134
0.23575,-0.027,-0.028,0.015854,-0.0013580001,0.0012665,1742093416.5506282
0.23975,-0.0175,-0.02175,0.01675425,-0.00157175,0.00061025,1742093416.5651772
0.241,-0.0065,-0.021,0.01681525,-0.00160225,0.000763,1742093416.579701
0.24225,0.00375,-0.02075,0.014572251,-0.001526,0.00325,1742093416.5944068
0.2445,0.01125,-0.01975,0.013321,-0.0013427499,0.004486,1742093416.608543
0.2425,0.0075,-0.01875,0.0129395,-0.0008545,0.00413525,1742093416.622796
0.236,-0.00625,-0.01625,0.013778751,-0.00096125,0.0030365,1742093416.637307
0.236,-0.0105,-0.014,0.0151825,-0.001587,0.00231925,1742093416.6520388
0.2415,-0.0,-0.00525,0.015213001,-0.0017242499,0.003006,1742093416.666534
0.2445,0.0095,-0.0025,0.014572251,-0.00163275,0.004303,1742093416.681015
0.2415,0.0225,-0.007,0.01463325,-0.00146475,0.00428775,1742093416.695425
0.2395,0.0275,-0.01,0.01504525,-0.0013275,0.004074,1742093416.709815
0.24,0.036,-0.0105,0.0157775,-0.001419,0.0043335,1742093416.72461
0.24875,0.06725,-0.0065,0.0157775,-0.0014037499,0.00494375,1742093416.738509
0.25275,0.086,-0.00475,0.01513675,-0.000183,0.0062407497,1742093416.7543108
0.2415,0.147,-0.017,0.01368725,0.00070200005,0.0070342496,1742093416.767305
0.239,0.18675,-0.02725,0.00744625,0.00228875,0.008865249,1742093416.7816331
0.22425,0.28275,-0.07375,0.00411975,0.00320425,0.008590749,1742093416.795999
0.20275,0.36825,-0.111,-0.0001525,0.0039825,0.00720225,1742093416.8102982
0.177,0.484,-0.15,-0.018188499,0.0023497501,0.0057677496,1742093416.825214
0.13525,0.71375,-0.2175,-0.032394502,0.0001525,0.0045625,1742093416.839102
0.12725,0.75375,-0.21425,-0.054138247,-0.0064239996,-0.008712751,1742093416.854392
0.1245,0.59775,-0.08525,-0.058898997,-0.0113525,-0.02111825,1742093416.8681989
0.1525,0.40625,0.02075,-0.07144175,-0.0174865,-0.033935502,1742093416.8827038
0.27075,-0.13,0.30575,-0.07633975,-0.015976,-0.029876752,1742093416.8974102
0.3465,-0.4075,0.45275,-0.0722045,-0.004776,-0.01510625,1742093416.9119759
0.392,-0.78125,0.52225,-0.06805425,0.0029907501,-0.0077972496,1742093416.926427
0.345,-0.866,0.4375,-0.0605315,0.01019275,-0.0021057501,1742093416.94091
0.2885,-0.86875,0.32575,-0.032318,0.014648501,0.002655,1742093416.955317
0.19675,-0.611,0.11025,-0.018982,0.014282251,0.006668,1742093416.969976
0.17175,-0.4225,0.03675,-0.0010375,0.009643501,0.0167695,1742093416.984628
0.15025,-0.1025,-0.079,0.00614925,0.00541675,0.016739,1742093416.998719
0.15525,0.0165,-0.115,0.01316825,-0.003128,0.008499251,1742093417.014685
0.211,0.16825,-0.12175,0.011123749,-0.0069274995,0.00267025,1742093417.027623
0.24825,0.17025,-0.10275,0.01228325,-0.011612001,-0.00982675,1742093417.042455
0.29275,0.08525,-0.044,0.01301575,-0.009613,-0.013046251,1742093417.056889
0.302,0.04175,-0.0155,0.01115425,-0.00561525,-0.012680001,1742093417.071349
0.30125,0.00625,0.0035,0.0061339997,0.00292975,-0.00767525,1742093417.085692
0.27,-0.03975,0.00075,0.0047607496,0.0052337497,-0.0057372497,1742093417.100312
0.25325,-0.05375,-0.0115,0.00384525,0.00587475,-0.0027160002,1742093417.1148102
0.243,-0.064,-0.02025,0.0042572496,0.00535575,-0.0019685,1742093417.129301
0.2495,-0.061,-0.016,0.0020295,0.008209251,-0.00019825,1742093417.144712
0.2595,-0.06525,-0.01475,0.0027312501,0.00668325,-0.00061025,1742093417.158286
0.2565,-0.059,-0.01775,0.00738525,-0.00013725001,-0.00154125,1742093417.172833
0.2495,-0.0435,-0.02425,0.00880425,-0.0024872501,-0.00042725,1742093417.187482
0.247,-0.03875,-0.024,0.008727999,-0.0030975002,0.00080875,1742093417.201875
0.249,-0.01825,-0.02725,0.00579825,-0.00042725,0.00131225,1742093417.216398
0.25,-0.01,-0.027,0.0048674997,0.00086975005,0.001587,1742093417.230782
0.25,-0.006,-0.02575,0.0032655,0.002472,0.0030365,1742093417.245198
0.24875,-0.00825,-0.028,0.00263975,0.00283825,0.0030975002,1742093417.2595992
0.24325,-0.01325,-0.031,0.00270075,0.0029449998,0.00148,1742093417.275425
0.23575,-0.0265,-0.0345,0.0028074998,0.0024872501,0.00077825,1742093417.28828
0.23575,-0.03225,-0.034,0.003006,0.00181575,0.0008545,1742093417.302721
0.23275,-0.0355,-0.035,0.0032347501,0.001526,0.001114,1742093417.317079
0.2365,-0.03025,-0.03275,0.00354,0.00112925,0.00112925,1742093417.331507
0.24025,-0.0245,-0.03,0.0042572496,0.000946,0.0002135,1742093417.345922
0.23375,-0.02725,-0.03275,0.00440975,0.001007,-0.0003205,1742093417.360395
0.23275,-0.036,-0.03175,0.0050202496,0.00027475,-0.00090025004,1742093417.375733
0.2385,-0.047,-0.02325,0.00579825,-0.000229,-0.0011445,1742093417.389599
0.23875,-0.046,-0.023,0.00668325,-0.00093075,-0.00096125,1742093417.404725
0.24175,-0.0415,-0.02575,0.00662225,-0.00102225,-0.000229,1742093417.418685
0.2415,-0.03825,-0.027,0.007187,-0.00077825,0.0001525,1742093417.43457
0.2385,-0.03625,-0.0265,0.0077972496,-0.00064075,-0.00042725,1742093417.4476988
0.236,-0.04,-0.02675,0.00839225,-0.0005645,-0.00102225,1742093417.462359
0.23575,-0.04525,-0.02825,0.009002751,-0.00070200005,-0.0008545,1742093417.4769511
0.23825,-0.04,-0.029,0.0090637505,-0.000885,9.15e-05,1742093417.491412
0.2405,-0.0305,-0.03,0.008636501,-0.00099175,0.002121,1742093417.505885
0.24325,-0.01975,-0.0325,0.00845325,-0.001114,0.0023497501,1742093417.5203872
0.243,-0.0235,-0.0325,0.009384249,-0.0014495,0.00086975005,1742093417.5348768
0.2415,-0.035,-0.02625,0.010452249,-0.00149525,-0.0001525,1742093417.549495
0.2385,-0.0355,-0.0235,0.0119630005,-0.0013427499,-0.0002595,1742093417.564529
0.236,-0.02675,-0.0225,0.012054499,-0.0013580001,0.000824,1742093417.578402
0.237,-0.0195,-0.023,0.011673001,-0.00143425,0.0030365,1742093417.59428
0.239,-0.01225,-0.0245,0.011673001,-0.00146475,0.0034484998,1742093417.60741
0.23975,-0.0145,-0.0225,0.01210025,-0.00157175,0.003128,1742093417.6218932
0.241,-0.018,-0.0175,0.014038,-0.00177,0.0014495,1742093417.63636
0.2445,-0.01475,-0.00875,0.014785751,-0.00175475,0.0012207499,1742093417.650906
0.246,-0.0055,-0.00725,0.014663749,-0.0013275,0.00305175,1742093417.665368
0.24525,0.01175,-0.0105,0.01419075,-0.0010375,0.0043944996,1742093417.67982
0.24325,0.018,-0.014,0.014343251,-0.0011445,0.0052795,1742093417.6941912
0.239,0.02625,-0.01525,0.0154115,-0.00160225,0.0047150003,1742093417.7086341
0.23725,0.0265,-0.014,0.017044,-0.00213625,0.004486,1742093417.7229838
0.24575,0.02525,-0.01175,0.021087749,-0.0033875,0.00738525,1742093417.737375
0.2535,0.0315,-0.01075,0.02256775,-0.00331125,0.009597749,1742093417.751829
0.257,0.0495,-0.0115,0.022186251,-0.000534,0.013382,1742093417.7663019
0.23475,0.14025,-0.022,0.0195465,0.001419,0.01481625,1742093417.780621
0.22675,0.19175,-0.02725,0.01098625,0.00402825,0.01554875,1742093417.794923
0.2105,0.286,-0.05575,0.0069885002,0.0044250004,0.013717749,1742093417.809194
0.19975,0.356,-0.0805,-0.0058287503,0.0020905002,0.010528499,1742093417.825105
0.167,0.507,-0.1295,-0.015457249,0.00065625,0.01065075,1742093417.838096
0.13825,0.581,-0.147,-0.0255585,-3.0500001e-05,0.009369001,1742093417.8526442
0.10975,0.6425,-0.1535,-0.041366503,-0.00416575,-0.0062255003,1742093417.867379
0.08825,0.6105,-0.0795,-0.04776,-0.00852975,-0.02041625,1742093417.881931
0.10225,0.497,-0.00675,-0.06295775,-0.015854,-0.03854375,1742093417.8965209
0.187,0.08725,0.17525,-0.070266746,-0.0166015,-0.03819275,1742093417.9110148
0.2365,-0.18875,0.2505,-0.07048025,-0.011612001,-0.03359975,1742093417.9256058
0.32525,-0.672,0.33925,-0.06304925,-0.008606,-0.0301055,1742093417.9402711
0.37875,-0.76775,0.3925,-0.043686002,-0.0078125,-0.017578252,1742093417.954874
0.426,-0.7655,0.403,-0.0332185,-0.0030975002,-0.01156625,1742093417.969512
0.35575,-0.71975,0.284,-0.01640325,0.014709501,0.0054475004,1742093417.984521
0.15575,-0.46975,-0.00125,-0.009201,0.019195499,0.0141755,1742093417.998365
0.09525,-0.288,-0.0895,-0.00067150005,0.017151,0.018097,1742093418.014476
0.078,-0.1155,-0.134,0.011383001,0.0023497501,0.01272575,1742093418.02729
0.15225,0.105,-0.13625,0.01272575,-0.0047607496,0.0078125,1742093418.041725
0.206,0.148,-0.11375,0.01446525,-0.0116425,-0.001007,1742093418.056164
0.2765,0.11625,-0.0515,0.015533499,-0.011245751,-0.0042572496,1742093418.070693
0.2945,0.078,-0.02175,0.01142875,-0.0057372497,-0.0060272496,1742093418.085186
0.301,0.014,0.0155,0.00839225,-0.002121,-0.0052337497,1742093418.099585
0.292,-0.01275,0.02075,0.0047455,0.0034637498,-0.00181575,1742093418.1143942
0.27075,-0.04875,0.01725,0.003769,0.00531,0.0002595,1742093418.128391
0.258,-0.05125,0.0115,0.00331125,0.006607,0.001648,1742093418.142721
0.24675,-0.0445,0.00425,0.00027475,0.009933501,0.00279225,1742093418.157071
0.232,-0.023,-0.01825,-0.000122000005,0.009582501,0.003006,1742093418.171571
0.21875,-0.02,-0.03175,0.0039215,0.00292975,0.000885,1742093418.1860092
0.211,-0.028,-0.04275,0.0051574996,-0.0002135,0.00064075,1742093418.2005131
0.218,-0.03275,-0.03675,0.00579825,-0.00331125,0.00059500005,1742093418.214886
0.244,-0.03025,-0.014,0.00469975,-0.0028535,0.000412,1742093418.229409
0.253,-0.02925,-0.00625,0.0034942501,-0.0017242499,0.00030525,1742093418.244721
0.256,-0.029,-0.00225,0.0023345,0.00036625,0.00083925005,1742093418.2582889
0.25775,-0.0255,-0.00275,0.0021057501,0.0010375,0.0011445,1742093418.272704
0.25725,-0.02525,-0.0065,0.00198375,0.0017242499,0.00143425,1742093418.287092
0.24525,-0.03275,-0.01375,0.0020599999,0.0017852499,0.001175,1742093418.3015308
0.24275,-0.04375,-0.013,0.0026854998,0.0012207499,0.0002595,1742093418.315797
0.23825,-0.06725,-0.01575,0.00352475,0.00105275,-3.0500001e-05,1742093418.3302798
0.23275,-0.06925,-0.02,0.00531,-3.0500001e-05,0.0003815,1742093418.344821
0.23725,-0.05475,-0.01675,0.00579825,-0.0009155,0.000946,1742093418.3594618
0.241,-0.0475,-0.01275,0.0062712496,-0.0013580001,0.0013885,1742093418.375351
0.23975,-0.0455,-0.014,0.0076905,-0.00102225,0.00125125,1742093418.388362
0.2395,-0.04925,-0.01525,0.008407501,-0.00099175,0.000885,1742093418.404293
0.2415,-0.05,-0.01425,0.009734999,-0.00137325,0.00071725,1742093418.417382
0.244,-0.04525,-0.01775,0.010299751,-0.00157175,0.001175,1742093418.4318788
0.247,-0.03525,-0.0185,0.011016751,-0.001648,0.00254825,1742093418.446412
0.24875,-0.0135,-0.0185,0.011169501,-0.00149525,0.0026854998,1742093418.461022
0.2485,-0.01125,-0.0185,0.01148975,-0.001114,0.0013427499,1742093418.475532
0.2485,-0.022,-0.017,0.01193225,-0.0008545,0.00039675,1742093418.489984
0.2485,-0.023,-0.01775,0.012496999,-0.00057975,-0.00030525,1742093418.50459
0.24925,-0.017,-0.0195,0.012756251,-0.00042725,1.5250001e-05,1742093418.519252
0.25125,0.0015,-0.0195,0.012039251,-0.000412,0.0009765,1742093418.534483
0.25175,0.00525,-0.01825,0.01020825,-0.000122000005,0.002472,1742093418.548091
0.24775,-0.00075,-0.01925,0.009872501,6.1000002e-05,0.0022735,1742093418.56252
0.24425,-0.00725,-0.019,0.010681249,0.000229,0.000824,1742093418.576909
0.2425,-0.01825,-0.01425,0.011398249,0.00016775,0.00033575002,1742093418.59132
0.24375,-0.01675,-0.0135,0.0123595,-0.000412,0.0004425,1742093418.605806
0.24725,0.00175,-0.013,0.01216125,-0.00077825,0.0009765,1742093418.620179
0.24975,0.006,-0.0105,0.011612001,-0.0009765,0.0015105,1742093418.634627
0.25025,0.00425,-0.00875,0.011031999,-0.00045775,0.00146475,1742093418.6490738
0.24625,-0.00475,-0.00675,0.011321999,0.0001525,0.00099175,1742093418.6645188
0.2435,-0.0065,-0.008,0.011917,0.00096125,0.000534,1742093418.6779509
0.2445,-0.00375,-0.009,0.011550999,0.00099175,0.00131225,1742093418.6922822
0.2475,0.00025,-0.0085,0.0101165,0.001236,0.0038299998,1742093418.7066948
0.24825,0.00325,-0.01075,0.0100555,0.0014037499,0.0041044997,1742093418.7209852
0.246,0.0005,-0.0125,0.0114135,0.00148,0.002533,1742093418.735268
0.24575,-0.00425,-0.013,0.012207,0.0012207499,0.00193775,1742093418.749776
0.2495,-0.0005,-0.01175,0.012741,0.00090025004,0.0020295,1742093418.764524
0.25375,0.0075,-0.01,0.01278675,0.00096125,0.00340275,1742093418.778561
0.25625,0.022,-0.00925,0.0123595,0.00149525,0.004074,1742093418.7943249
0.255,0.023,-0.011,0.01156625,0.003128,0.0052947504,1742093418.807185
0.2525,0.02275,-0.01475,0.011734,0.0039825,0.00611875,1742093418.8215628
0.25125,0.02675,-0.01525,0.0129395,0.00546275,0.00852975,1742093418.83601
0.24925,0.0505,-0.00925,0.0138855,0.006012,0.010147001,1742093418.8501859
0.248,0.07225,-0.00225,0.0151215,0.0065155,0.012054499,1742093418.864606
0.247,0.1045,0.0025,0.01722725,0.00791925,0.01579275,1742093418.8789241
0.228,0.25575,-0.00625,0.014938249,0.00845325,0.01579275,1742093418.894732
0.222,0.3745,-0.03075,-0.000412,0.0085602505,0.012771499,1742093418.9076102
0.11625,0.667,-0.16325,-0.01104725,0.00991825,0.011031999,1742093418.922081
0.011,0.82975,-0.25375,-0.04226675,0.008209251,0.0064239996,1742093418.93648
-0.13025,0.92625,-0.311,-0.0576325,0.0016175,0.0018005001,1742093418.950915
-0.1275,0.80075,-0.22175,-0.06634525,-0.009674,-0.009811499,1742093418.965604
-0.05475,0.568,-0.05425,-0.06707775,-0.0375365,-0.04574575,1742093418.980238
0.254,-0.1375,0.379,-0.065857,-0.043289248,-0.05343625,1742093418.994763
0.4335,-0.511,0.58525,-0.0656585,-0.0302125,-0.04087825,1742093419.0093691
0.571,-0.982,0.67225,-0.063568,-0.01564025,-0.02879325,1742093419.0240362
0.50525,-1.0,0.54575,-0.04966725,0.015335,-0.0005645,1742093419.038403
0.28525,-0.7685,0.18425,-0.0384675,0.02200325,0.010024999,1742093419.0549
0.17575,-0.54175,0.017,-0.018188499,0.02177425,0.01705925,1742093419.067209
0.06375,-0.2095,-0.16075,-0.0097045,0.01628125,0.01510625,1742093419.081832
0.07225,-0.10325,-0.16825,0.0060882503,-0.0019989999,0.004837,1742093419.096351
0.174,0.04525,-0.10325,0.00953675,-0.009292499,0.001175,1742093419.110771
0.22525,0.084,-0.07225,0.008606,-0.0139770005,-0.0012970001,1742093419.125324
0.26025,0.09675,-0.05175,0.00723275,-0.01351925,-0.0055695,1742093419.1396968
0.28525,0.06725,-0.011,0.00811775,-0.00947575,-0.0065612504,1742093419.1545641
0.288,0.0405,0.00525,0.0052947504,-0.0023497501,-0.00546275,1742093419.168561
0.2815,-0.01275,0.01625,0.00334175,1.5250001e-05,-0.0045012496,1742093419.1843789
0.27125,-0.0325,0.0115,0.0013427499,0.00320425,-0.0022277501,1742093419.197377
0.24125,-0.0405,-0.01075,0.0002135,0.0046845004,-0.00070200005,1742093419.211872
0.231,-0.0425,-0.01925,-0.00143425,0.0061645,0.001114,1742093419.226488
0.23325,-0.04875,-0.03775,-0.0039215,0.008941749,0.00276175,1742093419.241005
0.24225,-0.04525,-0.02675,-0.0024872501,0.00744625,0.00305175,1742093419.25538
0.25375,-0.04325,-0.0195,0.0027312501,0.000229,0.0020295,1742093419.269769
0.26575,-0.043,-0.00675,0.004776,-0.00193775,0.0009155,1742093419.2848058
0.26425,-0.04425,-0.0035,0.0065612504,-0.0021819999,-0.00019825,1742093419.298748
0.25175,-0.03825,-0.00425,0.00494375,4.575e-05,0.00051875,1742093419.3143559
0.24325,-0.02925,-0.0125,0.001648,0.00411975,0.0037079998,1742093419.3274891
0.2335,-0.02025,-0.02625,0.0011445,0.005005,0.00494375,1742093419.341915
0.2295,-0.01825,-0.03075,0.0014495,0.00511175,0.0049590003,1742093419.3563251
0.228,-0.01625,-0.033,0.0028229998,0.0035095,0.002472,1742093419.3707771
0.23175,-0.01575,-0.032,0.0034637498,0.00238025,0.0013580001,1742093419.385228
0.2345,-0.0185,-0.02975,0.00440975,0.00070200005,-7.625e-05,1742093419.399688
0.23925,-0.02925,-0.02525,0.0047302498,0.00016775,-0.00036625,1742093419.4147148
0.24225,-0.03375,-0.02325,0.00555425,-0.00029,-0.00062550005,1742093419.428881
0.24525,-0.0385,-0.0205,0.0061950004,-0.00029,-0.0011445,1742093419.444533
0.2435,-0.039,-0.02225,0.0068665,-0.000122000005,-0.0016785001,1742093419.457941
0.24475,-0.0365,-0.02375,0.0066374997,-1.5250001e-05,-0.00099175,1742093419.472484
0.24675,-0.0315,-0.02275,0.00621025,0.0002135,9.15e-05,1742093419.486775
0.2495,-0.02775,-0.02125,0.0056,0.000824,0.001709,1742093419.50118
0.253,-0.03,-0.02,0.006012,0.00108325,0.0012665,1742093419.5156102
0.252,-0.034,-0.02125,0.0079345,0.001007,-0.00051875,1742093419.530171
0.249,-0.04,-0.02025,0.00883475,0.00083925005,-0.00083925005,1742093419.544576
0.24725,-0.03925,-0.01925,0.009796251,0.00059500005,-0.00048825,1742093419.559086
0.24325,-0.03275,-0.02075,0.009719751,0.0005645,0.0002135,1742093419.575167
0.241,-0.02775,-0.023,0.00924675,0.00068675,0.00190725,1742093419.58787
0.23775,-0.02325,-0.029,0.009369001,0.00090025004,0.0021057501,1742093419.602412
0.2355,-0.026,-0.03125,0.009872501,0.001007,0.0017852499,1742093419.616781
0.23425,-0.02975,-0.031,0.01148975,0.00035100002,0.0008545,1742093419.6312041
0.23675,-0.02825,-0.02275,0.012207,-0.000183,0.00071725,1742093419.645616
0.24125,-0.0225,-0.01775,0.012405501,-0.000534,0.001526,1742093419.660049
0.247,-0.00775,-0.01475,0.01193225,-0.00024425,0.0021819999,1742093419.674859
0.246,-0.003,-0.017,0.010604749,0.00065625,0.00296025,1742093419.689024
0.2385,-0.00425,-0.02575,0.0103455,0.00090025004,0.0027312501,1742093419.704267
0.23625,-0.00825,-0.026,0.01127625,0.0003815,0.0015105,1742093419.7177558
0.24175,-0.00975,-0.0165,0.012207,-0.0001525,0.00070200005,1742093419.7323468
0.2455,-0.00525,-0.0115,0.0129700005,-0.00054925,0.0,1742093419.7467961
0.2495,-0.00275,-0.00775,0.012695249,-0.00074775,0.0001525,1742093419.761276
0.25325,-0.00875,-0.00775,0.012054499,-0.0005035,0.000824,1742093419.7757702
0.251,-0.01425,-0.0085,0.0119630005,0.00036625,0.00137325,1742093419.790155
0.24375,-0.0195,-0.0095,0.0127105,0.00064075,0.0010375,1742093419.804574
0.24075,-0.0145,-0.0105,0.0138855,0.00074775,0.00108325,1742093419.818968
0.24175,-0.002,-0.012,0.01380925,0.00071725,0.00198375,1742093419.8346171
0.2435,0.00225,-0.01325,0.013641249,0.00065625,0.003006,1742093419.847599
0.24625,0.00625,-0.014,0.0139465,0.0007325,0.0042572496,1742093419.861881
0.25,0.0225,-0.01775,0.01469425,0.00093075,0.0045012496,1742093419.876204
0.24875,0.0435,-0.0215,0.015564,0.0012665,0.00561525,1742093419.8905401
0.24525,0.1095,-0.022,0.014618,0.0012970001,0.0068969997,1742093419.904928
0.24125,0.149,-0.02275,0.00976575,0.0022735,0.009734999,1742093419.9192152
0.2275,0.25,-0.0525,0.0061035,0.0032195,0.011260999,1742093419.9341152
0.2225,0.334,-0.089,0.00225825,0.00402825,0.012375,1742093419.947911
0.21875,0.4525,-0.134,-0.0042115003,0.00328075,0.00842275,1742093419.962236
0.19325,0.725,-0.2125,-0.008667,0.000412,0.0017852499,1742093419.9766452
0.15825,0.80875,-0.217,-0.027526751,-0.005844,-0.013351499,1742093419.991193
0.11275,0.73625,-0.11625,-0.04135125,-0.008484,-0.0160065,1742093420.00574
0.1405,0.58775,-0.009,-0.064621,-0.01077275,-0.01820375,1742093420.020511
0.19325,0.10975,0.2055,-0.07011425,-0.009094249,-0.0229035,1742093420.0350668
0.21525,-0.221,0.31725,-0.06546025,-0.0045012496,-0.0328065,1742093420.049769
0.31075,-0.87675,0.4795,-0.059524503,-0.001648,-0.030548,1742093420.064727
0.3495,-1.0,0.47475,-0.0433045,0.0067902496,-0.010024999,1742093420.078662
0.33175,-0.90475,0.31875,-0.03096,0.01133725,-0.00175475,1742093420.0940979
0.26325,-0.7125,0.196,-0.01896675,0.01564025,0.00331125,1742093420.1075132
0.18425,-0.50775,0.0685,-0.003891,0.01965325,0.013549751,1742093420.121968
0.0815,-0.1305,-0.1325,0.00035100002,0.016540501,0.017135499,1742093420.1362271
0.08825,0.0165,-0.17975,0.0072785,-3.0500001e-05,0.0119630005,1742093420.1507032
0.1865,0.18225,-0.1735,0.00801075,-0.009369001,0.00393675,1742093420.1650538
0.23925,0.19925,-0.13825,0.009903,-0.01782225,-0.00897225,1742093420.179487
0.302,0.12375,-0.0335,0.008651749,-0.015396,-0.011078,1742093420.194422
0.31525,0.061,0.009,0.0046234997,-0.010452249,-0.0112305,1742093420.2082958
0.31275,0.00175,0.032,-0.0013427499,-0.0002595,-0.00889575,1742093420.2227998
0.2815,-0.077,0.02475,-0.00242625,0.00283825,-0.0067445002,1742093420.23739
0.26675,-0.093,0.01175,-0.00263975,0.0055237496,-0.0017852499,1742093420.251982
0.2415,-0.08975,-0.012,-0.0021972498,0.0061645,-0.000229,1742093420.2664819
0.23175,-0.081,-0.0245,-0.00193775,0.00764475,0.000885,1742093420.2810612
0.2295,-0.0725,-0.0355,-0.0014037499,0.0080567505,0.00083925005,1742093420.2956002
0.232,-0.0735,-0.0345,0.0016632499,0.0033570002,-0.00035100002,1742093420.310094
0.236,-0.087,-0.02825,0.0036162501,0.00065625,-0.0003815,1742093420.324714
0.2405,-0.09025,-0.02625,0.0052947504,-0.0012970001,0.000412,1742093420.339106
0.24775,-0.06325,-0.032,0.00741575,-0.0032655,0.0044250004,1742093420.354534
0.25125,-0.04125,-0.03375,0.008316,-0.003662,0.0056609996,1742093420.367981
0.2545,-0.02575,-0.032,0.008377,-0.0037079998,0.00469975,1742093420.382375
0.24875,-0.01925,-0.03425,0.00665275,-0.00251775,0.0034484998,1742093420.396769
0.2415,-0.026,-0.03325,0.00672925,-0.0002595,0.001175,1742093420.411293
0.23525,-0.05275,-0.02425,0.0073547503,0.0003205,0.000946,1742093420.425704
0.2355,-0.061,-0.02425,0.0080567505,0.000824,0.0015105,1742093420.4400551
0.2425,-0.04475,-0.03325,0.0079955,0.0013275,0.0023497501,1742093420.45457
0.247,-0.026,-0.03275,0.0076295,0.00213625,0.00354,1742093420.468792
0.2505,-0.00975,-0.03375,0.00723275,0.002121,0.00444025,1742093420.484844
0.25075,-0.0065,-0.03425,0.0075072497,0.00187675,0.0035095,1742093420.497581
0.247,-0.0155,-0.03375,0.00862125,0.00177,0.000229,1742093420.511948
0.23975,-0.031,-0.02975,0.009430001,0.00143425,-0.000885,1742093420.52639
0.23825,-0.03575,-0.02875,0.010757499,0.00027475,-0.0012207499,1742093420.540815
0.2405,-0.033,-0.028,0.01092525,-0.00010675,-0.00062550005,1742093420.555379
0.241,-0.024,-0.02975,0.00997925,-0.0001525,0.0012665,1742093420.569859
0.2385,-0.0095,-0.03475,0.00918575,6.1000002e-05,0.0020752498,1742093420.5842829
0.23625,-0.00925,-0.036,0.008667,0.00029,0.00239575,1742093420.5986729
0.23525,-0.013,-0.0365,0.00924675,0.0002595,0.001419,1742093420.6145768
0.23425,-0.025,-0.0355,0.01013175,0.000122000005,0.00071725,1742093420.6276019
0.235,-0.028,-0.0335,0.011398249,-0.00051875,0.00064075,1742093420.64208
0.2415,-0.02125,-0.02975,0.01133725,-0.000824,0.00146475,1742093420.656584
0.24425,-0.013,-0.0285,0.0103455,-0.0004425,0.0034637498,1742093420.6710532
0.2415,0.00125,-0.0325,0.0100555,-9.15e-05,0.003662,1742093420.685503
0.239,0.001,-0.0345,0.01019275,7.625e-05,0.0030669998,1742093420.699795
0.23675,-0.01325,-0.03025,0.011673001,-0.0002135,0.00061025,1742093420.714268
0.23675,-0.02075,-0.0275,0.01248175,-0.0005035,-0.00010675,1742093420.728857
0.2375,-0.02275,-0.02525,0.013137749,-0.00070200005,0.0007325,1742093420.744579
0.24275,-0.001,-0.0235,0.012680001,-0.000473,0.0021819999,1742093420.7578082
0.246,0.0155,-0.02375,0.010559,0.00029,0.0046539996,1742093420.772115
0.2465,0.0245,-0.0275,0.009842,0.00059500005,0.0044707498,1742093420.786386
0.24275,0.0175,-0.0295,0.01033025,0.00070200005,0.00198375,1742093420.800629
0.23725,0.00025,-0.03075,0.01115425,0.000412,0.00099175,1742093420.814949
0.2395,-0.0025,-0.02925,0.011886501,0.0,0.0008545,1742093420.829271
0.2435,0.00175,-0.0275,0.0122985,-0.00033575002,0.00251775,1742093420.844509
0.251,0.01575,-0.0225,0.0122375,-0.0001525,0.003418,1742093420.858166
0.254,0.01925,-0.02125,0.0128632495,0.0005645,0.004013,1742093420.872386
0.26225,0.021,-0.0195,0.01390075,0.0012055,0.0041810004,1742093420.8865762
0.26675,0.02725,-0.01725,0.016861,0.0026854998,0.0059510004,1742093420.900966
0.2785,0.06275,-0.00325,0.01852425,0.00314325,0.0068512503,1742093420.915187
0.279,0.092,-0.001,0.0204315,0.0035095,0.00688175,1742093420.9294899
0.2725,0.126,-0.00575,0.0233155,0.00419625,0.00514225,1742093420.944712
0.23475,0.26425,-0.05425,0.022064252,0.00485225,0.0041810004,1742093420.9581618
0.2055,0.38575,-0.106,0.007843,0.0068207504,0.0040587503,1742093420.972512
0.1095,0.66275,-0.218,-0.0061339997,0.0068207504,0.00579825,1742093420.9869618
0.06175,0.76175,-0.2545,-0.04208375,0.0049285004,0.00976575,1742093421.0012832
0.0665,0.76375,-0.1865,-0.05325325,0.00016775,0.00570675,1742093421.015829
0.123,0.664,-0.0655,-0.05644225,-0.00912475,-0.00823975,1742093421.030418
0.2005,0.488,0.081,-0.065155,-0.0249175,-0.038269002,1742093421.044855
0.365,-0.10625,0.3715,-0.074646,-0.02215575,-0.03724675,1742093421.059461
0.39675,-0.44825,0.46,-0.07785025,-0.00086975005,-0.017501751,1742093421.075655
0.31575,-0.9045,0.423,-0.0681,0.010498,-0.0086975,1742093421.088609
0.26325,-0.94375,0.33075,-0.04037475,0.016448999,0.00033575002,1742093421.104639
0.1915,-0.69375,0.136,-0.02565,0.01310725,0.00112925,1742093421.117339
0.16925,-0.521,0.0675,-0.00352475,0.0065612504,0.0021819999,1742093421.1317482
0.1205,-0.24525,-0.05225,0.0018005001,0.003952,0.00419625,1742093421.146126
0.12,-0.12425,-0.09325,0.0042572496,-0.000122000005,0.00688175,1742093421.1605692
0.1455,-0.0065,-0.1195,0.00296025,-0.011306751,0.00614925,1742093421.175835
0.22875,0.15125,-0.12525,0.0043182503,-0.01599125,0.0014495,1742093421.189466
0.27225,0.164,-0.09425,0.00846875,-0.0188445,-0.0077972496,1742093421.204585
0.32225,0.0935,-0.023,0.0061339997,-0.0148315,-0.009613,1742093421.218344
0.32125,0.0455,-0.00175,-0.00163275,-0.0028074998,-0.0076905,1742093421.2328472
0.28325,-0.0405,0.0015,-0.00369275,0.00181575,-0.0053252503,1742093421.247335
0.25775,-0.06975,-0.00925,-0.00396725,0.00665275,-0.00099175,1742093421.26202
0.2295,-0.0895,-0.025,-0.003296,0.007187,0.00045775,1742093421.2764952
0.22725,-0.08525,-0.026,-0.0027160002,0.0070342496,0.00146475,1742093421.290967
0.22925,-0.077,-0.027,-0.002411,0.00697325,0.0024872501,1742093421.30548
0.24325,-0.0605,-0.0185,-0.00149525,0.00590525,0.002411,1742093421.3199182
0.24775,-0.05225,-0.01425,0.00149525,0.00213625,0.00193775,1742093421.3345978
0.24625,-0.03975,-0.02175,0.002121,0.001114,0.0019989999,1742093421.34867
0.241,-0.04025,-0.02975,0.00390625,-0.00054925,0.0027160002,1742093421.364762
0.2285,-0.03975,-0.04075,0.005539,-0.0016632499,0.0029755002,1742093421.377543
0.22925,-0.0375,-0.0375,0.00767525,-0.0035095,0.00193775,1742093421.392035
0.2335,-0.02675,-0.03075,0.0066374997,-0.00292975,0.0013885,1742093421.4065669
0.2335,-0.0235,-0.03175,0.00564575,-0.0019225,0.00108325,1742093421.421071
0.233,-0.0235,-0.03275,0.00564575,0.000229,0.00061025,1742093421.435374
0.23325,-0.036,-0.03325,0.0056,0.0009155,0.00059500005,1742093421.449866
0.23375,-0.0475,-0.03175,0.0056609996,0.0012207499,0.00062550005,1742093421.4646661
0.23275,-0.0625,-0.029,0.0061035,0.0010375,0.00077825,1742093421.4787111
0.23325,-0.06025,-0.02875,0.0073547503,0.0004425,0.0013427499,1742093421.494638
0.24025,-0.039,-0.02775,0.0075377496,0.00027475,0.0015105,1742093421.507841
0.24675,-0.029,-0.028,0.008072,-0.0004425,0.00163275,1742093421.52229
0.2505,-0.0285,-0.02575,0.008224499,-0.00019825,0.0016785001,1742093421.536756
0.24975,-0.03425,-0.0235,0.008133001,0.0004425,0.001648,1742093421.5511942
0.24875,-0.04225,-0.022,0.01033025,-0.00039675,0.00070200005,1742093421.56576
0.2405,-0.0525,-0.02675,0.012115501,-0.0014037499,0.00010675,1742093421.580283
0.238,-0.04725,-0.03025,0.01380925,-0.002472,-0.00024425,1742093421.594846
0.23975,-0.02675,-0.0325,0.014053251,-0.002777,6.1000002e-05,1742093421.6094022
0.242,-0.021,-0.03125,0.01374825,-0.0025940002,0.0004425,1742093421.625441
0.24725,-0.02175,-0.02725,0.013443,-0.0021972498,0.00064075,1742093421.638242
0.248,-0.02325,-0.027,0.013061499,-0.0011445,0.00154125,1742093421.6527538
0.24525,-0.0245,-0.02825,0.013122501,-0.0007325,0.001953,1742093421.6672041
0.24375,-0.02675,-0.02725,0.013549751,-0.000534,0.0020599999,1742093421.6816409
0.2425,-0.02675,-0.02675,0.01531975,-0.0005645,0.00148,1742093421.696169
0.244,-0.008,-0.03025,0.015915,-0.0007325,0.00149525,1742093421.7105742
0.24775,0.00825,-0.02875,0.014724749,-0.001114,0.003128,1742093421.724992
0.2565,0.02475,-0.01875,0.013733,-0.0010375,0.0035704998,1742093421.7392771
0.256,0.0225,-0.017,0.01301575,-6.1000002e-05,0.0017852499,1742093421.7543502
0.2495,0.00325,-0.0175,0.013321,0.000412,0.00059500005,1742093421.767972
0.248,-0.0065,-0.01625,0.01390075,0.00068675,-6.1000002e-05,1742093421.783715
0.25125,-0.01725,-0.011,0.01576225,0.0010375,7.625e-05,1742093421.796663
0.25375,-0.0185,-0.008,0.0168915,0.00149525,0.00054925,1742093421.810969
0.25375,-0.01775,-0.00475,0.0189515,0.00355525,0.0028229998,1742093421.825682
0.243,-0.0085,-0.00725,0.01950075,0.0048979996,0.0044250004,1742093421.839637
0.23625,0.00125,-0.014,0.01950075,0.0069274995,0.00798025,1742093421.854414
0.224,0.03525,-0.0305,0.0196075,0.00738525,0.009613,1742093421.868125
0.21525,0.06,-0.037,0.020019501,0.0076142503,0.011031999,1742093421.882474
0.19475,0.123,-0.0445,0.021469,0.00747675,0.0150605,1742093421.896842
0.1875,0.1755,-0.05,0.0220185,0.00738525,0.018448,1742093421.911183
0.1745,0.26375,-0.0615,0.01976025,0.00845325,0.026184,1742093421.925462
0.118,0.5785,-0.10325,0.012634249,0.0093385,0.02896125,1742093421.939855
0.07475,0.7705,-0.133,-0.019455,0.0067902496,0.02664175,1742093421.954453
0.0065,1.0,-0.2135,-0.037277248,0.00077825,0.017181499,1742093421.968663
-0.02125,0.98825,-0.22275,-0.05818175,-0.0196685,-0.025970502,1742093421.984313
0.053,0.60275,0.04125,-0.065795995,-0.032333247,-0.04872125,1742093421.997844
0.17475,0.24675,0.28975,-0.07418825,-0.041275002,-0.06260675,1742093422.012318
0.31125,-0.181,0.51225,-0.078308,-0.028885,-0.0619355,1742093422.026965
0.437,-0.92375,0.60975,-0.07598875,-0.012313751,-0.048401,1742093422.041568
0.438,-1.0,0.5185,-0.0653535,0.009017999,-0.00428775,1742093422.056036
0.3735,-0.9675,0.26025,-0.051284753,0.01200875,0.01210025,1742093422.0704498
0.292,-0.78475,0.14175,-0.022369498,0.017273001,0.02124025,1742093422.084954
0.12175,-0.3145,-0.046,-0.013503999,0.01779175,0.019287001,1742093422.0994601
0.06875,-0.1335,-0.128,0.00099175,0.0066985004,0.013290499,1742093422.1143239
0.099,0.10325,-0.204,0.0061035,-0.00369275,0.012024,1742093422.128298
0.1705,0.1705,-0.17325,0.00852975,-0.01339725,0.009277251,1742093422.1468
0.2395,0.19725,-0.12125,0.01127625,-0.0232085,-0.0059967497,1742093422.159592
0.31125,0.1345,-0.02075,0.0123442495,-0.021927001,-0.013061499,1742093422.181571
0.31875,0.08025,0.01175,0.004776,-0.00997925,-0.012847999,1742093422.1891909
0.2985,-0.01075,0.03175,-7.625e-05,-0.00254825,-0.008133001,1742093422.200976
0.2745,-0.04525,0.0245,-0.00437925,0.00643925,-0.0011445,1742093422.226372
0.234,-0.08925,-0.00525,-0.00372325,0.0067445002,-0.00045775,1742093422.2313979
0.2235,-0.0915,-0.01775,-0.0023345,0.0060272496,0.00083925005,1742093422.2450151
0.2445,-0.06875,-0.01275,-0.00328075,0.0070342496,0.00276175,1742093422.258601
0.25875,-0.05925,-0.005,-0.001526,0.00469975,0.00328075,1742093422.274233
0.26625,-0.05225,0.0035,0.0039825,-0.0011445,0.00119025,1742093422.2889972
0.2665,-0.04975,0.00125,0.00494375,-0.0020599999,0.0005645,1742093422.30193
0.26,-0.04725,-0.006,0.0052947504,-0.0005035,0.00059500005,1742093422.316328
0.2405,-0.04,-0.028,0.004547,0.0014495,0.00083925005,1742093422.330688
0.23725,-0.03475,-0.033,0.0046845004,0.00328075,0.0028229998,1742093422.3450298
0.23825,-0.0325,-0.02725,0.0052642496,0.0031889998,0.003662,1742093422.3594759
0.2395,-0.03525,-0.0235,0.00561525,0.0029755002,0.00157175,1742093422.375461
0.24075,-0.049,-0.01675,0.00587475,0.00289925,0.00045775,1742093422.388448
0.2385,-0.06125,-0.0165,0.00637825,0.0028535,-3.0500001e-05,1742093422.4046059
0.23575,-0.07225,-0.019,0.0076142503,0.0026245,0.00068675,1742093422.417143
0.233,-0.075,-0.027,0.0085602505,0.00225825,0.0012665,1742093422.4314911
0.236,-0.06175,-0.0305,0.0110015,0.0008545,0.00184625,1742093422.4459698
0.24475,-0.02075,-0.0285,0.01177975,0.00016775,0.00177,1742093422.460402
0.25075,-0.00925,-0.02125,0.011901749,-0.00010675,0.00059500005,1742093422.475296
0.25075,-0.01275,-0.01,0.0116425,0.00016775,-0.00042725,1742093422.489483
0.24725,-0.02525,-0.008,0.0113525,0.00036625,-0.0012055,1742093422.504385
0.2405,-0.04925,-0.01075,0.01142875,0.00090025004,-0.001068,1742093422.518518
0.2375,-0.0525,-0.0145,0.011917,0.0012970001,-0.00024425,1742093422.534383
0.2355,-0.048,-0.0185,0.01345825,0.0016175,0.0019225,1742093422.5474539
0.231,-0.0225,-0.02575,0.0139770005,0.0015565,0.00283825,1742093422.565046
0.23125,-0.0125,-0.02675,0.0141755,0.00105275,0.0032655,1742093422.5761821
0.2325,-0.01575,-0.02725,0.014160249,0.000824,0.0029449998,1742093422.590585
0.23325,-0.02325,-0.029,0.01440425,0.00042725,0.0032195,1742093422.604981
0.23725,-0.01325,-0.03025,0.0144805005,0.00030525,0.004242,1742093422.619361
0.23875,0.00225,-0.0275,0.014328,0.00010675,0.0055695,1742093422.634701
0.24,0.01425,-0.0245,0.014007499,-0.00045775,0.00561525,1742093422.648142
0.23675,0.0155,-0.02875,0.01419075,-0.00035100002,0.003891,1742093422.662585
0.23575,0.011,-0.03,0.01425175,-0.0002595,0.0018615,1742093422.6769578
0.241,0.012,-0.024,0.013931249,-0.00036625,0.0025634998,1742093422.691387
0.24375,0.02175,-0.02075,0.013046251,-0.0001525,0.0045777503,1742093422.705763
0.24725,0.03775,-0.021,0.01257325,0.00013725001,0.0048674997,1742093422.7200608
0.24675,0.03725,-0.023,0.012329,0.0003815,0.00440975,1742093422.734904
0.2455,0.033,-0.024,0.012924249,0.000473,0.0023345,1742093422.7487519
0.245,0.024,-0.02075,0.013412501,0.0004425,0.00175475,1742093422.764749
0.2465,0.0255,-0.01875,0.013778751,0.0003815,0.00242625,1742093422.777374
0.253,0.03875,-0.01675,0.013321,0.0005645,0.0036315,1742093422.791584
0.25475,0.046,-0.017,0.011550999,0.00175475,0.006073,1742093422.805814
0.252,0.05025,-0.02075,0.011078,0.0026245,0.00643925,1742093422.8201869
0.249,0.0485,-0.024,0.01133725,0.003418,0.006256,1742093422.834572
0.24675,0.05025,-0.026,0.012924249,0.0045777503,0.0063477503,1742093422.848845
0.24075,0.075,-0.0235,0.013198749,0.0051269997,0.007431,1742093422.864469
0.233,0.09975,-0.022,0.0110625,0.0059510004,0.0104674995,1742093422.877456
0.21225,0.18525,-0.03525,0.008361749,0.00585925,0.011673001,1742093422.891828
0.2085,0.23825,-0.053,0.004547,0.004593,0.010513251,1742093422.9061272
0.17775,0.4075,-0.11825,0.0044250004,0.0028687501,0.006546,1742093422.920473
0.1395,0.55625,-0.1575,0.00181575,0.0002135,0.001831,1742093422.9348202
0.10125,0.73175,-0.186,-0.02459725,-0.0063934997,-0.00305175,1742093422.94945
0.066,0.90575,-0.18725,-0.044693,-0.00968925,-0.00434875,1742093422.964751
0.04625,0.84125,-0.16,-0.0713805,-0.018814,-0.023285,1742093422.9786282
0.08675,0.44125,0.05625,-0.07574475,-0.026764,-0.0381165,1742093422.994286
0.1555,0.114,0.2385,-0.07536325,-0.03512575,-0.052688498,1742093423.007463
0.36375,-0.64,0.6045,-0.071167,-0.030181998,-0.04904175,1742093423.0221581
0.423,-0.9015,0.664,-0.05685425,-0.009079001,-0.03224175,1742093423.036753
0.35125,-1.0,0.46475,-0.046584997,0.003296,-0.0208435,1742093423.051221
0.2715,-0.9105,0.29875,-0.023819,0.018753,0.0012817499,1742093423.065669
0.1365,-0.522,0.02,-0.01278675,0.019455,0.00668325,1742093423.080042
0.0975,-0.3505,-0.066,-0.002884,0.016128499,0.008407501,1742093423.0949671
0.07975,-0.2055,-0.11425,0.012039251,0.0023345,0.0065917503,1742093423.108942
0.1275,0.02225,-0.14225,0.014800999,-0.005249,0.004776,1742093423.125773
0.18775,0.09225,-0.128,0.012771499,-0.014557,-0.00045775,1742093423.1378329
0.2915,0.12125,-0.04875,0.0153807495,-0.01628125,-0.003891,1742093423.152401
0.31425,0.09125,-0.00525,0.01367175,-0.00874325,-0.00668325,1742093423.1669672
0.2985,0.03075,0.03225,0.0085602505,-0.00190725,-0.00538625,1742093423.181335
0.28,0.00125,0.0295,0.00190725,0.005783,-0.0020752498,1742093423.195648
0.2445,-0.05975,0.007,0.00112925,0.0065612504,-0.00109875,1742093423.210034
0.234,-0.078,-0.001,0.00125125,0.00640875,-0.0003815,1742093423.225431
0.2315,-0.08725,-0.00225,0.001236,0.00671375,-0.0002595,1742093423.2391198
0.243,-0.0855,-0.00475,0.00036625,0.0078735,-0.000183,1742093423.254624
0.24975,-0.0815,0.0015,0.00245675,0.00567625,0.0026854998,1742093423.267887
0.253,-0.07725,0.013,0.0047302498,0.00279225,0.0023345,1742093423.2821782
0.2435,-0.07725,0.00625,0.008407501,-0.00068675,0.0009155,1742093423.2966
0.22475,-0.088,-0.007,0.010024999,-0.00143425,0.00065625,1742093423.311028
0.22075,-0.091,-0.0105,0.0111085,-0.00154125,0.0009765,1742093423.3257751
0.22225,-0.08425,-0.01375,0.010253999,-0.0001525,0.003296,1742093423.3400252
0.23575,-0.04575,-0.01875,0.009597749,0.00045775,0.00463875,1742093423.3548942
0.2425,-0.02875,-0.02025,0.00947575,0.00039675,0.00466925,1742093423.36884
0.24575,-0.02775,-0.02225,0.009613,0.00019825,0.0033875,1742093423.384832
0.245,-0.04275,-0.02075,0.01026925,-9.15e-05,0.0012207499,1742093423.3977401
0.24325,-0.07025,-0.01625,0.010894749,0.000183,0.00086975005,1742093423.412145
0.243,-0.07475,-0.016,0.0119630005,0.00077825,0.00198375,1742093423.4266229
0.24725,-0.0555,-0.0185,0.012329,0.0007325,0.00331125,1742093423.441035
0.24925,-0.035,-0.01925,0.01266475,0.000534,0.0043182503,1742093423.45546
0.2515,-0.017,-0.01875,0.01316825,0.0,0.00364675,1742093423.469963
0.2545,-0.01175,-0.01075,0.013351499,1.5250001e-05,0.0022735,1742093423.484378
0.24925,-0.0205,-0.00925,0.01358025,0.00061025,0.000229,1742093423.498776
0.241,-0.0335,-0.01025,0.01361075,0.00070200005,0.00039675,1742093423.514731
0.24025,-0.03125,-0.0115,0.0138702495,0.0005035,0.00184625,1742093423.52765
0.2415,-0.014,-0.016,0.013992251,0.00019825,0.00242625,1742093423.5419881
0.24275,-0.00225,-0.019,0.014007499,-0.00024425,0.0025787498,1742093423.556503
0.24125,0.0075,-0.0225,0.013549751,-0.000534,0.0016785001,1742093423.570914
0.2405,0.004,-0.02,0.013351499,-0.00033575002,0.0009765,1742093423.585361
0.23925,-0.00125,-0.0165,0.01322925,-0.00019825,6.1000002e-05,1742093423.599945
0.24,-0.0115,-0.01225,0.013031,-0.00030525,0.0003815,1742093423.6146638
0.24175,-0.01175,-0.01225,0.012207,-0.0002135,0.00198375,1742093423.6289191
0.242,-0.00775,-0.014,0.01194775,-0.00013725001,0.0023497501,1742093423.644496
0.2395,-0.00575,-0.015,0.012557999,-0.00030525,0.00146475,1742093423.6579351
0.233,-0.00125,-0.01725,0.013122501,-0.00065625,0.00071725,1742093423.6725419
0.2345,-0.0,-0.01525,0.013351499,-0.0014037499,0.0005645,1742093423.687277
0.24275,0.008,-0.00975,0.012985251,-0.001526,0.0012970001,1742093423.701646
0.2465,0.014,-0.00625,0.012329,-0.0014495,0.0023345,1742093423.716044
0.24975,0.01625,-0.00325,0.01133725,-0.0007935,0.00364675,1742093423.730475
0.253,0.01875,-0.00375,0.0114440005,-0.00036625,0.0034790002,1742093423.744833
0.254,0.025,-0.0065,0.0113525,0.000412,0.0034942501,1742093423.759205
0.25775,0.048,-0.00675,0.01065075,0.001068,0.0045165,1742093423.7752268
0.25875,0.06175,-0.00525,0.008194,0.0029907501,0.00723275,1742093423.787745
0.255,0.08725,-0.0095,0.0073242504,0.0042115003,0.0077667497,1742093423.8020322
0.24625,0.10625,-0.018,0.00717175,0.0053405,0.0076142503,1742093423.816329
0.24,0.13625,-0.03075,0.0072632497,0.00631725,0.0068055,1742093423.830667
0.2255,0.2555,-0.0795,0.00672925,0.00617975,0.0057220003,1742093423.844983
0.222,0.352,-0.109,-0.00059500005,0.00419625,0.00384525,1742093423.859481
0.23125,0.6165,-0.14225,-0.0089875,0.0046539996,0.0033722501,1742093423.875197
0.21275,0.74975,-0.15225,-0.03079225,0.0071105,-0.0056915004,1742093423.888315
0.1165,0.817,-0.1345,-0.04255675,0.0065307496,-0.01324475,1742093423.904453
0.063,0.69175,-0.07975,-0.05581675,0.0047150003,-0.0202485,1742093423.917431
0.05175,0.1095,0.11075,-0.079895,-0.0011445,-0.02674875,1742093423.931914
0.10475,-0.29225,0.20425,-0.082275495,-0.00466925,-0.027893,1742093423.946518
0.1865,-0.6705,0.29125,-0.06398,-0.014846751,-0.02522275,1742093423.961181
0.45425,-1.0,0.51525,-0.052597,-0.017730748,-0.017929,1742093423.9757838
0.53975,-0.9505,0.55875,-0.0306855,-0.009430001,-0.0045625,1742093423.991617
0.3675,-0.673,0.28175,-0.02409375,0.00213625,0.001175,1742093424.004624
0.228,-0.501,0.10525,-0.014785751,0.018707251,0.01664725,1742093424.019043
0.0605,-0.1795,-0.122,-0.0069580004,0.01628125,0.017105,1742093424.034531
0.0535,-0.07625,-0.168,0.009430001,0.0030669998,0.009369001,1742093424.0479271
0.152,0.08625,-0.13775,0.013046251,-0.002777,0.00665275,1742093424.06236
0.2165,0.14575,-0.0955,0.0127105,-0.007599,0.00355525,1742093424.076759
0.2655,0.16075,-0.0595,0.00845325,-0.01251225,-0.0056915004,1742093424.091274
0.304,0.0785,-0.00825,0.0077667497,-0.0105742505,-0.00862125,1742093424.1057029
0.3,0.026,0.00775,0.0042572496,-0.00148,-0.00720225,1742093424.120136
0.282,-0.047,0.025,0.0026245,0.00279225,-0.0047455,1742093424.134866
0.2725,-0.06525,0.02875,0.0025025,0.0068665,-0.0005035,1742093424.148932
0.253,-0.08175,0.0135,0.002411,0.00593575,0.00013725001,1742093424.164753
0.2455,-0.0845,-0.00275,0.0021972498,0.0037995,-0.0002135,1742093424.177724
0.2415,-0.088,-0.01275,0.002365,0.0024414998,-0.0005035,1742093424.192218
0.2445,-0.094,-0.01775,0.00201425,0.002884,0.00016775,1742093424.206655
0.24475,-0.088,-0.018,0.0031585,0.0023039998,0.00181575,1742093424.2210078
0.24225,-0.0685,-0.0165,0.00428775,0.0013580001,0.00157175,1742093424.235452
0.24375,-0.06375,-0.0145,0.0053709997,0.00029,0.00062550005,1742093424.2499032
0.246,-0.066,-0.011,0.0058287503,0.000122000005,0.00048825,1742093424.264394
0.245,-0.0715,-0.0095,0.0073547503,0.000183,0.00067150005,1742093424.2787058
0.24125,-0.08225,-0.00775,0.0084379995,0.0005645,0.00071725,1742093424.294602
0.23825,-0.0805,-0.0135,0.009369001,0.00119025,0.00086975005,1742093424.307441
0.235,-0.0705,-0.022,0.01013175,0.002472,0.001953,1742093424.321899
0.22975,-0.04175,-0.037,0.009948749,0.0028074998,0.00238025,1742093424.336321
0.22875,-0.03525,-0.0415,0.009811499,0.00231925,0.001892,1742093424.350637
0.22825,-0.04025,-0.04575,0.01004025,0.001587,0.00119025,1742093424.3649411
0.23025,-0.047,-0.04425,0.01115425,-0.00016775,-0.00029,1742093424.379643
0.23825,-0.065,-0.03525,0.012313751,-0.00071725,-0.00143425,1742093424.394817
0.23975,-0.06825,-0.032,0.014495751,-0.001526,-0.0025940002,1742093424.408788
0.24775,-0.05025,-0.0255,0.01463325,-0.0017852499,-0.00125125,1742093424.4248772
0.251,-0.03175,-0.02475,0.014160249,-0.0017395001,0.00080875,1742093424.437868
0.2515,-0.01475,-0.026,0.01266475,-0.00019825,0.0031127501,1742093424.452448
0.2435,-0.00525,-0.034,0.01216125,0.00093075,0.002655,1742093424.46692
0.237,-0.011,-0.03725,0.012024,0.0020752498,0.000946,1742093424.481419
0.22775,-0.027,-0.03575,0.0122375,0.001709,0.00062550005,1742093424.4958222
0.2275,-0.03125,-0.0325,0.012802,1.5250001e-05,0.00108325,1742093424.510151
0.234,-0.03275,-0.026,0.012985251,-0.00057975,0.001587,1742093424.525326
0.2365,-0.0285,-0.0245,0.012832751,-0.00048825,0.002472,1742093424.5390232
0.2325,-0.025,-0.029,0.012695249,-0.00019825,0.0025787498,1742093424.554286
0.2285,-0.02875,-0.03225,0.012832751,-0.00010675,0.0022125002,1742093424.568099
0.2245,-0.03225,-0.033,0.013854999,-0.00071725,0.001007,1742093424.582502
0.22125,-0.0315,-0.02975,0.0142365,-0.0012817499,0.00108325,1742093424.59702
0.2245,-0.02725,-0.027,0.0139465,-0.002411,0.0029449998,1742093424.611548
0.236,-0.01325,-0.0195,0.01330575,-0.0024414998,0.0042267498,1742093424.626014
0.239,-0.0055,-0.01775,0.01206975,-0.00163275,0.0055237496,1742093424.64043
0.238,-0.0015,-0.019,0.01187125,-0.001419,0.0053405,1742093424.654908
0.23875,-0.00375,-0.01925,0.012405501,-0.0017395001,0.00460825,1742093424.6694531
0.24725,-0.003,-0.01625,0.01266475,-0.0020295,0.0046539996,1742093424.68469
0.253,0.00225,-0.0125,0.0125885,-0.0022277501,0.0054475004,1742093424.698231
0.2575,0.01125,-0.00825,0.011398249,-0.00181575,0.008514499,1742093424.7126038
0.2585,0.03575,-0.00275,0.01062,-0.0013885,0.0097045,1742093424.72704
0.25975,0.0495,-0.0005,0.0095672505,-0.000824,0.00982675,1742093424.741528
0.26875,0.0815,-0.00325,0.0088805,-0.0003205,0.00912475,1742093424.755944
0.26925,0.105,-0.00725,0.0050355,0.00175475,0.0090485,1742093424.7702558
0.24775,0.19675,-0.0335,0.00125125,0.0027160002,0.0100707505,1742093424.7844942
0.232,0.28125,-0.0555,-0.0036162501,0.00358575,0.010940501,1742093424.79901
0.2135,0.393,-0.0895,-0.014557,0.0050812503,0.00830075,1742093424.81468
0.142,0.6965,-0.22825,-0.023620501,0.004303,0.00546275,1742093424.827805
0.11325,0.797,-0.284,-0.04670725,-0.00201425,-0.002777,1742093424.842438
0.09225,0.767,-0.2315,-0.05484,-0.0075835,-0.0093385,1742093424.857002
0.1075,0.6575,-0.12925,-0.06622325,-0.017334,-0.0237275,1742093424.871619
0.213,0.2335,0.1685,-0.0715485,-0.019333,-0.02619925,1742093424.886139
0.28225,-0.07175,0.32775,-0.073120005,-0.0166625,-0.018509,1742093424.900725
0.41975,-0.64025,0.60175,-0.06628425,-0.01245125,-0.015029999,1742093424.915327
0.4635,-0.8235,0.63275,-0.049133252,0.0007325,-0.012420749,1742093424.929929
0.35875,-0.8815,0.4035,-0.039352503,0.0101775,-0.008133001,1742093424.94474
0.2505,-0.7735,0.25075,-0.028305,0.01841725,-0.0016785001,1742093424.958831
0.15,-0.63,0.122,-0.00590525,0.021347,0.0090485,1742093424.9730592
0.05575,-0.374,-0.042,0.0033722501,0.01652525,0.01206975,1742093424.9875789
0.05475,-0.23525,-0.08825,0.011688249,-0.0003205,0.0139770005,1742093425.002007
0.13225,0.05675,-0.1425,0.01310725,-0.008377,0.01062,1742093425.016429
0.194,0.1375,-0.133,0.021041749,-0.016570998,-0.0013427499,1742093425.030887
0.28875,0.114,-0.0595,0.02162175,-0.016098,-0.0056915004,1742093425.04537
0.306,0.06075,-0.0235,0.01808175,-0.011825499,-0.007965,1742093425.059804
0.30675,-0.01875,0.02025,0.009582501,-0.0023497501,-0.00694275,1742093425.0750232
0.29675,-0.03925,0.0205,0.007553,0.000534,-0.00419625,1742093425.088777
0.2795,-0.04925,0.0075,0.0065765,0.004242,0.00030525,1742093425.1045382
0.24825,-0.05425,-0.0185,0.00662225,0.0049590003,0.00109875,1742093425.117655
0.2445,-0.0565,-0.02525,0.0044707498,0.0072632497,0.0007935,1742093425.132129
0.25475,-0.03575,-0.0085,0.0034637498,0.00791925,0.0012055,1742093425.1465669
0.262,-0.03325,-0.002,0.00846875,0.001007,-0.001175,1742093425.161046
0.26,-0.044,0.00625,0.010009751,-0.00074775,-0.00267025,1742093425.175497
0.25325,-0.057,0.0045,0.01095575,-0.0012970001,-0.0029907501,1742093425.189889
0.2445,-0.06775,0.00075,0.0123595,-0.000412,-0.00105275,1742093425.204826
0.231,-0.0635,-0.0135,0.01148975,0.0008545,0.00035100002,1742093425.2188249
0.23175,-0.0535,-0.0195,0.009734999,0.00279225,0.0027312501,1742093425.23429
0.229,-0.02775,-0.0275,0.00985725,0.0026092501,0.00308225,1742093425.247804
0.229,-0.0225,-0.02875,0.010238751,0.000824,0.0027160002,1742093425.262262
0.23625,-0.026,-0.026,0.010604749,-6.1000002e-05,0.00190725,1742093425.2768729
0.242,-0.03025,-0.02475,0.011734,-0.0002595,6.1000002e-05,1742093425.291212
0.24675,-0.04,-0.0265,0.01228325,0.00027475,-0.0005645,1742093425.305899
0.2475,-0.041,-0.029,0.012756251,0.00042725,-0.000763,1742093425.3204281
0.2495,-0.033,-0.03075,0.01324475,9.15e-05,-0.00013725001,1742093425.334948
0.25025,-0.02575,-0.029,0.013336251,1.5250001e-05,0.00045775,1742093425.349321
0.2495,-0.0165,-0.028,0.013137749,0.0005645,0.00115975,1742093425.364853
0.24425,0.0025,-0.0305,0.0126495,0.000946,0.0012665,1742093425.378127
0.2425,0.006,-0.03075,0.0115815,0.0012207499,0.001114,1742093425.392434
0.244,-0.00025,-0.02725,0.01156625,0.001068,0.00064075,1742093425.406805
0.2435,-0.00475,-0.027,0.012405501,0.00067150005,-0.00054925,1742093425.421242
0.2405,-0.0025,-0.0275,0.0126495,0.00036625,-0.00068675,1742093425.435702
0.2405,0.0065,-0.02875,0.012329,-1.5250001e-05,-0.0002595,1742093425.4502022
0.2425,0.016,-0.029,0.00991825,4.575e-05,0.00169375,1742093425.464736
0.2415,0.01925,-0.03125,0.0085602505,0.00054925,0.0022125002,1742093425.478817
0.23975,0.0115,-0.0315,0.00738525,0.00102225,0.00160225,1742093425.494514
0.239,-0.00875,-0.0265,0.0078125,0.0007325,0.0007325,1742093425.5075321
0.2405,-0.014,-0.02225,0.009216251,-0.00033575002,-0.00033575002,1742093425.522099
0.24575,-0.0085,-0.0175,0.009491,-0.00071725,-0.00016775,1742093425.536603
0.247,-0.00325,-0.0175,0.009323,-0.00077825,0.000229,1742093425.551253
0.24425,-0.00075,-0.02025,0.00839225,-0.00036625,0.0005645,1742093425.56578
0.24225,-0.0035,-0.02175,0.0078735,-0.00024425,0.0005645,1742093425.5804338
0.24025,-0.008,-0.02275,0.00747675,-0.00027475,0.00064075,1742093425.594931
0.23825,-0.01875,-0.01825,0.0076905,-0.0003815,0.000763,1742093425.609312
0.241,-0.02375,-0.01375,0.008850001,-0.000473,0.00083925005,1742093425.625202
0.244,-0.0225,-0.013,0.009506251,-0.0004425,0.00108325,1742093425.638321
0.24675,-0.01675,-0.01325,0.009292499,-0.0005035,0.00331125,1742093425.6528199
0.253,-0.008,-0.011,0.0091705,-0.000183,0.0045012496,1742093425.667199
0.25275,-0.00375,-0.0105,0.00975025,0.00093075,0.0060577504,1742093425.681702
0.25175,0.009,-0.01225,0.010253999,0.00149525,0.00668325,1742093425.696126
0.25025,0.02325,-0.015,0.010894749,0.0020295,0.00708,1742093425.710429
0.247,0.04225,-0.01725,0.012176501,0.0025634998,0.00782775,1742093425.725457
0.24875,0.084,-0.01475,0.01257325,0.00239575,0.00830075,1742093425.7390149
0.25125,0.1055,-0.01425,0.0128632495,0.00331125,0.008667,1742093425.754499
0.232,0.18975,-0.034,0.01145925,0.00434875,0.009002751,1742093425.767704
0.22925,0.2495,-0.055,0.0034790002,0.00514225,0.0091705,1742093425.781984
0.1985,0.423,-0.134,-0.00093075,0.0055847503,0.008148249,1742093425.796413
0.1465,0.56825,-0.1935,-0.0072785,0.0060272496,0.007187,1742093425.810802
0.08375,0.7085,-0.25225,-0.03312675,0.0058899997,0.0102845,1742093425.826004
0.037,0.7875,-0.27175,-0.045868002,0.0025634998,0.0115205,1742093425.8395789
0.0605,0.733,-0.19875,-0.05461125,-0.013382,-0.010803251,1742093425.854572
0.19175,0.376,0.0895,-0.0569305,-0.02073675,-0.026947001,1742093425.8686569
0.30475,0.04875,0.28725,-0.060974,-0.0204315,-0.041092,1742093425.884535
0.47125,-0.67075,0.56525,-0.059860248,-0.0125275,-0.038390998,1742093425.897964
0.48125,-0.90225,0.5675,-0.052856497,0.0097045,-0.016922,1742093425.912585
0.36075,-0.90975,0.332,-0.043747,0.0182495,-0.0044555003,1742093425.927047
0.251,-0.72825,0.16825,-0.032486,0.022705,0.003952,1742093425.941504
0.15675,-0.53375,0.0345,-0.011856,0.021225,0.008926501,1742093425.955893
0.0625,-0.267,-0.0955,-0.0027465,0.0162505,0.0070952503,1742093425.9703271
0.05375,-0.17475,-0.1145,0.011016751,0.0007935,0.00216675,1742093425.984697
0.1135,-0.01,-0.118,0.014587499,-0.0070037497,0.001419,1742093425.9992378
0.168,0.055,-0.10375,0.0128175,-0.01811225,-0.0025634998,1742093426.014812
0.26975,0.10425,-0.06175,0.0117035,-0.019516,-0.0061645,1742093426.028288
0.3,0.0845,-0.03175,0.01036075,-0.0127105,-0.009430001,1742093426.0444422
0.3115,0.0205,0.00025,0.00717175,-0.00791925,-0.008316,1742093426.057218
0.304,-0.0055,0.0035,0.0037537501,-0.0035704998,-0.0062712496,1742093426.07167
0.29325,-0.02675,-0.0005,0.00051875,0.0012207499,-0.00331125,1742093426.086241
0.27,-0.055,-0.0165,0.0005035,0.0019685,-0.0030975002,1742093426.100699
0.264,-0.06375,-0.01625,-0.000412,0.0037537501,-0.0023345,1742093426.115296
0.26,-0.06775,-0.01725,-0.00251775,0.0062865,-0.000763,1742093426.130007
0.262,-0.064,-0.01325,0.00048825,0.00325,-0.000763,1742093426.144876
0.25875,-0.051,-0.0115,0.0031585,0.00062550005,-0.0012207499,1742093426.159211
0.255,-0.04775,-0.015,0.0057220003,-0.0016785001,-0.001953,1742093426.175595
0.248,-0.04625,-0.01975,0.0047455,-0.00077825,-0.0021819999,1742093426.1885061
0.2425,-0.04625,-0.0235,0.0015105,0.0022277501,-0.00146475,1742093426.204514
0.22925,-0.04625,-0.033,0.000946,0.0029449998,-0.00062550005,1742093426.2175071
0.2245,-0.04575,-0.037,0.00093075,0.00308225,0.00030525,1742093426.231921
0.22175,-0.043,-0.04075,0.001892,0.00231925,0.0017395001,1742093426.2464828
0.2235,-0.035,-0.045,0.0026092501,0.001709,0.0019225,1742093426.260926
0.2245,-0.031,-0.04575,0.0038605002,0.00048825,0.001175,1742093426.275446
0.22925,-0.02975,-0.04325,0.0043639997,-0.0001525,0.00029,1742093426.289823
0.23075,-0.03275,-0.041,0.0049895,-0.00093075,-0.00090025004,1742093426.3046741
0.233,-0.04125,-0.0365,0.0050202496,-0.001236,-0.00083925005,1742093426.3190389
0.23675,-0.045,-0.034,0.00535575,-0.0014037499,-0.000183,1742093426.334811
0.23675,-0.049,-0.03175,0.0055847503,-0.0012055,0.00064075,1742093426.3479948
0.24,-0.045,-0.0275,0.0055085,-0.00109875,0.0018005001,1742093426.362506
0.24475,-0.037,-0.02375,0.0052947504,-0.00115975,0.0038605002,1742093426.3769112
0.24125,-0.02175,-0.02525,0.0054475004,-0.00109875,0.0039825,1742093426.391329
0.23925,-0.01975,-0.02825,0.0060272496,-0.0015105,0.0029755002,1742093426.405886
0.238,-0.02525,-0.03125,0.0065765,-0.00154125,0.0021819999,1742093426.420314
0.23375,-0.02775,-0.0325,0.007904,-0.001709,0.00074775,1742093426.434932
0.237,-0.0305,-0.032,0.008285499,-0.0022277501,0.00067150005,1742093426.449409
0.24275,-0.03,-0.0285,0.008194,-0.00251775,0.00146475,1742093426.464454
0.23975,-0.0275,-0.02675,0.0077972496,-0.0022125002,0.0020752498,1742093426.478324
0.24225,-0.0245,-0.0255,0.00697325,-0.00181575,0.00317375,1742093426.494045
0.24525,-0.01975,-0.026,0.005005,-0.00057975,0.0053405,1742093426.507253
0.23725,-0.01675,-0.0365,0.0045165,-1.5250001e-05,0.005539,1742093426.521673
0.23325,-0.019,-0.039,0.0049285004,-0.000122000005,0.00463875,1742093426.536194
0.23075,-0.0235,-0.035,0.00570675,-0.0007325,0.0037385002,1742093426.550796
0.2305,-0.02425,-0.032,0.0072175004,-0.002533,0.0024414998,1742093426.565208
0.23775,-0.02325,-0.0285,0.0077210004,-0.0034637498,0.0023497501,1742093426.579844
0.24275,-0.02075,-0.02775,0.00880425,-0.0041504996,0.002121,1742093426.5945861
0.24475,-0.00525,-0.025,0.0090637505,-0.0038757501,0.001831,1742093426.608785
0.2455,-0.00075,-0.02275,0.00883475,-0.00343325,0.00163275,1742093426.623185
0.24525,-0.001,-0.022,0.008377,-0.0028535,0.0008545,1742093426.637808
0.24375,-0.00775,-0.023,0.008361749,-0.0026092501,0.00035100002,1742093426.65222
0.24425,-0.012,-0.0215,0.0085602505,-0.0020752498,0.00024425,1742093426.666778
0.24875,-0.012,-0.01775,0.008590749,-0.00177,0.00059500005,1742093426.681207
0.25125,-0.008,-0.0175,0.008651749,-0.00090025004,0.00093075,1742093426.695909
0.25,0.003,-0.01975,0.0085602505,-0.000412,0.001068,1742093426.710312
0.249,0.00425,-0.02075,0.0080567505,3.0500001e-05,0.0013427499,1742093426.724721
0.248,-0.00125,-0.022,0.0080567505,-6.1000002e-05,0.001007,1742093426.73921
0.24775,-0.003,-0.02275,0.008407501,-0.0003205,0.0003815,1742093426.754303
