acc_x,acc_y,acc_z,gyro_x,gyro_y,gyro_z,timestamp
0.247,-0.01075,-0.01825,-3.0500001e-05,0.0001525,0.00036625,1742093370.5917618
0.24675,-0.01025,-0.0185,-0.0001525,0.00035100002,0.00035100002,1742093370.604537
0.2445,-0.011,-0.02075,-0.00016775,0.0004425,0.00029,1742093370.619143
0.24275,-0.0115,-0.022,-0.0001525,0.00045775,0.0002595,1742093370.6342819
0.2415,-0.01225,-0.023,-6.1000002e-05,0.00016775,0.0003815,1742093370.647939
0.24275,-0.0125,-0.02225,0.0,-6.1000002e-05,0.00051875,1742093370.662424
0.24475,-0.01225,-0.02,7.625e-05,-0.00027475,0.00061025,1742093370.676811
0.2465,-0.01125,-0.0175,0.000122000005,-0.0002135,0.00045775,1742093370.691263
0.2465,-0.0105,-0.018,0.0001525,3.0500001e-05,0.00027475,1742093370.7056131
0.2465,-0.00875,-0.02,0.00013725001,0.000122000005,0.00027475,1742093370.719945
0.2465,-0.00875,-0.02075,9.15e-05,0.00019825,0.0002595,1742093370.734454
0.24475,-0.01,-0.02175,3.0500001e-05,0.00027475,6.1000002e-05,1742093370.748746
0.2445,-0.01,-0.02175,4.575e-05,0.00024425,-1.5250001e-05,1742093370.764142
0.2445,-0.009,-0.021,-4.575e-05,0.000229,6.1000002e-05,1742093370.7777479
0.245,-0.0105,-0.02025,-0.00019825,0.00024425,0.00019825,1742093370.7922401
0.245,-0.012,-0.02075,-0.0002595,0.00027475,0.00036625,1742093370.806746
0.24425,-0.0125,-0.02175,-0.00013725001,0.000183,0.00035100002,1742093370.8212302
0.24525,-0.011,-0.021,0.00013725001,-6.1000002e-05,0.00010675,1742093370.835739
0.2475,-0.00925,-0.02025,0.0002135,-4.575e-05,-0.00010675,1742093370.850223
0.24725,-0.01,-0.02075,0.000229,3.0500001e-05,-0.000229,1742093370.8647501
0.24675,-0.0105,-0.02025,0.000183,3.0500001e-05,-6.1000002e-05,1742093370.8792121
0.24675,-0.0095,-0.0195,0.00019825,-1.5250001e-05,0.00013725001,1742093370.8938382
0.24675,-0.00875,-0.01925,0.00013725001,6.1000002e-05,0.00048825,1742093370.908164
0.2455,-0.00875,-0.021,0.00010675,0.0001525,0.00059500005,1742093370.9224908
0.24475,-0.008,-0.022,9.15e-05,0.0003205,0.00054925,1742093370.937057
0.24325,-0.00575,-0.0235,3.0500001e-05,0.00027475,0.000473,1742093370.9514308
0.242,-0.00625,-0.0245,9.15e-05,3.0500001e-05,0.00036625,1742093370.965744
0.238,-0.007,-0.02975,0.00029,-0.00016775,0.00036625,1742093370.980285
0.23725,-0.00825,-0.03625,0.00054925,-0.000412,0.00039675,1742093370.99482
0.23675,-0.00925,-0.049,0.00070200005,-0.00027475,6.1000002e-05,1742093371.0094059
0.24025,0.00325,-0.10475,0.00016775,0.00070200005,-0.00074775,1742093371.0243342
0.24525,0.00975,-0.14975,-0.00216675,0.004547,-0.00238025,1742093371.038404
0.26075,0.00525,-0.26425,-0.00228875,0.0066985004,-0.0026092501,1742093371.054214
0.24725,-0.00925,-0.32675,-0.00160225,0.013351499,0.000412,1742093371.067338
0.14575,-0.0865,-0.44275,-0.0037079998,0.017883249,0.0049590003,1742093371.081828
0.09075,-0.1335,-0.47375,-0.0053405,0.01708975,0.02029425,1742093371.096351
0.00425,-0.11725,-0.45825,-0.0045777503,0.0110625,0.028656,1742093371.1108549
0.0075,-0.05275,-0.391,-0.003006,0.0025787498,0.033905,1742093371.125367
0.1565,0.065,-0.14775,0.0077972496,-0.016159,0.024841249,1742093371.139838
0.30475,0.0895,0.04675,0.014923001,-0.023193251,0.01330575,1742093371.154457
0.43875,0.1155,0.2145,0.012191749,-0.020584,0.00010675,1742093371.168417
0.49675,0.0955,0.3725,0.0045625,-0.01222225,0.00555425,1742093371.18431
0.4905,0.0755,0.40275,-0.00228875,-0.0027312501,0.009933501,1742093371.1971562
0.48025,0.05525,0.426,0.00108325,0.00115975,0.00029,1742093371.211295
0.4485,0.0065,0.38925,0.0045012496,0.0050355,-0.01077275,1742093371.2255201
0.3955,-0.03525,0.3365,0.00691225,0.011795,-0.020691,1742093371.239895
0.27925,-0.06375,0.21425,0.0058899997,0.0141145,-0.018280001,1742093371.2543092
0.22075,-0.05525,0.1405,0.0042572496,0.016983,-0.00839225,1742093371.268735
0.13775,0.00325,0.01725,0.00437925,0.01664725,-0.0048674997,1742093371.28438
0.1175,0.0305,-0.0215,0.0053709997,0.01194775,-0.0030975002,1742093371.2974
0.12375,0.04525,-0.0495,0.00593575,0.0079955,-0.00308225,1742093371.311857
0.1455,0.04525,-0.045,0.0055085,0.00143425,-0.001648,1742093371.326151
0.186,0.041,-0.03625,0.004303,0.0002595,-0.00033575002,1742093371.340651
0.19875,0.03275,-0.0355,0.003128,0.00010675,0.00099175,1742093371.3548968
0.20775,0.02825,-0.03475,0.0022125002,0.00045775,0.0017852499,1742093371.369257
0.22225,0.022,-0.02875,0.0021972498,0.0003815,0.0012665,1742093371.38446
0.22775,0.018,-0.0265,0.0021057501,-0.000183,0.000183,1742093371.3979352
0.23525,0.01475,-0.02325,0.001526,-0.0005645,0.0002595,1742093371.4123461
0.23775,0.0115,-0.02425,-9.15e-05,-0.00105275,0.00065625,1742093371.426717
0.23775,0.0005,-0.034,-0.00062550005,-0.0013427499,0.0007325,1742093371.44121
0.2385,-0.0035,-0.03775,-0.0007935,-0.001831,0.0007325,1742093371.455816
0.24225,-0.00325,-0.038,-0.00045775,-0.00305175,0.00071725,1742093371.470517
0.25425,0.00725,-0.0325,-9.15e-05,-0.0032347501,0.000534,1742093371.484951
0.25775,0.01275,-0.0305,0.00074775,-0.002121,-0.000885,1742093371.499376
0.2615,0.013,-0.0285,0.00070200005,-0.0012970001,-0.00157175,1742093371.514078
0.2605,0.00825,-0.0295,0.0004425,0.000183,-0.0017242499,1742093371.528369
0.25225,0.002,-0.03325,0.00045775,0.00065625,-0.0012207499,1742093371.5441558
0.2485,0.003,-0.0335,0.00065625,0.0009155,7.625e-05,1742093371.557044
0.24725,0.0085,-0.03025,0.00068675,0.00068675,0.000473,1742093371.5714712
0.2475,0.00925,-0.029,0.00062550005,0.00039675,0.00054925,1742093371.585647
0.24875,0.008,-0.028,0.000473,-0.00019825,0.000229,1742093371.600032
0.252,0.0095,-0.02375,0.00054925,-0.00029,7.625e-05,1742093371.6143858
0.25175,0.013,-0.022,0.000885,-0.00029,-0.00010675,1742093371.6287098
0.24675,0.01725,-0.0205,0.00077825,-0.00051875,-7.625e-05,1742093371.6443148
0.24425,0.0155,-0.0195,-1.5250001e-05,-0.0013580001,-0.00019825,1742093371.657708
0.2435,0.00925,-0.017,-0.0004425,-0.0017242499,-0.0005035,1742093371.67233
0.2435,0.0055,-0.016,-0.00070200005,-0.00184625,-0.000763,1742093371.686781
0.24275,0.00525,-0.0135,-0.00059500005,-0.00148,-0.00086975005,1742093371.701322
0.242,0.00875,-0.0115,-0.000473,-0.00125125,-0.00074775,1742093371.7158039
0.24075,0.0115,-0.01,-0.00062550005,-0.001175,-0.00059500005,1742093371.730293
0.24125,0.01125,-0.012,-0.00086975005,-0.00143425,-0.00067150005,1742093371.7448142
0.2415,0.012,-0.0135,-0.0012817499,-0.00154125,-0.00061025,1742093371.7593322
0.24375,0.015,-0.014,-0.001709,-0.00154125,-0.00039675,1742093371.7750201
0.243,0.01675,-0.015,-0.0022277501,-0.00231925,-0.00077825,1742093371.788552
0.24,0.02,-0.0145,-0.00213625,-0.00296025,-0.001419,1742093371.8042822
0.242,0.0175,-0.01275,-0.00193775,-0.0037079998,-0.00254825,1742093371.817565
0.247,0.0055,-0.013,-0.001709,-0.00328075,-0.0028687501,1742093371.832215
0.24775,0.00325,-0.017,-0.00149525,-0.00242625,-0.00296025,1742093371.8468192
0.248,0.00525,-0.02175,-0.00175475,-0.0007325,-0.002121,1742093371.861325
0.2475,0.0155,-0.025,-0.0017852499,-0.00036625,-0.00160225,1742093371.87587
0.24675,0.019,-0.02475,-0.001236,-0.0005645,-0.0019225,1742093371.890381
0.249,0.0115,-0.02225,-0.001007,-0.000946,-0.00267025,1742093371.904939
0.25375,0.00125,-0.0205,-0.00029,-0.001236,-0.0043944996,1742093371.919488
0.256,-0.01275,-0.02525,0.00010675,-0.000885,-0.00453175,1742093371.9343848
0.25525,-0.01,-0.027,-0.0004425,0.0,-0.0025940002,1742093371.948491
0.2505,0.01075,-0.0285,-0.001114,0.0003205,-0.00160225,1742093371.964221
0.248,0.01875,-0.02825,-0.00169375,0.00051875,-0.001175,1742093371.9772868
0.248,0.01375,-0.024,-0.002365,0.0005035,-0.0022277501,1742093371.991701
0.25175,0.004,-0.0215,-0.00239575,0.00016775,-0.0034637498,1742093372.006256
0.257,-0.00575,-0.01925,-0.001648,-0.00057975,-0.0059967497,1742093372.020928
0.26325,-0.0135,-0.015,-0.00190725,-0.00042725,-0.0063325,1742093372.0356202
0.26175,-0.0095,-0.01675,-0.00402825,0.00064075,-0.00514225,1742093372.0502222
0.251,-0.00075,-0.01975,-0.0052795,0.0012207499,-0.0046845004,1742093372.064731
0.244,-0.00225,-0.02525,-0.00531,0.001709,-0.0051269997,1742093372.079211
0.239,-0.02025,-0.025,-0.002365,0.00148,-0.0057372497,1742093372.094422
0.24175,-0.03125,-0.025,0.0005035,0.000824,-0.0063477503,1742093372.108292
0.24425,-0.036,-0.0325,0.0009765,0.00062550005,-0.00585925,1742093372.122688
0.24525,-0.02925,-0.035,0.0011445,0.000534,-0.004776,1742093372.137205
0.24575,-0.021,-0.03525,0.000885,0.00074775,-0.00263975,1742093372.1518211
0.24075,-0.01025,-0.03475,0.00067150005,0.001068,-0.00238025,1742093372.166334
0.236,-0.0105,-0.03475,0.00074775,0.001419,-0.00340275,1742093372.180821
0.2325,-0.02225,-0.03575,0.0013580001,0.0012817499,-0.0042725,1742093372.19524
0.231,-0.029,-0.04225,0.0026245,0.00061025,-0.0049285004,1742093372.2097652
0.2355,-0.03175,-0.0525,0.00251775,4.575e-05,-0.0039825,1742093372.224951
0.2395,-0.02575,-0.05125,0.00190725,-0.0004425,-0.00198375,1742093372.238797
0.238,-0.01375,-0.048,0.00177,-0.0002595,-0.00213625,1742093372.2541828
0.23525,-0.015,-0.04675,0.0017242499,-0.000122000005,-0.00289925,1742093372.267785
0.2315,-0.0185,-0.04775,0.00177,-0.000229,-0.0044555003,1742093372.28338
0.225,-0.028,-0.05925,0.00157175,-0.00024425,-0.0047455,1742093372.296809
0.2225,-0.03475,-0.069,0.0013427499,-0.0002135,-0.00364675,1742093372.3115652
0.2215,-0.03725,-0.0845,0.00149525,-0.000534,-0.00254825,1742093372.326136
0.2245,-0.03,-0.08775,0.00163275,-0.00154125,-0.000824,1742093372.3407319
0.22975,-0.01525,-0.0925,0.0014037499,-0.0018005001,-0.000534,1742093372.355228
0.23525,-0.0155,-0.0965,0.00125125,-0.00148,-0.0013427499,1742093372.3698251
0.24325,-0.02125,-0.115,0.00181575,-0.000763,-0.002411,1742093372.384341
0.243,-0.02075,-0.13275,0.0020752498,0.0011445,-0.0035095,1742093372.398827
0.2345,-0.017,-0.1915,0.0012817499,0.00245675,-0.0028687501,1742093372.4136808
0.22625,-0.01725,-0.23875,0.00035100002,0.0043182503,-0.001892,1742093372.4277031
0.2185,-0.01375,-0.29725,0.002884,0.008194,-0.00109875,1742093372.442225
0.20425,-0.00675,-0.432,0.00469975,0.010589501,-0.0013885,1742093372.4567602
0.1785,-0.0045,-0.496,-0.00378425,0.01882925,0.00646975,1742093372.471158
0.0485,-0.025,-0.5725,-0.00868225,0.02130125,0.01605225,1742093372.485659
-0.0405,-0.037,-0.60125,-0.008926501,0.0157775,0.03370675,1742093372.5002182
-0.1535,0.01825,-0.578,-0.0050355,0.0044555003,0.036148,1742093372.5147252
-0.10375,0.06875,-0.4435,0.009094249,-0.03329475,0.02124025,1742093372.5291378
0.259,0.1315,0.16175,0.015213001,-0.049682498,0.0072632497,1742093372.5447512
0.49325,0.13725,0.51275,0.01440425,-0.056656,-0.0043944996,1742093372.557693
0.6655,0.107,0.77175,0.000183,-0.03288275,-0.01086425,1742093372.572077
0.73975,-0.08025,0.8405,-0.00440975,-0.01525875,-0.012557999,1742093372.586674
0.6745,-0.1755,0.7285,-0.0050202496,0.00694275,-0.01652525,1742093372.601238
0.343,-0.249,0.40725,-0.0028229998,0.01570125,-0.0134735005,1742093372.615675
0.153,-0.221,0.23275,0.00328075,0.02459725,-0.0026092501,1742093372.630147
-0.04925,-0.1065,-0.01,0.0064239996,0.022216748,0.0004425,1742093372.644641
-0.051,-0.04825,-0.05175,0.01036075,0.0064239996,0.0019685,1742093372.659148
0.06475,0.0415,-0.0295,0.01077275,-0.00254825,0.00204475,1742093372.674956
0.13425,0.067,-0.00725,0.01026925,-0.00903325,0.0016632499,1742093372.6880052
0.194,0.07425,0.0135,0.006668,-0.0128785,0.0001525,1742093372.702234
0.27625,0.0465,0.04475,0.00511175,-0.01150525,-0.00112925,1742093372.716558
0.2925,0.03,0.0465,0.0034942501,-0.0058899997,-0.0030365,1742093372.730912
0.28975,-0.00125,0.036,0.0032347501,-0.0030365,-0.00308225,1742093372.745402
0.282,-0.01075,0.03,0.004242,0.00027475,-0.0047302498,1742093372.759725
0.26925,-0.02375,0.01425,0.004303,0.00077825,-0.0052947504,1742093372.775311
0.2625,-0.031,0.00525,0.0038757501,0.00080875,-0.0047607496,1742093372.7883189
0.256,-0.0325,-0.002,0.002655,-0.00016775,-0.00160225,1742093372.802772
0.258,-0.02325,0.004,0.0020752498,-0.000946,1.5250001e-05,1742093372.817117
0.265,-0.01825,0.014,0.00146475,-0.00254825,0.000534,1742093372.83153
0.27775,-0.02175,0.02825,0.0014037499,-0.0032347501,0.00013725001,1742093372.8459039
0.2825,-0.02975,0.0305,0.0013885,-0.0033875,0.00112925,1742093372.860233
0.279,-0.032,0.0275,0.0016175,-0.00254825,0.002121,1742093372.8754408
0.27375,-0.023,0.0245,0.00163275,-0.0013885,0.0032655,1742093372.889228
0.25525,-0.01175,0.02175,0.0017852499,0.00083925005,0.00646975,1742093372.904336
0.251,0.00925,0.011,0.0025940002,0.00112925,0.009369001,1742093372.917685
0.2765,0.01375,0.0045,0.001709,-0.00010675,0.008148249,1742093372.9320178
0.274,0.006,0.0105,0.0005035,-6.1000002e-05,0.0050812503,1742093372.946414
0.2695,0.00375,0.01325,-0.00090025004,0.00016775,0.00396725,1742093372.960737
0.26775,0.014,0.01175,-0.0015565,0.0005035,0.00485225,1742093372.9753458
0.262,0.01775,0.00525,-0.0020599999,0.00148,0.005249,1742093372.989196
0.253,0.01475,-0.00375,-0.001587,0.0037537501,0.0029449998,1742093373.004586
0.24775,-0.00225,-0.01975,-0.00086975005,0.004242,0.0013427499,1742093373.018206
0.25325,-0.00975,-0.02625,0.0003205,0.0038605002,0.00027475,1742093373.032625
0.25325,-0.00475,-0.03375,0.00054925,0.00331125,0.0012665,1742093373.0471292
0.25025,0.01025,-0.031,0.00024425,0.002243,0.0033264998,1742093373.061492
0.2505,0.03475,-0.018,0.00010675,0.00187675,0.0028074998,1742093373.0757298
0.2555,0.03025,-0.01225,-0.000183,0.0019989999,-0.00029,1742093373.0902
0.2615,0.003,-0.012,-0.000122000005,0.00270075,-0.001709,1742093373.1048052
0.25525,-0.00475,-0.02,-7.625e-05,0.00369275,-0.0023039998,1742093373.1193879
0.24675,-0.0035,-0.0295,-0.0015105,0.0048217503,0.00029,1742093373.134402
0.23375,0.017,-0.0365,-0.002472,0.004547,0.0019225,1742093373.148222
0.2305,0.0275,-0.03425,-0.00325,0.00325,0.00086975005,1742093373.1626308
0.2345,0.0225,-0.02925,-0.00314325,0.0027312501,-0.0016632499,1742093373.177239
0.238,0.005,-0.02975,-0.0022125002,0.002243,-0.0070342496,1742093373.191608
0.24025,-0.035,-0.0295,-0.00213625,0.00216675,-0.00747675,1742093373.206075
0.24,-0.0415,-0.02675,-0.00428775,0.0020905002,-0.0035095,1742093373.220701
0.237,-0.02225,-0.0225,-0.006256,0.00184625,-0.0013275,1742093373.2352011
0.235,-0.00625,-0.02675,-0.0070495,0.0013427499,-0.0002135,1742093373.24978
0.23475,0.00425,-0.0245,-0.00115975,9.15e-05,-0.00175475,1742093373.264216
0.2405,-0.001,-0.02125,7.625e-05,-0.00033575002,-0.003296,1742093373.279073
0.244,-0.01475,-0.02225,0.00013725001,-0.000763,-0.0055847503,1742093373.2943392
0.2475,-0.036,-0.02225,0.00057975,-0.0007325,-0.00541675,1742093373.3080142
0.249,-0.03325,-0.019,0.0013427499,-0.0002595,-0.0031585,1742093373.322461
0.2445,-0.0065,-0.01775,0.0012207499,0.00013725001,-0.0022735,1742093373.3368902
0.2375,0.003,-0.024,0.00102225,0.00067150005,-0.00296025,1742093373.35131
0.22325,-0.0035,-0.03925,0.0013580001,0.0005035,-0.0044555003,1742093373.365695
0.22275,-0.017,-0.0445,0.00163275,-7.625e-05,-0.00585925,1742093373.380223
0.22725,-0.03375,-0.04875,0.001709,-0.0012970001,-0.00593575,1742093373.39473
0.233,-0.046,-0.06675,0.0020905002,-0.0012665,-0.0049742498,1742093373.4091818
0.23,-0.03625,-0.08225,0.0036315,-0.000534,-0.0041044997,1742093373.4246778
0.22875,-0.02025,-0.122,0.0046845004,-0.00030525,-0.0052337497,1742093373.4383821
0.2315,-0.022,-0.146,0.0072632497,-0.00016775,-0.00947575,1742093373.454093
0.234,-0.00425,-0.22925,0.0074920002,0.00035100002,-0.01019275,1742093373.467469
0.223,0.028,-0.30425,0.00239575,0.0048065,-0.005539,1742093373.4818969
0.1685,0.04725,-0.4855,-0.00039675,0.00788875,-0.00119025,1742093373.496405
0.1275,0.01975,-0.5595,-0.00296025,0.010101249,0.0037995,1742093373.510713
0.09375,0.00175,-0.6085,-0.0075682504,0.0076905,0.0117035,1742093373.525104
0.009,0.0045,-0.64125,-0.009521499,0.0044250004,0.0159455,1742093373.539453
-0.04025,0.01,-0.621,-0.01460275,-0.002472,0.03094475,1742093373.5542889
-0.0945,0.0685,-0.472,-0.011673001,-0.009734999,0.033203,1742093373.568504
-0.0605,0.1055,-0.30725,0.0034484998,-0.03724675,0.01899725,1742093373.584152
0.2715,0.15175,0.352,0.008377,-0.0516205,0.00770575,1742093373.5972118
0.513,0.15625,0.7205,0.0045012496,-0.04667675,-0.014724749,1742093373.6117172
0.706,-0.028,0.91875,-0.0051880004,-0.02949525,-0.014618,1742093373.6262882
0.65075,-0.15975,0.78825,-0.01216125,-0.015152001,-0.0062255003,1742093373.6408331
0.5405,-0.191,0.64325,-0.00611875,0.00567625,-0.00042725,1742093373.655376
0.28,-0.11575,0.37375,-0.00175475,0.0139770005,-0.003006,1742093373.6698089
0.15775,-0.11075,0.2265,0.00263975,0.023346001,-0.00399775,1742093373.68463
0.04175,-0.0935,0.029,0.0049285004,0.019699,-0.00314325,1742093373.698891
0.05925,-0.065,0.0025,0.008606,0.00308225,-0.000229,1742093373.714339
0.15475,-0.002,0.0165,0.0088195,-0.0025025,0.00177,1742093373.727592
0.2025,0.03025,0.0265,0.0063325,-0.0052185003,0.00384525,1742093373.7418802
0.275,0.07725,0.03775,0.0047607496,-0.0045165,0.00251775,1742093373.756198
0.29425,0.076,0.0355,0.00354,-0.0030365,-0.00045775,1742093373.770682
0.29825,0.0555,0.024,0.0028687501,0.00143425,-0.0061645,1742093373.785152
0.2795,0.00025,-0.0015,0.0030975002,0.0032655,-0.0069885002,1742093373.7994938
0.273,-0.0145,-0.005,0.002655,0.0041504996,-0.0045625,1742093373.81465
0.27275,-0.014,0.00125,0.0021057501,0.003769,-0.00270075,1742093373.8282812
0.27425,-0.00975,0.006,0.0013427499,0.003128,-0.0023345,1742093373.842603
0.2775,-0.01975,0.01575,0.00125125,0.00305175,-0.0033722501,1742093373.856889
0.2795,-0.029,0.02175,0.00131225,0.0029449998,-0.0043182503,1742093373.871238
0.2815,-0.036,0.02825,0.00125125,0.00279225,-0.003418,1742093373.885601
0.28,-0.041,0.03625,0.00115975,0.0029449998,-0.00157175,1742093373.8999119
0.27675,-0.03825,0.038,0.0013427499,0.00352475,0.0022277501,1742093373.91422
0.268,-0.01875,0.033,0.00119025,0.00393675,0.00317375,1742093373.9285278
0.26325,-0.00975,0.0265,-6.1000002e-05,0.0049285004,0.00305175,1742093373.944535
0.2525,-0.00525,0.0105,-0.00051875,0.005249,0.00231925,1742093373.957506
0.24775,-0.0095,0.00475,-0.00030525,0.00543225,0.001114,1742093373.9719198
0.241,-0.01475,0.01025,0.00112925,0.0053252503,-0.000534,1742093373.986248
0.24,-0.0115,0.015,0.00163275,0.005066,-0.00036625,1742093374.000581
0.24025,-0.0075,0.017,0.0013885,0.00491325,0.0008545,1742093374.0147462
0.239,0.0025,0.00325,0.00068675,0.0050355,0.00154125,1742093374.0289128
0.2355,0.0095,-0.00825,-0.0017395001,0.004776,0.0029907501,1742093374.044621
0.232,0.01575,-0.0175,-0.002655,0.0042267498,0.00302125,1742093374.057535
0.232,0.013,-0.01325,-0.00242625,0.0037079998,0.00193775,1742093374.0719192
0.233,0.008,-0.0075,9.15e-05,0.0044250004,-0.0022125002,1742093374.086257
0.2345,-0.00925,-0.013,0.000824,0.0052185003,-0.0038757501,1742093374.100702
0.23075,-0.0175,-0.023,0.0008545,0.0057220003,-0.0038605002,1742093374.115183
0.22275,-0.015,-0.039,0.0005035,0.0054015,-0.00228875,1742093374.129629
0.21725,-0.006,-0.043,0.00027475,0.004486,-4.575e-05,1742093374.144537
0.21425,0.001,-0.044,0.000473,0.00384525,-0.0003815,1742093374.158504
0.22,-0.00525,-0.04075,0.000946,0.0020905002,-0.002365,1742093374.173012
0.2375,-0.019,-0.03475,0.00099175,0.00149525,-0.0026245,1742093374.187495
0.24125,-0.021,-0.03325,0.00080875,0.00149525,-0.0022125002,1742093374.202
0.24275,-0.0215,-0.0325,-0.0003205,0.00270075,-0.00051875,1742093374.2164211
0.238,-0.011,-0.03525,-0.00109875,0.0034637498,4.575e-05,1742093374.230828
0.23375,-0.004,-0.0375,-0.0026092501,0.00413525,-4.575e-05,1742093374.245491
0.23625,-0.00275,-0.04025,-0.0026854998,0.0036010002,-0.00067150005,1742093374.260022
0.2395,-0.0085,-0.03575,-0.003662,0.002365,-0.0014495,1742093374.274966
0.242,-0.014,-0.04025,-0.0057372497,0.0022277501,-0.00096125,1742093374.288983
0.24225,-0.01325,-0.039,-0.0012970001,0.001953,-3.0500001e-05,1742093374.304379
0.244,-0.01,-0.0325,0.00036625,0.00184625,-0.00036625,1742093374.317903
0.2455,-0.01075,-0.0325,0.0009155,0.00169375,-0.00148,1742093374.332355
0.243,-0.01375,-0.03525,0.0015105,0.0012970001,-0.0042572496,1742093374.346837
0.24125,-0.0265,-0.03525,0.0012207499,0.00086975005,-0.00396725,1742093374.361302
0.246,-0.02725,-0.0315,0.0005645,0.00054925,-0.0012970001,1742093374.375711
0.2485,-0.007,-0.032,0.00068675,0.0007935,-0.000763,1742093374.390101
0.2465,0.0025,-0.03575,0.0009765,0.001007,-0.00228875,1742093374.404442
0.24975,-0.00575,-0.039,0.001068,0.000946,-0.00354,1742093374.418798
0.2515,-0.02,-0.04225,0.00163275,0.00108325,-0.00511175,1742093374.434001
0.247,-0.03825,-0.0505,0.0020752498,0.00112925,-0.0050202496,1742093374.447859
0.243,-0.0345,-0.052,0.0025787498,0.00099175,-0.0044250004,1742093374.463734
0.24125,-0.023,-0.0505,0.0030975002,0.00030525,-0.003006,1742093374.476795
0.2385,-0.005,-0.054,0.00267025,0.000183,-0.0027312501,1742093374.491217
0.23625,-0.0085,-0.062,0.0012665,0.000473,-0.0029145,1742093374.505685
0.2335,-0.0305,-0.085,0.00125125,0.00064075,-0.0034484998,1742093374.520087
0.23325,-0.0345,-0.10125,0.00334175,0.00119025,-0.0052642496,1742093374.534645
0.22525,-0.012,-0.145,0.00463875,0.0012665,-0.0059967497,1742093374.549064
0.224,-0.0,-0.16675,0.00491325,0.0001525,-0.00637825,1742093374.5640981
0.23175,0.01175,-0.2115,0.00485225,0.00016775,-0.00665275,1742093374.578092
0.21925,0.03325,-0.2575,0.0045777503,0.0012665,-0.00737,1742093374.594173
0.19475,0.052,-0.33525,-0.001953,0.006363,-0.0056304997,1742093374.606858
0.10675,0.035,-0.53425,-0.004837,0.0086975,-0.00143425,1742093374.621372
0.05275,0.0125,-0.61225,-0.0087585,0.00997925,0.00785825,1742093374.6356962
-0.04625,-0.02475,-0.6695,-0.009658749,0.0065765,0.01091,1742093374.650162
-0.08675,-0.03975,-0.65625,-0.011383001,-0.006363,0.023650998,1742093374.664772
-0.15825,-0.00775,-0.5325,-0.01272575,-0.014343251,0.033905,1742093374.67947
-0.1515,0.05175,-0.38275,-0.0032195,-0.039794996,0.03837575,1742093374.694483
0.1425,0.21125,0.25675,0.0085602505,-0.05603025,0.0218505,1742093374.7084649
0.41275,0.206,0.6135,0.0112,-0.0664215,0.000824,1742093374.722775
0.67,0.123,0.889,-0.0099945,-0.0435485,-0.0052947504,1742093374.737241
0.909,-0.09975,1.0,-0.015029999,-0.02500925,0.00251775,1742093374.7517388
0.789,-0.1515,0.83975,-0.0038299998,0.0113525,-0.00737,1742093374.766165
0.33125,-0.16725,0.35425,0.001068,0.0265045,-0.012375,1742093374.7804642
0.17775,-0.162,0.1935,0.0037079998,0.03459175,-0.006256,1742093374.7949922
0.066,-0.11575,0.04275,0.0056609996,0.02981575,-0.0021057501,1742093374.809275
0.0725,-0.065,0.009,0.0069580004,0.021347,0.00198375,1742093374.825251
0.1,-0.01475,-0.011,0.00621025,0.0041504996,0.00891125,1742093374.837985
0.1735,0.05775,-0.02525,0.00570675,-0.00143425,0.008712751,1742093374.852293
0.2165,0.07875,-0.01125,0.004242,-0.0061950004,0.0020599999,1742093374.8665578
0.2805,0.08725,0.0145,0.00302125,-0.0050355,-0.001419,1742093374.880877
0.28275,0.073,0.0105,0.0009155,0.00030525,-0.00491325,1742093374.8951738
0.25925,0.025,-0.00325,0.000534,0.0022277501,-0.0061339997,1742093374.9094899
0.249,0.001,-0.00475,0.000412,0.0031127501,-0.0075072497,1742093374.925995
0.24525,-0.02225,-0.00375,0.0007935,0.00263975,-0.008407501,1742093374.938354
0.255,-0.04675,0.00425,0.00109875,0.0021972498,-0.0075225,1742093374.952686
0.26275,-0.0485,0.00925,0.00077825,0.00270075,-0.004013,1742093374.967124
0.2635,-0.04075,0.0105,0.00061025,0.00334175,-0.0025025,1742093374.981472
0.25825,-0.03675,0.009,0.0005645,0.003418,-0.001648,1742093374.995784
0.25425,-0.03125,0.016,0.00054925,0.00267025,-0.00201425,1742093375.010187
0.259,-0.02875,0.0215,0.00013725001,0.0014037499,-0.00242625,1742093375.0251572
0.2605,-0.02725,0.02375,7.625e-05,0.0016175,-0.0019685,1742093375.038783
0.2575,-0.028,0.0205,0.0001525,0.002365,-0.00131225,1742093375.0544362
0.254,-0.026,0.0185,0.00029,0.004013,-0.00064075,1742093375.067681
0.24775,-0.0145,0.01975,0.00024425,0.00460825,-0.00080875,1742093375.081982
0.24275,-0.0105,0.02025,0.00054925,0.0056609996,-0.00198375,1742093375.096267
0.2315,-0.01475,0.00725,0.0004425,0.0059967497,-0.0024872501,1742093375.110796
0.22925,-0.02575,-0.00375,-0.0002135,0.0060425,-0.0012665,1742093375.125508
0.22725,-0.0345,-0.01975,-0.00016775,0.0057372497,0.00019825,1742093375.1399791
0.2265,-0.02575,-0.022,0.000183,0.00541675,0.00148,1742093375.1543229
0.226,-0.013,-0.019,0.00163275,0.00485225,0.00169375,1742093375.168704
0.235,0.00625,-0.0105,0.0021972498,0.0045777503,0.00039675,1742093375.184003
0.23875,0.00575,-0.015,0.0022125002,0.0050202496,-0.0028535,1742093375.19729
0.237,-0.01575,-0.03775,0.0015565,0.0054475004,-0.0031585,1742093375.21179
0.23575,-0.0255,-0.047,0.00057975,0.0055085,-0.0007935,1742093375.226279
0.23225,-0.0175,-0.0505,0.00068675,0.0051574996,0.00051875,1742093375.240681
0.22925,-0.0035,-0.04775,-0.000122000005,0.00428775,9.15e-05,1742093375.255121
0.2285,0.00225,-0.041,-0.0016632499,0.00413525,-0.0012817499,1742093375.26962
0.23025,-0.00725,-0.04525,-0.0034942501,0.0042267498,-0.00254825,1742093375.284191
0.22975,-0.0195,-0.054,-0.0024872501,0.0043944996,-0.0024872501,1742093375.298878
0.22475,-0.03375,-0.06,0.000229,0.004303,-0.0013580001,1742093375.314189
0.22625,-0.028,-0.05775,0.0021515,0.00305175,6.1000002e-05,1742093375.3276951
0.22825,0.00025,-0.0495,0.00204475,0.00204475,-0.000412,1742093375.3421068
0.229,0.0045,-0.046,0.0012970001,0.00048825,-0.00184625,1742093375.356491
0.2385,-0.01775,-0.04025,0.0010375,0.000473,-0.0023497501,1742093375.371099
0.23975,-0.0335,-0.042,0.00160225,0.0016785001,-0.00245675,1742093375.3856168
0.2365,-0.03975,-0.0555,0.00201425,0.002365,-0.001526,1742093375.400067
0.23325,-0.02575,-0.06175,0.00242625,0.0026854998,-0.00042725,1742093375.414596
0.23025,-0.00625,-0.06475,0.0028229998,0.0019225,-0.00039675,1742093375.4291809
0.23425,0.01,-0.063,0.0025634998,0.00125125,-0.0014037499,1742093375.4445179
0.23925,0.0005,-0.061,0.002472,0.0008545,-0.00334175,1742093375.458174
0.2415,-0.02825,-0.05675,0.002884,0.00108325,-0.0037385002,1742093375.4725702
0.241,-0.035,-0.05575,0.004013,0.0013275,-0.0036315,1742093375.487061
0.238,-0.02925,-0.05675,0.0042572496,0.0014495,-0.00325,1742093375.501622
0.2345,-0.024,-0.05875,0.0038757501,0.00187675,-0.0017395001,1742093375.516046
0.2325,-0.021,-0.0635,0.00364675,0.00198375,-0.00108325,1742093375.530574
0.2315,-0.01925,-0.067,0.0035704998,0.0020599999,-0.0008545,1742093375.546299
0.22825,-0.01825,-0.0715,0.00325,0.00254825,-0.001068,1742093375.5595992
0.2255,-0.02575,-0.07825,0.0027312501,0.0031889998,-0.00096125,1742093375.57534
0.2225,-0.0245,-0.0845,0.00148,0.0050812503,-0.00036625,1742093375.588602
0.21075,-0.012,-0.1095,0.0005645,0.0058135,7.625e-05,1742093375.604335
0.2085,-0.007,-0.12575,-0.00077825,0.00637825,0.00070200005,1742093375.6176152
0.208,0.0,-0.159,-0.00064075,0.0062712496,0.000946,1742093375.6319768
0.2085,0.00375,-0.175,0.00027475,0.00543225,0.0001525,1742093375.646196
0.20675,0.02275,-0.219,0.0004425,0.0052947504,-0.00119025,1742093375.660609
0.19825,0.04175,-0.25775,0.00013725001,0.006012,-0.00289925,1742093375.675366
0.181,0.06125,-0.309,-0.00146475,0.00912475,-0.0058287503,1742093375.689467
0.1395,0.05875,-0.43375,-0.00083925005,0.00930775,-0.0059510004,1742093375.704392
0.10625,0.03775,-0.51125,-0.0041504996,0.010757499,-0.0017242499,1742093375.71837
-0.01675,0.024,-0.6205,-0.009079001,0.0122985,0.0042115003,1742093375.734145
-0.09075,0.025,-0.637,-0.014724749,0.00434875,0.02224725,1742093375.747369
-0.20075,0.02175,-0.57575,-0.013839751,-0.0069885002,0.028289748,1742093375.761909
-0.214,0.02075,-0.47825,-0.00494375,-0.0414735,0.0237275,1742093375.7764769
-0.0605,0.03075,-0.0515,0.000946,-0.05941775,0.01791375,1742093375.790963
0.1675,0.0435,0.327,0.00585925,-0.0726775,0.0119934995,1742093375.805204
0.46375,0.0635,0.6915,0.001953,-0.06672675,0.002365,1742093375.819454
0.8865,0.01875,1.0,-0.0072175004,-0.04426575,0.00408925,1742093375.834552
0.93325,-0.0555,0.96425,-0.010162249,-0.0058135,0.002365,1742093375.848365
0.64425,-0.152,0.609,-0.00296025,0.0072785,-0.00817875,1742093375.864501
0.414,-0.185,0.38575,0.00485225,0.02749625,-0.016235251,1742093375.877255
0.105,-0.16575,0.0505,0.0046845004,0.03182975,-0.01019275,1742093375.891715
0.049,-0.10725,-0.029,0.0051269997,0.030304002,-0.003128,1742093375.9061902
0.03525,-0.0465,-0.067,0.00697325,0.015594499,0.0053252503,1742093375.920623
0.093,0.0255,-0.08,0.007019,0.0070952503,0.00697325,1742093375.934871
0.15225,0.0485,-0.06175,0.0052947504,-0.0062255003,0.0071105,1742093375.949259
0.28125,0.088,0.00875,0.0042267498,-0.009643501,0.0051269997,1742093375.964344
0.319,0.09175,0.0325,0.00231925,-0.0070495,-0.0014495,1742093375.9779682
0.311,0.0585,0.0235,0.00115975,-0.0023345,-0.00355525,1742093375.992436
0.2845,0.03375,0.00125,-0.001236,0.0052795,-0.003891,1742093376.006879
0.238,-0.0075,-0.03525,-0.00125125,0.00587475,-0.0045165,1742093376.02142
0.22875,-0.02575,-0.04225,-0.00062550005,0.004776,-0.0057220003,1742093376.035997
0.22975,-0.04025,-0.0395,-0.00013725001,0.00169375,-0.0050812503,1742093376.050438
0.24575,-0.0435,-0.0155,-0.00039675,0.001007,-0.0034484998,1742093376.0651891
0.2525,-0.03875,-0.005,-0.00067150005,0.00105275,-0.0016632499,1742093376.079792
0.25725,-0.033,0.004,-0.000229,0.0014495,-0.002121,1742093376.094395
0.25175,-0.032,0.0025,0.000412,0.0020295,-0.0031889998,1742093376.1087859
0.25,-0.0355,0.00125,-3.0500001e-05,0.0018615,-0.00238025,1742093376.1231732
0.2535,-0.03325,0.00025,-0.00080875,0.0013580001,0.00035100002,1742093376.137682
0.253,-0.01725,-0.0015,-0.00051875,0.00137325,0.001236,1742093376.1521091
0.25225,-0.0085,0.003,3.0500001e-05,0.001648,0.0013275,1742093376.16644
0.24975,-0.00325,0.00875,0.00096125,0.0028535,-0.0007935,1742093376.1809
0.24475,-0.01475,0.01475,0.00112925,0.0034484998,-0.0021057501,1742093376.195283
0.2435,-0.02875,0.01075,0.0020295,0.0044250004,-0.0033722501,1742093376.2096891
0.23575,-0.03875,-0.00625,0.00251775,0.00485225,-0.0026854998,1742093376.2256918
0.23275,-0.02725,-0.01175,0.0024872501,0.00541675,-4.575e-05,1742093376.238593
0.228,0.00675,-0.0195,0.002121,0.0053252503,0.00051875,1742093376.254296
0.22775,0.01375,-0.02375,0.00154125,0.0049590003,0.00035100002,1742093376.2672
0.23,-0.0025,-0.0295,0.00067150005,0.0040435,-0.00090025004,1742093376.281665
0.2265,-0.015,-0.03175,0.00059500005,0.0037537501,-0.001114,1742093376.296034
0.224,-0.022,-0.03225,0.001587,0.00334175,-0.0005035,1742093376.310595
0.226,-0.00725,-0.03125,0.00216675,0.0031889998,-0.0009155,1742093376.325034
0.22625,0.00625,-0.03225,7.625e-05,0.00340275,-0.0025787498,1742093376.3394501
0.22725,0.0105,-0.04025,-0.00242625,0.00372325,-0.00317375,1742093376.3542972
0.22625,-0.003,-0.04875,-0.0042115003,0.0043182503,-0.00317375,1742093376.3685691
0.224,-0.03875,-0.057,-0.00074775,0.00453175,-0.0028535,1742093376.384012
0.2235,-0.046,-0.05725,0.0021515,0.004593,-0.0023039998,1742093376.397687
0.22725,-0.0275,-0.0595,0.0033875,0.003418,-0.0001525,1742093376.412065
0.23525,-0.0105,-0.05625,0.0033264998,0.00238025,0.001236,1742093376.426446
0.242,0.0055,-0.053,0.0031585,0.002243,0.0013580001,1742093376.440799
0.24425,0.01075,-0.0545,0.00296025,0.0032655,-0.0002595,1742093376.455276
0.23925,-0.005,-0.05875,0.0029449998,0.0046234997,-0.00367725,1742093376.46978
0.23025,-0.03825,-0.066,0.0029755002,0.0044707498,-0.0037079998,1742093376.4845471
0.227,-0.04025,-0.06725,0.0031585,0.0034637498,-0.0007935,1742093376.499087
0.22825,-0.01725,-0.06425,0.003128,0.0028535,0.00057975,1742093376.514096
0.2325,-0.00475,-0.06275,0.0030365,0.00242625,0.00090025004,1742093376.52786
0.23375,-0.004,-0.065,0.0033264998,0.0021057501,-0.00149525,1742093376.5423622
0.23475,-0.01575,-0.0655,0.00354,0.0017395001,-0.0028229998,1742093376.55677
0.239,-0.02925,-0.064,0.0036010002,0.0012665,-0.0029755002,1742093376.571239
0.24125,-0.0365,-0.06225,0.0034790002,0.001648,-0.001831,1742093376.585788
0.23825,-0.02475,-0.064,0.00245675,0.00270075,0.00154125,1742093376.60017
0.23525,-0.0005,-0.06625,0.00160225,0.00289925,0.002655,1742093376.614599
0.2365,-0.0005,-0.067,0.0005645,0.00276175,0.00216675,1742093376.628978
0.2395,-0.02,-0.06875,0.0011445,0.0025634998,0.00071725,1742093376.643929
0.23975,-0.02825,-0.0705,0.00242625,0.0023497501,-0.001007,1742093376.657871
0.23825,-0.0315,-0.0735,0.00463875,0.0023039998,-0.0032195,1742093376.672344
0.22775,-0.024,-0.08375,0.00463875,0.0026245,-0.0027312501,1742093376.68685
0.223,-0.01675,-0.09025,0.00340275,0.00320425,-0.00042725,1742093376.701337
0.2175,-0.01175,-0.109,0.00302125,0.0030669998,-6.1000002e-05,1742093376.715874
0.2185,-0.016,-0.119,0.00331125,0.0020905002,-0.000946,1742093376.730453
0.2215,-0.02225,-0.1425,0.0039215,0.001648,-0.0014495,1742093376.7449899
0.219,-0.01475,-0.1595,0.0043335,0.00119025,-0.0005035,1742093376.759427
0.216,0.0155,-0.2005,0.00364675,0.00108325,0.00048825,1742093376.773673
0.217,0.03375,-0.23225,0.0027160002,0.0013275,0.000885,1742093376.787853
0.21375,0.05175,-0.2805,-4.575e-05,0.00570675,-0.00169375,1742093376.802376
0.164,0.08125,-0.439,-0.001419,0.009734999,-0.00367725,1742093376.816799
0.111,0.08575,-0.53,-0.0009155,0.0129395,-0.00181575,1742093376.831342
-0.03675,0.0965,-0.6785,-0.0055237496,0.011856,0.0044707498,1742093376.845859
-0.11475,0.09525,-0.7005,-0.019012501,0.00381475,0.027771,1742093376.8603818
-0.26175,0.1,-0.65125,-0.02247625,-0.0035095,0.03889475,1742093376.875252
-0.33625,0.103,-0.577,-0.01716625,-0.02958675,0.0415955,1742093376.889566
-0.2975,0.0455,-0.18075,-0.009017999,-0.051239,0.033966,1742093376.9045372
-0.0365,0.024,0.2385,0.0007935,-0.075210504,0.02336125,1742093376.918445
0.3775,0.0725,0.711,0.00531,-0.0960235,0.0012055,1742093376.934249
1.0,0.16875,1.0,-0.00384525,-0.074997,-0.0048217503,1742093376.947361
1.0,0.07925,1.0,-0.014587499,-0.01380925,-0.009521499,1742093376.9618702
0.61275,-0.186,0.649,-0.009201,0.00517275,-0.015213001,1742093376.9763782
0.40125,-0.24375,0.4425,0.0023039998,0.02557375,-0.01930225,1742093376.990756
0.15475,-0.215,0.116,0.00463875,0.02996825,-0.0126495,1742093377.00529
0.097,-0.1455,0.017,0.0064850003,0.027237,0.00340275,1742093377.0195892
0.0665,-0.015,-0.07225,0.00741575,0.01950075,0.0064545004,1742093377.0350862
0.0925,0.0165,-0.077,0.008514499,0.01036075,0.00621025,1742093377.048324
0.14175,0.0365,-0.06025,0.0086975,-0.00328075,0.0046234997,1742093377.063956
0.25325,0.089,0.004,0.0075682504,-0.0064850003,0.0042267498,1742093377.0770612
0.28675,0.11525,0.02375,0.004486,-0.0067597497,0.0004425,1742093377.0913348
0.299,0.11075,0.02625,0.00283825,-0.0047455,-0.002472,1742093377.105751
0.29,0.08575,0.01825,0.00035100002,-7.625e-05,-0.0079345,1742093377.1201339
0.2655,0.02,0.00125,-0.00048825,0.0014037499,-0.009140001,1742093377.134794
0.254,-0.01125,-0.00675,-0.0011445,0.0021057501,-0.008773751,1742093377.149143
0.244,-0.0335,-0.01375,-0.0016175,0.00148,-0.00485225,1742093377.164705
0.23525,-0.03425,-0.01375,-0.00157175,0.000473,-0.0026092501,1742093377.178161
0.24125,-0.02425,-0.00275,-0.00148,-0.0010375,-0.00071725,1742093377.194537
0.25125,-0.0145,0.01125,-0.0012970001,-0.00083925005,-0.0013580001,1742093377.2073321
0.24725,-0.01875,0.00825,-0.00119025,0.001068,-0.001892,1742093377.221855
0.2405,-0.02975,0.00625,-0.001175,0.00190725,-0.0007935,1742093377.23634
0.24275,-0.0265,0.0075,-0.0007325,0.002777,0.0021515,1742093377.250738
0.245,-0.005,0.00825,-0.00030525,0.00328075,0.0030669998,1742093377.2651489
0.24475,0.006,0.00775,0.00019825,0.00384525,0.0029907501,1742093377.279265
0.2445,0.01275,0.006,0.0012207499,0.00491325,7.625e-05,1742093377.294322
0.24125,0.0055,0.001,0.00149525,0.00541675,-0.00157175,1742093377.307847
0.23875,-0.0025,-0.00225,0.001175,0.005844,-0.00292975,1742093377.322321
0.23425,-0.01225,-0.01225,0.000885,0.0059205,-0.00231925,1742093377.336818
0.2305,-0.008,-0.01625,0.00090025004,0.00596625,-0.00019825,1742093377.351244
0.22975,0.00725,-0.01875,0.00115975,0.0057525,4.575e-05,1742093377.3655639
0.23125,0.00925,-0.01975,0.002243,0.0052185003,-0.00204475,1742093377.379937
0.2295,-0.005,-0.026,0.002884,0.0050202496,-0.003662,1742093377.395041
0.225,-0.01625,-0.0305,0.0032347501,0.0048217503,-0.00453175,1742093377.408826
0.22225,-0.02475,-0.032,0.002777,0.0041810004,-0.0023497501,1742093377.423319
0.229,-0.02075,-0.02525,0.00228875,0.0037385002,-0.00045775,1742093377.437828
0.23325,-0.01075,-0.0245,0.00190725,0.0034942501,0.0007935,1742093377.452275
0.2325,-0.001,-0.0315,0.0021972498,0.00372325,0.00024425,1742093377.4666922
0.23325,-0.00125,-0.03325,0.0025940002,0.00378425,-0.00146475,1742093377.4812338
0.23675,-0.00025,-0.034,0.00216675,0.00364675,-0.0020295,1742093377.49575
0.23625,0.00025,-0.03675,0.00125125,0.0035704998,-0.0020905002,1742093377.51015
0.2325,0.00775,-0.03775,-0.00102225,0.0034790002,-0.00077825,1742093377.5245728
0.23425,0.0115,-0.04125,-0.00343325,0.0033570002,-9.15e-05,1742093377.5390022
0.24125,0.01075,-0.04225,-0.00062550005,0.00267025,-0.000946,1742093377.5545092
0.2495,0.00375,-0.03625,0.00231925,0.0028229998,-0.00283825,1742093377.567843
0.24375,-0.003,-0.0435,0.00328075,0.00372325,-0.00567625,1742093377.5822499
0.23725,-0.02375,-0.056,0.0025787498,0.00364675,-0.00491325,1742093377.596737
0.241,-0.02875,-0.05475,0.00251775,0.002533,-0.00125125,1742093377.611249
0.251,-0.00975,-0.0485,0.00314325,0.0020295,-0.00035100002,1742093377.625739
0.25225,0.00425,-0.047,0.00384525,0.00187675,-0.0005645,1742093377.6402152
0.249,0.014,-0.047,0.00453175,0.00225825,-0.00314325,1742093377.654637
0.24225,0.00825,-0.0455,0.00428775,0.00242625,-0.0043182503,1742093377.6689641
0.24325,-0.0065,-0.0455,0.00354,0.00270075,-0.00469975,1742093377.6844869
0.2445,-0.03025,-0.0475,0.003418,0.00283825,-0.0037385002,1742093377.697845
0.2435,-0.02925,-0.0495,0.0036010002,0.003006,-0.0011445,1742093377.712281
0.2365,-0.013,-0.05125,0.00378425,0.002884,-0.00027475,1742093377.726758
0.23725,-0.006,-0.04825,0.00419625,0.0023345,-0.00027475,1742093377.741258
0.2425,-0.00275,-0.049,0.0044555003,0.00242625,-0.0012970001,1742093377.755748
0.24025,-0.00875,-0.0555,0.004593,0.00279225,-0.00245675,1742093377.7702432
0.2365,-0.01775,-0.06325,0.0045777503,0.003296,-0.00302125,1742093377.784794
0.23775,-0.024,-0.0715,0.0047150003,0.003128,-0.002472,1742093377.799233
0.2385,-0.01575,-0.0745,0.00494375,0.0028229998,-0.00148,1742093377.8143811
0.23425,0.0045,-0.08575,0.00434875,0.00289925,-0.0012665,1742093377.8281658
0.232,0.0035,-0.09475,0.002533,0.0033264998,-0.00108325,1742093377.844331
0.23375,-0.01375,-0.11525,0.002243,0.0035095,-0.00125125,1742093377.857214
0.23125,-0.015,-0.1285,0.00296025,0.003662,-0.0022125002,1742093377.871723
0.21925,0.0015,-0.15875,0.0028687501,0.0032655,-0.002121,1742093377.886208
0.217,0.00975,-0.176,0.00231925,0.0025787498,-0.0014037499,1742093377.900597
0.21425,0.016,-0.19625,0.0017395001,0.0020295,-0.00045775,1742093377.915031
0.18425,0.03675,-0.26475,0.001526,0.00279225,-0.00090025004,1742093377.9294279
0.15975,0.0505,-0.31675,-0.000824,0.0040435,-0.00062550005,1742093377.944712
0.1245,0.07625,-0.421,-0.00108325,0.0025787498,0.00067150005,1742093377.9584582
0.093,0.09225,-0.48125,-0.01142875,0.0018005001,0.00640875,1742093377.973165
0.00775,0.0755,-0.5525,-0.017517,0.002121,0.011306751,1742093377.9874911
-0.06375,0.0405,-0.5725,-0.015518251,-0.00402825,0.0199585,1742093378.002147
-0.23425,0.0115,-0.54775,-0.010604749,-0.01396175,0.0240325,1742093378.016669
-0.253,0.05525,-0.44875,-0.0070952503,-0.0296325,0.026245002,1742093378.031358
-0.09375,0.14475,-0.0365,-0.0037537501,-0.06517025,0.017700251,1742093378.046008
0.08575,0.12675,0.293,-0.00019825,-0.07658375,0.01095575,1742093378.060461
0.33075,0.09975,0.66275,-0.00042725,-0.07164,0.005249,1742093378.075148
0.85425,0.0685,1.0,-0.0068665,-0.05706775,0.004776,1742093378.08932
0.93875,0.0045,1.0,-0.00868225,-0.01599125,-0.008850001,1742093378.104406
0.619,-0.184,0.6205,-0.003296,0.00372325,-0.016739,1742093378.1183841
0.39275,-0.2305,0.37075,0.00157175,0.031066999,-0.0138702495,1742093378.134347
0.126,-0.19675,0.04725,0.00193775,0.0358125,-0.0066985004,1742093378.147159
0.08525,-0.14025,-0.01575,0.0033722501,0.03408825,-0.000946,1742093378.1615648
0.10225,-0.02225,-0.05475,0.0057525,0.016983,0.0046845004,1742093378.1760042
0.1355,0.0235,-0.05425,0.005539,0.007553,0.00621025,1742093378.190231
0.17825,0.06075,-0.037,0.00352475,-0.0038757501,0.00538625,1742093378.2047648
0.26975,0.1055,0.02825,0.00263975,-0.00570675,0.002121,1742093378.219329
0.29425,0.102,0.0465,0.0021057501,-0.00296025,-0.00596625,1742093378.234714
0.2875,0.0535,0.042,0.0018615,-0.00030525,-0.00842275,1742093378.2481542
0.2745,0.02725,0.034,0.0010375,0.0031585,-0.009445249,1742093378.2625868
0.25625,-0.0155,0.026,0.00065625,0.0039825,-0.0085602505,1742093378.276948
0.252,-0.0315,0.023,0.000229,0.0045625,-0.006775,1742093378.29136
0.24925,-0.04075,0.01875,-0.00024425,0.0055695,-0.0022735,1742093378.3058372
0.24175,-0.0335,0.00675,-0.0002595,0.00570675,-0.00054925,1742093378.3202739
0.23875,-0.0225,0.00375,-0.00071725,0.0045165,0.001419,1742093378.334837
0.241,-0.005,0.01125,-0.00108325,0.0035095,0.00148,1742093378.349025
0.24425,-0.0,0.01925,-0.00146475,0.0016632499,-0.00070200005,1742093378.3645902
0.252,-0.00025,0.0325,-0.0017242499,0.0012970001,-0.0021972498,1742093378.3780239
0.254,-0.01,0.03375,-0.00225825,0.0019685,-0.0031127501,1742093378.392572
0.25425,-0.0365,0.034,-0.001831,0.00279225,-0.002777,1742093378.407039
0.25325,-0.0405,0.032,-0.00096125,0.0037079998,-0.0023497501,1742093378.421532
0.251,-0.0335,0.02675,0.00059500005,0.00596625,-0.001709,1742093378.436051
0.2355,-0.0015,0.0095,0.0008545,0.00712575,-0.0013580001,1742093378.450476
0.2295,0.00925,0.0025,0.00059500005,0.007965,-0.0011445,1742093378.464837
0.2315,0.00525,-0.00275,0.000534,0.007782,-0.0015105,1742093378.479279
0.237,-0.002,-0.00225,0.00143425,0.0072937496,-0.0034637498,1742093378.494467
0.24125,-0.01925,-0.0075,0.0021515,0.00738525,-0.0047150003,1742093378.508245
0.23575,-0.02725,-0.01275,0.003006,0.0081635,-0.0047607496,1742093378.522722
0.23025,-0.02175,-0.026,0.00308225,0.00846875,-0.0035704998,1742093378.537232
0.22775,-0.0095,-0.0325,0.00289925,0.008636501,-0.00225825,1742093378.551753
0.228,-0.0015,-0.03775,0.001526,0.008285499,-0.00042725,1742093378.566197
0.236,-0.0065,-0.04325,0.00102225,0.0078735,-0.000183,1742093378.5807831
0.23825,-0.011,-0.04475,0.001648,0.0073547503,-0.0012970001,1742093378.595276
0.23575,-0.01175,-0.04325,0.0023039998,0.00712575,-0.0022735,1742093378.609761
0.23625,-0.0095,-0.039,0.00070200005,0.0065917503,-0.0029755002,1742093378.625691
0.236,-0.00525,-0.03975,-0.00090025004,0.00668325,-0.002655,1742093378.638747
0.23025,-0.00725,-0.0445,-0.0021057501,0.0068512503,-0.0021057501,1742093378.654277
0.22775,-0.02225,-0.05475,-0.003891,0.0065765,-0.001587,1742093378.667968
0.2345,-0.02975,-0.054,-0.0031889998,0.005844,-0.00109875,1742093378.682559
0.241,-0.03225,-0.04875,0.00317375,0.0044250004,-0.0013427499,1742093378.6970491
0.2415,-0.02325,-0.047,0.00440975,0.00434875,-0.001587,1742093378.711576
0.236,-0.014,-0.04925,0.00390625,0.0046845004,-0.00080875,1742093378.726037
0.2315,-0.00275,-0.0515,0.0031127501,0.0045777503,-0.00013725001,1742093378.740797
0.2355,-0.0075,-0.05175,0.00254825,0.0041810004,0.000183,1742093378.755157
0.243,-0.022,-0.056,0.003006,0.00411975,-0.00019825,1742093378.769563
0.2425,-0.02575,-0.05975,0.0041810004,0.00381475,-0.00059500005,1742093378.784249
0.241,-0.01725,-0.0595,0.00444025,0.0033875,-0.0002595,1742093378.7985501
0.24225,-0.00625,-0.055,0.00444025,0.0028535,0.00013725001,1742093378.814421
0.2445,0.00425,-0.05025,0.0038605002,0.002365,-0.0002595,1742093378.8272262
0.24725,0.0,-0.05025,0.0035704998,0.00270075,-0.00115975,1742093378.8417459
0.24475,-0.0125,-0.05675,0.0037995,0.0041044997,-0.00276175,1742093378.8562582
0.2345,-0.03225,-0.0735,0.0039825,0.0044250004,-0.0027312501,1742093378.870741
0.233,-0.034,-0.0775,0.004074,0.00358575,-0.00096125,1742093378.885248
0.233,-0.018,-0.0805,0.0040587503,0.00314325,-0.00016775,1742093378.8997371
0.22775,-0.01125,-0.08275,0.0040435,0.0032655,-0.0002135,1742093378.914185
0.222,-0.02075,-0.09025,0.004074,0.0031889998,-0.00051875,1742093378.9287412
0.2245,-0.028,-0.095,0.0043182503,0.002884,-0.00064075,1742093378.944244
0.22775,-0.0285,-0.10175,0.0049895,0.00263975,-0.00071725,1742093378.957736
0.2255,-0.01425,-0.1215,0.0048065,0.0029907501,-0.000534,1742093378.97223
0.223,-0.0075,-0.13275,0.0030669998,0.0040435,0.00048825,1742093378.9866629
0.2215,-0.00275,-0.159,0.00184625,0.0043944996,0.00090025004,1742093379.001266
0.222,-0.00525,-0.175,0.00029,0.00494375,0.0013275,1742093379.015923
0.21225,-0.001,-0.219,0.00019825,0.0052947504,0.00125125,1742093379.030066
0.19925,0.01075,-0.24875,0.00039675,0.0057372497,0.000183,1742093379.044781
0.16275,0.04125,-0.3195,-1.5250001e-05,0.0050202496,-0.0003205,1742093379.058872
0.152,0.04975,-0.3555,-0.00083925005,0.00369275,-0.00054925,1742093379.074901
0.146,0.0535,-0.39075,-0.00057975,0.0008545,-3.0500001e-05,1742093379.0877771
0.08925,0.06075,-0.4815,-0.0042572496,0.00231925,0.001648,1742093379.102157
0.02925,0.064,-0.53725,-0.0144805005,0.00466925,0.012985251,1742093379.116461
-0.1255,0.0635,-0.60325,-0.01634225,0.0009765,0.021209748,1742093379.1310341
-0.193,0.0715,-0.58175,-0.01481625,-0.01855475,0.029892,1742093379.1456692
-0.19175,0.0645,-0.3455,-0.010727,-0.0333405,0.02749625,1742093379.160328
-0.073,0.0605,-0.1105,0.0050812503,-0.061493002,0.0099945,1742093379.175333
0.378,0.10225,0.52825,0.0088805,-0.06808475,0.00108325,1742093379.189135
0.61225,0.118,0.788,0.00419625,-0.065780744,-0.0019225,1742093379.204424
0.7445,0.096,0.901,-0.014800999,-0.03323375,0.0033875,1742093379.2179651
0.72,-0.04775,0.7725,-0.018127501,-0.0113525,0.0049590003,1742093379.232377
0.6255,-0.106,0.63725,-0.0066985004,0.014587499,-0.00437925,1742093379.24683
0.33425,-0.14575,0.29775,0.00160225,0.019470248,-0.010024999,1742093379.261182
0.1985,-0.13875,0.14025,0.00794975,0.020049999,-0.0055237496,1742093379.275437
0.0725,-0.09075,-0.037,0.007019,0.016296498,0.00163275,1742093379.289938
0.07075,-0.0525,-0.06475,0.0059815003,0.0061035,0.0099945,1742093379.304627
0.13175,0.03025,-0.05925,0.0060425,0.00137325,0.00982675,1742093379.318672
0.17975,0.06475,-0.04025,0.00593575,-0.00320425,0.00715625,1742093379.3343098
0.22475,0.0855,-0.0195,0.00514225,-0.009430001,-0.00119025,1742093379.347573
0.27775,0.08275,0.014,0.00411975,-0.0091095,-0.003662,1742093379.361961
0.2865,0.0645,0.02075,0.0016632499,-0.003769,-0.0043335,1742093379.376485
0.278,0.0275,0.0125,0.00115975,-0.00149525,-0.0044707498,1742093379.390831
0.269,0.01875,0.004,0.00108325,-0.00051875,-0.0053405,1742093379.405257
0.26125,0.0035,-0.0,0.000885,-0.00090025004,-0.0052947504,1742093379.419737
0.26525,-0.00775,0.00525,0.000473,-0.00090025004,-0.00463875,1742093379.4346418
0.269,-0.01625,0.012,-0.000229,0.00051875,-0.00242625,1742093379.4487271
0.26825,-0.01525,0.0185,-0.00064075,0.001236,-0.00119025,1742093379.464642
0.26375,-0.00775,0.01525,-0.0016175,0.00242625,0.00057975,1742093379.4775639
0.2455,0.009,0.00125,-0.001648,0.0028229998,0.00045775,1742093379.4918761
0.23975,0.009,-0.00275,-0.000885,0.00279225,-0.0017852499,1742093379.506423
0.238,-0.0105,-0.0045,-0.0005645,0.00242625,-0.0027312501,1742093379.521121
0.23975,-0.01975,-0.003,-7.625e-05,0.00175475,-0.0019989999,1742093379.535637
0.24375,-0.0195,0.00525,7.625e-05,0.00169375,-0.00080875,1742093379.550155
0.24675,-0.01025,0.01225,9.15e-05,0.001892,0.00030525,1742093379.564519
0.24725,-0.00125,0.01775,0.00027475,0.003128,0.000534,1742093379.5788019
0.243,-0.0015,0.015,0.0004425,0.0036315,-0.0002595,1742093379.594383
0.24125,-0.01075,0.00825,0.0013275,0.0041044997,-0.0013275,1742093379.607455
0.2345,-0.0155,-0.00275,0.0020752498,0.0041044997,-0.00119025,1742093379.6219342
0.23725,-0.007,-0.0025,0.0026245,0.00372325,-0.0003205,1742093379.6364548
0.2425,0.01425,0.0,0.0021819999,0.00372325,3.0500001e-05,1742093379.650749
0.245,0.0165,0.00175,0.00149525,0.004013,0.0003205,1742093379.665057
0.24225,0.005,-0.00325,0.00099175,0.0057220003,-0.00033575002,1742093379.679429
0.23625,-0.00725,-0.01,0.0013275,0.006546,-0.00112925,1742093379.694727
0.23375,-0.01975,-0.016,0.0026854998,0.0068207504,-0.00148,1742093379.7085671
0.2345,-0.019,-0.028,0.0036315,0.006607,-0.001236,1742093379.725089
0.23175,-0.005,-0.03225,0.0042267498,0.0062407497,-0.00035100002,1742093379.7375412
0.22925,0.01925,-0.03525,0.0035095,0.0062407497,-3.0500001e-05,1742093379.751968
0.229,0.017,-0.03825,0.0017242499,0.00668325,-0.0004425,1742093379.766318
0.2275,-0.00275,-0.0495,0.001114,0.0068207504,-0.00096125,1742093379.780808
0.22775,-0.011,-0.05475,0.0013885,0.0065612504,-0.00149525,1742093379.795275
0.22875,-0.01525,-0.0575,0.0037995,0.0050355,-0.001831,1742093379.809729
0.23275,-0.0065,-0.051,0.00381475,0.0042572496,-0.0012055,1742093379.8260071
0.237,0.0095,-0.0515,-0.00090025004,0.003769,0.0009765,1742093379.838562
0.24175,0.0385,-0.05175,0.0008545,0.0037385002,0.00112925,1742093379.8545659
0.2395,0.039,-0.05325,0.00354,0.00440975,-0.00074775,1742093379.867157
0.231,0.0125,-0.06575,0.0032347501,0.0046845004,-0.0017852499,1742093379.881452
0.22975,-0.00175,-0.069,0.00320425,0.0036315,-0.00190725,1742093379.895922
0.23575,-0.00675,-0.06375,0.003769,0.00251775,-0.00109875,1742093379.910441
0.24175,0.00375,-0.05825,0.0042572496,0.00157175,-0.00019825,1742093379.925534
0.24725,0.01775,-0.05425,0.003769,0.00149525,0.00071725,1742093379.939048
0.25025,0.03475,-0.0525,0.0032347501,0.0022277501,0.00027475,1742093379.9543
0.2495,0.03075,-0.0545,0.0030669998,0.0039825,-0.002411,1742093379.967875
0.2445,0.001,-0.06275,0.00358575,0.0045012496,-0.00381475,1742093379.98233
0.23975,-0.0105,-0.0655,0.0047150003,0.00434875,-0.0042725,1742093379.996843
0.238,-0.00575,-0.065,0.00491325,0.00378425,-0.00354,1742093380.011188
0.238,0.00375,-0.06375,0.0048979996,0.0033875,-0.00289925,1742093380.025554
0.2365,0.0095,-0.06525,0.00453175,0.0037537501,-0.0030975002,1742093380.039953
0.23975,0.0,-0.0715,0.0041810004,0.0044250004,-0.0034790002,1742093380.055
0.24275,-0.01075,-0.07275,0.0042572496,0.0062712496,-0.0043182503,1742093380.0686631
0.23775,-0.0255,-0.079,0.0047607496,0.0071105,-0.0048217503,1742093380.084697
0.232,-0.02825,-0.087,0.0056304997,0.008484,-0.00466925,1742093380.097566
0.22875,-0.0195,-0.1055,0.00579825,0.009155249,-0.0034637498,1742093380.112108
0.22775,-0.006,-0.11475,0.005539,0.0102235,-0.00074775,1742093380.126562
0.21825,0.02775,-0.143,0.004776,0.010101249,-0.000122000005,1742093380.1409762
0.217,0.0375,-0.164,0.0036010002,0.00947575,-7.625e-05,1742093380.1554291
0.216,0.04875,-0.19075,0.00086975005,0.009384249,-0.00064075,1742093380.170003
0.19625,0.111,-0.2835,-0.0009765,0.011383001,-0.001419,1742093380.1845
0.1665,0.16175,-0.36325,-0.00440975,0.01800525,-0.004593,1742093380.198933
0.031,0.188,-0.566,-0.008407501,0.021698,-0.0044707498,1742093380.214529
-0.06325,0.1465,-0.654,-0.01747125,0.020629998,0.0058287503,1742093380.2279592
-0.23125,0.03975,-0.75175,-0.019134501,0.01245125,0.0138702495,1742093380.242454
-0.3135,0.00125,-0.74225,-0.01823425,-0.014557,0.0273895,1742093380.257014
-0.3865,-0.01775,-0.5445,-0.016159,-0.03338625,0.02867125,1742093380.271706
-0.328,-0.00275,-0.3315,-0.01228325,-0.055236753,0.024353001,1742093380.286454
-0.18775,0.009,-0.02575,-0.0022277501,-0.095596254,0.007431,1742093380.3009338
0.3955,0.03125,0.765,-0.00035100002,-0.1051025,0.00062550005,1742093380.3152099
0.69475,0.04975,0.98675,-0.013717749,-0.07238775,-0.0035095,1742093380.329747
0.8075,-0.04425,0.923,-0.02082825,-0.0397645,0.00794975,1742093380.3447711
0.7125,-0.07075,0.76725,-0.01322925,-0.00460825,0.01852425,1742093380.3587992
0.50125,-0.0515,0.485,-0.0021972498,0.0012207499,0.0048065,1742093380.373122
0.3775,-0.066,0.33125,0.009796251,0.01631175,-0.012741,1742093380.387529
0.1835,-0.06425,0.0745,0.0089875,0.02159125,-0.00811775,1742093380.401949
0.14225,-0.0305,0.0135,0.0080415,0.02127075,-0.0020599999,1742093380.4163032
0.12475,0.0065,-0.02,0.0076905,0.01048275,0.00308225,1742093380.4306188
0.13275,0.04075,-0.05925,0.00640875,0.00466925,0.0040587503,1742093380.445042
0.162,0.0475,-0.05475,0.004013,-0.00440975,0.0021972498,1742093380.4594529
0.25075,0.074,-0.0045,0.00325,-0.0075682504,-0.0005645,1742093380.475522
0.283,0.0865,0.01925,0.0010375,-0.00912475,-0.0046539996,1742093380.488428
0.3,0.067,0.0365,-0.0001525,-0.0077515002,-0.0056609996,1742093380.5048242
0.297,0.03675,0.0355,-0.0014037499,-0.00331125,-0.006363,1742093380.517421
0.282,-0.01325,0.02625,-0.0015565,-0.00108325,-0.0056,1742093380.532013
0.2725,-0.027,0.023,-0.00160225,0.00064075,-0.00399775,1742093380.546539
0.2655,-0.03375,0.023,-0.00119025,0.0015105,-0.00024425,1742093380.561023
0.26275,-0.02475,0.03425,-0.00062550005,0.001007,0.00125125,1742093380.575705
0.2635,-0.0115,0.04175,-0.000412,0.00083925005,0.0027312501,1742093380.5898292
0.26,0.00325,0.04175,-0.00099175,0.00160225,0.00270075,1742093380.604448
0.2555,0.00175,0.036,-0.0019685,0.00364675,0.002121,1742093380.618521
0.25075,-0.00625,0.0205,-0.001892,0.00460825,0.001953,1742093380.632912
0.2475,-0.0055,0.0155,-0.0012055,0.0054780003,0.0019685,1742093380.647489
0.2375,0.0145,0.01425,0.00057975,0.00611875,0.00190725,1742093380.6616352
0.23775,0.02475,0.01825,0.000824,0.005783,0.0017395001,1742093380.675916
0.244,0.02925,0.0235,0.00080875,0.0051269997,0.0005035,1742093380.69024
0.25525,0.017,0.026,0.0008545,0.0052185003,-0.0005035,1742093380.7047648
0.2545,0.00575,0.0235,0.00093075,0.0060882503,-0.000534,1742093380.718934
0.2475,-0.00425,0.0155,0.0013427499,0.0065002497,0.000122000005,1742093380.734505
0.2435,0.0045,0.0105,0.00201425,0.0068665,0.00051875,1742093380.747433
0.24125,0.02,0.0055,0.002411,0.00741575,0.00016775,1742093380.761576
0.2455,0.04025,-0.00525,0.001953,0.0075377496,-0.00051875,1742093380.7759218
0.2505,0.0355,-0.01,0.0012817499,0.0074004997,-0.0024872501,1742093380.7903628
0.25125,0.01425,-0.019,0.00148,0.00744625,-0.00340275,1742093380.8050072
0.24325,0.00775,-0.0225,0.0021819999,0.007843,-0.003952,1742093380.819138
0.223,0.005,-0.0255,0.00231925,0.00767525,-0.0036162501,1742093380.83429
0.2225,0.008,-0.02325,0.00238025,0.0071409997,-0.00308225,1742093380.8479302
0.232,0.012,-0.02825,0.0024414998,0.0060882503,-0.00254825,1742093380.862249
0.2355,0.008,-0.034,0.00201425,0.0059205,-0.0024414998,1742093380.87661
0.2385,0.00025,-0.037,0.00061025,0.006073,-0.0019685,1742093380.8910248
0.2405,-0.00925,-0.0355,0.0001525,0.0063934997,-0.00175475,1742093380.905462
0.2355,-0.002,-0.037,0.00039675,0.0069580004,-0.001175,1742093380.919914
0.2205,0.01825,-0.03475,0.00027475,0.0067902496,-0.00077825,1742093380.9345531
0.221,0.02175,-0.03925,-0.0037385002,0.0057372497,-0.000473,1742093380.948709
0.23575,0.01175,-0.05075,-0.00187675,0.00469975,-0.00108325,1742093380.964496
0.24375,0.00125,-0.049,0.00216675,0.003891,-0.0024872501,1742093380.977613
0.245,-0.00625,-0.04875,0.00585925,0.003952,-0.0056609996,1742093380.992119
0.2305,-0.00625,-0.053,0.0057372497,0.0043335,-0.0057525,1742093381.006635
0.224,-0.002,-0.0515,0.004486,0.0040435,-0.003296,1742093381.021125
0.224,0.01075,-0.047,0.003891,0.00367725,-0.00228875,1742093381.035542
0.2275,0.01525,-0.05025,0.0028687501,0.003662,-0.0023345,1742093381.049922
0.2335,0.003,-0.06525,0.0027465,0.0038605002,-0.00328075,1742093381.0645912
0.2345,-0.00975,-0.07,0.0034942501,0.0038605002,-0.00453175,1742093381.078841
0.232,-0.0245,-0.0685,0.00434875,0.003662,-0.00444025,1742093381.094441
0.22875,-0.021,-0.06475,0.005249,0.0033570002,-0.004013,1742093381.107709
0.2265,-0.0095,-0.06125,0.00617975,0.00213625,-0.0035095,1742093381.122188
0.2335,0.01525,-0.05575,0.0061339997,0.00148,-0.003769,1742093381.136548
0.23725,0.02,-0.0565,0.0058287503,0.0012817499,-0.0051269997,1742093381.150926
0.241,0.01125,-0.05775,0.0058899997,0.0015105,-0.0060272496,1742093381.165462
0.24325,0.00275,-0.05675,0.00646975,0.0015105,-0.00785825,1742093381.179826
0.24125,-0.00975,-0.0565,0.0065765,0.00157175,-0.008285499,1742093381.1944609
0.2365,-0.01225,-0.06125,0.0061339997,0.00184625,-0.008072,1742093381.208735
0.233,-0.01925,-0.082,0.00399775,0.0029907501,-0.0055695,1742093381.224871
0.2345,-0.01725,-0.098,0.00317375,0.0036315,-0.0041044997,1742093381.2377322
0.235,-0.01075,-0.1165,0.00267025,0.00419625,-0.003296,1742093381.25221
0.238,-0.00575,-0.15225,0.00267025,0.00393675,-0.00355525,1742093381.2667189
0.24275,-0.004,-0.17375,0.002533,0.0033570002,-0.003662,1742093381.281248
0.243,0.03875,-0.253,0.00187675,0.00399775,-0.0034790002,1742093381.295768
0.23625,0.07875,-0.3255,-0.0036010002,0.009262,-0.0041044997,1742093381.3107252
0.13675,0.13325,-0.5325,-0.00614925,0.012741,-0.00381475,1742093381.3267741
0.0385,0.1225,-0.62125,-0.00874325,0.010818499,0.0034790002,1742093381.339129
-0.10625,0.08625,-0.709,-0.01165775,0.00308225,0.00991825,1742093381.354849
-0.14375,0.084,-0.695,-0.01596075,-0.007309,0.0183715,1742093381.368395
-0.17625,0.09175,-0.63775,-0.02781675,-0.024414,0.039306752,1742093381.3841002
-0.237,0.093,-0.3745,-0.02766425,-0.032196,0.044098,1742093381.397495
-0.199,0.076,-0.132,-0.00585925,-0.05992125,0.023101749,1742093381.412122
0.179,0.038,0.511,0.0019685,-0.07374575,0.009155249,1742093381.426429
0.437,0.04525,0.79475,-0.013702501,-0.06533825,0.01475525,1742093381.4408278
0.782,0.05375,1.0,-0.02127075,-0.045089748,0.02174375,1742093381.455086
0.755,0.01575,0.895,-0.00764475,-0.0097045,-0.0005035,1742093381.469565
0.472,-0.1015,0.52975,0.00181575,1.5250001e-05,-0.016159,1742093381.484007
0.3485,-0.14375,0.37925,0.00611875,0.0066985004,-0.02360525,1742093381.4985118
0.25675,-0.16925,0.2485,0.005005,0.0194855,-0.01525875,1742093381.514657
0.1465,-0.14525,0.044,0.0041504996,0.02244575,-0.0056,1742093381.5271711
0.1305,-0.094,-0.0175,0.0034637498,0.01667775,0.00883475,1742093381.5414898
0.143,0.01125,-0.072,0.00364675,0.011612001,0.01104725,1742093381.555779
0.17125,0.04825,-0.07025,0.004242,0.00137325,0.00862125,1742093381.570008
0.252,0.116,-0.02825,0.0040435,-0.00364675,0.00596625,1742093381.5847008
0.2895,0.1365,0.00125,0.00317375,-0.0076295,0.00283825,1742093381.598791
0.31475,0.13775,0.02675,0.000946,-0.00833125,-0.0056609996,1742093381.614797
0.30875,0.08375,0.037,7.625e-05,-0.0053709997,-0.009079001,1742093381.627601
0.293,0.041,0.03125,-0.0018005001,0.00059500005,-0.0088195,1742093381.6419709
0.27225,-0.03275,0.0255,-0.0020295,0.0021515,-0.006363,1742093381.656377
0.26425,-0.0465,0.025,-0.00068675,0.00296025,-0.00143425,1742093381.670795
0.25175,-0.0275,0.027,0.000122000005,0.0029145,0.0004425,1742093381.684992
0.25175,-0.008,0.02975,0.0005645,0.0027160002,0.001587,1742093381.699271
0.253,0.00375,0.0295,0.0003815,0.0022125002,0.0016785001,1742093381.714157
0.24875,0.00375,0.02225,3.0500001e-05,0.00225825,0.00119025,1742093381.727614
0.2475,0.00325,0.0195,-0.00054925,0.0022125002,0.00115975,1742093381.742031
0.25275,0.00875,0.02525,-0.00065625,0.0021972498,0.001648,1742093381.756306
0.25425,0.01375,0.02825,-0.0004425,0.00267025,0.0017852499,1742093381.7706509
0.25075,0.0185,0.022,-0.000183,0.0032655,0.00137325,1742093381.7849941
0.249,0.0155,0.01775,0.000183,0.003952,0.0010375,1742093381.799175
0.249,0.013,0.01575,0.00070200005,0.00428775,0.00090025004,1742093381.814446
0.2535,0.01,0.01875,0.00071725,0.004074,0.0012970001,1742093381.827762
0.25575,0.00925,0.02225,0.0013275,0.00434875,0.00187675,1742093381.841965
0.2515,0.0175,0.0275,0.0019225,0.00494375,0.0012970001,1742093381.856192
0.2495,0.0205,0.0245,0.0021972498,0.0062407497,-0.00027475,1742093381.870534
0.243,0.0145,0.0065,0.00201425,0.00668325,-0.00036625,1742093381.884793
0.2395,0.01075,-0.0025,0.00193775,0.0068207504,0.000122000005,1742093381.8990028
0.236,0.01025,-0.0085,0.0026092501,0.00637825,0.00068675,1742093381.914166
0.2275,0.01575,-0.01075,0.00305175,0.0060577504,0.00045775,1742093381.927708
0.22575,0.019,-0.006,0.0031889998,0.005539,-0.00016775,1742093381.942077
0.2325,0.018,0.00475,0.00305175,0.005539,-0.000534,1742093381.9564211
0.2345,0.01,0.0025,0.00320425,0.006302,-0.0016175,1742093381.970707
0.23325,-0.0045,-0.01475,0.00325,0.00665275,-0.001648,1742093381.985174
0.23225,-0.00375,-0.02425,0.00305175,0.0068512503,-0.00090025004,1742093381.999605
0.22975,0.00425,-0.03125,0.00228875,0.0068207504,0.0008545,1742093382.0147781
0.225,0.0325,-0.03725,0.00148,0.0064239996,0.000534,1742093382.0283048
0.2265,0.042,-0.03525,0.00190725,0.004547,-0.0023039998,1742093382.0444229
0.2365,0.03625,-0.02825,0.002472,0.00367725,-0.0038757501,1742093382.0571148
0.2455,0.02075,-0.023,0.002411,0.00367725,-0.0050202496,1742093382.07142
0.25525,-0.001,-0.02475,0.0007325,0.0048674997,-0.0048674997,1742093382.085804
0.24875,-0.00275,-0.03775,-0.00013725001,0.006012,-0.00460825,1742093382.100398
0.24225,-0.00175,-0.04475,0.00469975,0.0065612504,-0.0036315,1742093382.114913
0.2375,0.0255,-0.0485,0.00587475,0.0059815003,-0.0034637498,1742093382.129206
0.23875,0.03925,-0.04825,0.004303,0.004486,-0.0044250004,1742093382.14416
0.24375,0.034,-0.04275,0.0033570002,0.0042725,-0.0051269997,1742093382.158022
0.24575,0.01775,-0.0405,0.0036162501,0.00444025,-0.00694275,1742093382.1724439
0.246,-0.0065,-0.0425,0.00463875,0.00466925,-0.00801075,1742093382.186929
0.24175,-0.01125,-0.047,0.00617975,0.0049895,-0.00823975,1742093382.201371
0.23375,-0.00425,-0.0545,0.00617975,0.0049590003,-0.0071105,1742093382.215779
0.231,0.00275,-0.05525,0.005844,0.0048065,-0.0058135,1742093382.230082
0.2315,0.00725,-0.05375,0.0048979996,0.0045625,-0.0044555003,1742093382.2444952
0.23675,0.003,-0.055,0.0046539996,0.00491325,-0.0044707498,1742093382.258924
0.23475,-0.00325,-0.06075,0.0049742498,0.00621025,-0.0050965,1742093382.274375
0.22675,-0.01125,-0.0755,0.00541675,0.00640875,-0.00541675,1742093382.287977
0.22575,-0.0135,-0.08,0.0065917503,0.005783,-0.00541675,1742093382.302516
0.228,-0.01975,-0.0865,0.0072175004,0.0054015,-0.005005,1742093382.316902
0.228,-0.02075,-0.092,0.00773625,0.00535575,-0.00413525,1742093382.331411
0.22925,-0.0035,-0.1095,0.0074920002,0.00531,-0.00187675,1742093382.345984
0.2325,0.00825,-0.12,0.00643925,0.00494375,-0.00099175,1742093382.3602822
0.23875,0.0145,-0.1295,0.0045165,0.0044555003,-0.000473,1742093382.375235
0.24775,0.016,-0.153,0.0044707498,0.0043944996,-0.00096125,1742093382.389097
0.24775,0.0205,-0.17075,0.0038605002,0.00453175,-0.0020599999,1742093382.404282
0.24325,0.05025,-0.225,0.003006,0.00541675,-0.0022277501,1742093382.417686
0.22575,0.08025,-0.27775,-0.00148,0.011383001,-0.0032347501,1742093382.43221
0.14725,0.13,-0.447,-0.00440975,0.01452625,-0.00355525,1742093382.4466848
0.08825,0.11925,-0.5245,-0.0075225,0.01628125,-0.0024414998,1742093382.4612129
0.01575,0.09075,-0.59175,-0.0155030005,0.014389,0.0066985004,1742093382.475817
-0.15375,0.01975,-0.665,-0.01817325,0.008636501,0.0160065,1742093382.4900942
-0.23225,0.00625,-0.65825,-0.024108998,-0.009552,0.041824248,1742093382.504832
-0.35875,0.0625,-0.52525,-0.023620501,-0.02253725,0.05033875,1742093382.519305
-0.35575,0.10975,-0.351,-0.0080872495,-0.0606995,0.03530875,1742093382.53455
-0.0275,0.13425,0.2875,0.0023497501,-0.0821075,0.01620475,1742093382.548269
0.332,0.1215,0.70075,0.00238025,-0.095703006,-0.01083375,1742093382.562693
1.0,0.07,1.0,-0.00546275,-0.081039496,-0.01634225,1742093382.577155
1.0,-0.0365,1.0,-0.010009751,-0.054824747,-0.018158002,1742093382.591758
0.85125,-0.15925,0.858,-0.0080872495,0.00283825,-0.011856,1742093382.606209
0.38775,-0.21775,0.426,-0.004547,0.02342225,-0.0084379995,1742093382.620703
0.23575,-0.17825,0.245,0.0034484998,0.03891,-0.0031889998,1742093382.635193
0.0845,-0.10925,0.01825,0.00531,0.03768925,0.00175475,1742093382.649718
0.0535,-0.0755,-0.04175,0.0072632497,0.021347,0.010528499,1742093382.664761
0.0665,0.01525,-0.08525,0.00770575,0.0114440005,0.012924249,1742093382.678423
0.114,0.07,-0.0695,0.0067597497,-0.0030365,0.0119630005,1742093382.6944551
0.2345,0.166,-0.00075,0.00590525,-0.0069580004,0.00767525,1742093382.707075
0.27975,0.17775,0.031,0.0048217503,-0.0085602505,0.002121,1742093382.721431
0.305,0.1565,0.0525,0.00143425,-0.0062407497,-0.0061950004,1742093382.7357771
0.308,0.071,0.0605,-0.00035100002,-0.00334175,-0.0076142503,1742093382.7501829
0.29575,0.035,0.05025,-0.0023497501,0.00267025,-0.0068665,1742093382.764698
0.27475,-0.01175,0.02775,-0.00251775,0.0047607496,-0.0054932497,1742093382.779076
0.2675,-0.01875,0.02175,-0.001526,0.0061645,-0.00276175,1742093382.794297
0.25575,-0.0075,0.01375,-0.00102225,0.00587475,-0.001892,1742093382.808088
0.2485,-0.004,0.01175,-0.000946,0.0054015,-0.00137325,1742093382.822581
0.248,-0.014,0.01475,-0.0017395001,0.0048065,-0.000946,1742093382.837091
0.25075,-0.02025,0.01375,-0.0017852499,0.0049895,-0.00109875,1742093382.851635
0.251,-0.02475,0.009,-0.00096125,0.006073,-0.00077825,1742093382.866078
0.24575,-0.0155,-0.00575,-0.0003205,0.00646975,0.00030525,1742093382.880616
0.2445,-0.00125,-0.01,0.00108325,0.007019,0.0021515,1742093382.894979
0.24,0.0265,-0.0075,0.00177,0.0074004997,0.00160225,1742093382.9092538
0.24075,0.0305,-0.004,0.00198375,0.0076905,-0.00184625,1742093382.926
0.24775,0.0115,-0.0075,0.00157175,0.007782,-0.0030669998,1742093382.938101
0.2465,-0.002,-0.01325,0.0012970001,0.00794975,-0.00320425,1742093382.952568
0.24275,-0.0105,-0.0185,0.0020599999,0.008072,-0.00068675,1742093382.967086
0.23625,-0.00075,-0.0275,0.002777,0.007904,0.0002595,1742093382.98148
0.23225,0.015,-0.0305,0.00358575,0.0071409997,6.1000002e-05,1742093382.995787
0.2315,0.03875,-0.033,0.003296,0.0064850003,-0.00042725,1742093383.010178
0.2365,0.03975,-0.033,0.00187675,0.0058135,-0.00137325,1742093383.0248032
0.2415,0.028,-0.0345,0.001236,0.0061645,-0.0018615,1742093383.039068
0.237,0.019,-0.0385,0.00024425,0.00737,-0.0019989999,1742093383.054422
0.2295,0.00675,-0.04925,-0.00090025004,0.0078735,-0.0013275,1742093383.0679822
0.22875,0.00975,-0.05325,-0.00154125,0.00794975,-0.0009155,1742093383.0824928
0.22875,0.01725,-0.054,-0.00083925005,0.0067597497,-0.00242625,1742093383.0969589
0.22875,0.02675,-0.05525,-0.00204475,0.00614925,-0.0036315,1742093383.111457
0.2275,0.02575,-0.062,6.1000002e-05,0.00488275,-0.0049590003,1742093383.125864
0.23075,0.005,-0.04975,0.0019989999,0.0045625,-0.0047607496,1742093383.140314
0.23275,-0.0045,-0.04725,0.00254825,0.005005,-0.0044250004,1742093383.1546838
0.229,-0.01025,-0.057,0.0025025,0.0052185003,-0.00437925,1742093383.1691892
0.22775,-0.0085,-0.06425,0.0029907501,0.0046234997,-0.004013,1742093383.184214
0.22725,0.004,-0.0705,0.0030669998,0.0039825,-0.0037537501,1742093383.198415
0.232,0.009,-0.06925,0.0027465,0.00340275,-0.0032655,1742093383.213904
0.235,0.0105,-0.06675,0.00225825,0.00328075,-0.0028074998,1742093383.227169
0.23475,0.0015,-0.0615,0.00242625,0.00352475,-0.00305175,1742093383.241666
0.236,-0.0045,-0.06025,0.00328075,0.0043182503,-0.0043182503,1742093383.2561631
0.2325,-0.01025,-0.067,0.00358575,0.00466925,-0.0048217503,1742093383.270679
0.23075,-0.01,-0.07225,0.00340275,0.0045625,-0.00411975,1742093383.285259
0.2285,-0.00425,-0.07425,0.00328075,0.0041504996,-0.003418,1742093383.300003
0.229,-0.00475,-0.07175,0.0035095,0.00314325,-0.00334175,1742093383.314487
0.22975,-0.0155,-0.069,0.00390625,0.00289925,-0.00372325,1742093383.3289778
0.2285,-0.01975,-0.07075,0.0044707498,0.00289925,-0.003952,1742093383.344379
0.22875,-0.01925,-0.074,0.00543225,0.0026245,-0.003769,1742093383.357989
0.2325,-0.008,-0.08225,0.0054780003,0.0020905002,-0.00354,1742093383.3725178
0.23375,-0.00225,-0.0845,0.00514225,0.0013580001,-0.003128,1742093383.386971
0.2275,0.0,-0.087,0.00505075,0.0013275,-0.0030669998,1742093383.401437
0.225,-0.00275,-0.0895,0.004593,0.00148,-0.0029145,1742093383.415884
0.22625,-0.01175,-0.10225,0.0043944996,0.0016632499,-0.0027312501,1742093383.430447
0.22775,-0.01325,-0.1125,0.0044250004,0.0018615,-0.0019685,1742093383.444996
0.2285,-0.00375,-0.13825,0.0045012496,0.00184625,-0.00143425,1742093383.459498
0.228,0.006,-0.151,0.0047912505,0.00175475,-0.001175,1742093383.475265
0.22325,0.031,-0.18325,0.0062865,0.0009155,-0.0025025,1742093383.488398
0.21725,0.04575,-0.20775,0.00662225,0.00033575002,-0.00354,1742093383.5027578
0.20675,0.064,-0.24425,0.0050202496,0.00068675,-0.00511175,1742093383.517168
0.16675,0.09225,-0.35025,0.0029907501,0.00175475,-0.00531,1742093383.53157
0.1415,0.094,-0.4195,-0.0013427499,0.00231925,-0.0018005001,1742093383.54606
0.1015,0.0925,-0.55775,-0.003769,0.001007,0.00216675,1742093383.560416
0.05525,0.108,-0.606,-0.015029999,0.00035100002,0.01445,1742093383.575725
-0.1185,0.157,-0.63925,-0.018707251,-0.0004425,0.020874001,1742093383.589343
-0.232,0.16425,-0.63,-0.0215455,-0.00317375,0.02693175,1742093383.604427
-0.316,0.13025,-0.57725,-0.027069,-0.02085875,0.0414275,1742093383.618489
-0.31975,0.013,-0.25575,-0.022643998,-0.037277248,0.04521175,1742093383.633791
-0.1685,-0.00875,0.07725,0.00738525,-0.08190925,0.02565,1742093383.6477282
0.483,0.09725,0.882,0.01838675,-0.095230006,0.00334175,1742093383.6619399
0.75175,0.15175,1.0,0.000473,-0.06498725,-0.021576,1742093383.676478
0.83975,-0.026,0.878,-0.015579251,-0.029693501,-0.013137749,1742093383.691048
0.692,-0.17425,0.70475,-0.013183501,0.0091705,-0.00428775,1742093383.7055721
0.35725,-0.26,0.359,-0.00108325,0.0125885,-0.009140001,1742093383.720049
0.25425,-0.203,0.231,0.0069580004,0.012496999,-0.010894749,1742093383.734561
0.1955,-0.12875,0.13875,0.00671375,0.01367175,-0.00177,1742093383.748756
0.1525,-0.0145,0.038,0.0055847503,0.0128785,0.00125125,1742093383.76488
0.15525,0.0125,0.0095,0.0034637498,0.006668,0.0043335,1742093383.7774332
0.1835,0.057,-0.00825,0.0020752498,0.00317375,0.0063477503,1742093383.791683
0.20875,0.07975,0.00125,0.0017852499,-0.001648,0.00305175,1742093383.805941
0.24725,0.104,0.01575,0.0017242499,-0.00263975,-0.00096125,1742093383.8204951
0.26,0.097,0.01975,-0.0005035,-0.00279225,-0.00543225,1742093383.8350642
0.2725,0.05525,0.0275,-0.00163275,-0.0021972498,-0.006073,1742093383.849458
0.27225,0.0335,0.03075,-0.0027160002,-0.00115975,-0.005539,1742093383.864767
0.27175,0.01625,0.03325,-0.00369275,0.00177,-0.0025787498,1742093383.878387
0.26425,0.00175,0.03325,-0.0032655,0.003128,-0.00146475,1742093383.894645
0.25975,0.00175,0.0315,-0.00216675,0.0040435,-0.0007935,1742093383.907302
0.2565,-0.001,0.035,-0.0017852499,0.00364675,-0.00102225,1742093383.921758
0.257,-0.00425,0.039,-0.0012817499,0.0034484998,-0.001831,1742093383.9363751
0.2525,-0.0135,0.03775,-0.00108325,0.00317375,-0.0020599999,1742093383.9508731
0.24975,-0.01825,0.0325,-0.001709,0.00289925,-0.0007325,1742093383.9654038
0.2475,-0.014,0.0315,-0.0015105,0.0030975002,-7.625e-05,1742093383.979878
0.245,-0.0065,0.03375,-0.00061025,0.00331125,7.625e-05,1742093383.994587
0.245,0.00175,0.03675,0.00090025004,0.00390625,-0.00059500005,1742093384.008684
0.2575,0.00575,0.04425,0.000885,0.0045625,-0.00090025004,1742093384.023068
0.26,0.00525,0.04475,0.00048825,0.0070952503,-0.0004425,1742093384.037442
0.25225,0.00425,0.0305,0.0002135,0.008377,-0.00013725001,1742093384.0516381
0.24625,-0.00225,0.01675,0.00061025,0.01020825,-0.00019825,1742093384.0660841
0.2305,-0.00675,-0.01175,0.0012207499,0.010238751,-0.00027475,1742093384.0804858
0.22925,0.0,-0.01825,0.001953,0.00968925,-0.000183,1742093384.094964
0.23125,0.011,-0.01775,0.0038299998,0.008148249,-0.00090025004,1742093384.1093838
0.235,0.02675,-0.0115,0.00411975,0.00747675,-0.0015565,1742093384.1243432
0.239,0.023,-0.00925,0.0029145,0.00717175,-0.00175475,1742093384.138166
0.2485,0.0055,-0.017,0.0024872501,0.0074920002,-0.00181575,1742093384.152596
0.24625,0.0015,-0.0265,0.0023497501,0.008377,-0.0016785001,1742093384.1669319
0.235,0.012,-0.04075,0.00225825,0.008788999,-0.001587,1742093384.1813672
0.228,0.0185,-0.045,0.001526,0.00891125,-0.001648,1742093384.195731
0.219,0.014,-0.05,0.0007935,0.008361749,-0.001114,1742093384.210165
0.223,0.0015,-0.04875,7.625e-05,0.0076142503,-0.00030525,1742093384.22558
0.2315,-0.01225,-0.04775,-7.625e-05,0.0068055,0.00048825,1742093384.2390678
0.23925,-0.0145,-0.059,0.00042725,0.0070495,0.0002135,1742093384.2544582
0.23575,-0.003,-0.0665,0.0014495,0.0072175004,-0.0003205,1742093384.2679832
0.22925,0.02525,-0.06875,0.00119025,0.006668,-0.00013725001,1742093384.282392
0.22775,0.03275,-0.06275,-0.00305175,0.0050355,0.00019825,1742093384.296756
0.2335,0.0245,-0.06075,-0.00358575,0.00399775,-0.0002595,1742093384.311299
0.238,0.0115,-0.05325,-0.0001525,0.00292975,-0.0014495,1742093384.3257039
0.2395,0.00075,-0.0485,0.0049590003,0.0021972498,-0.0041810004,1742093384.340044
0.23725,-0.003,-0.053,0.00511175,0.002411,-0.00453175,1742093384.3545
0.235,-0.00075,-0.05625,0.0042572496,0.002777,-0.00305175,1742093384.368941
0.238,0.01275,-0.053,0.0037995,0.00267025,-0.00190725,1742093384.384199
0.24225,0.0235,-0.049,0.0029145,0.0023345,-0.0013427499,1742093384.397842
0.246,0.025,-0.045,0.00276175,0.00254825,-0.0021819999,1742093384.413692
0.24475,0.013,-0.04725,0.0038605002,0.0035704998,-0.0048217503,1742093384.4265878
0.245,-0.017,-0.05425,0.0048217503,0.0038757501,-0.00564575,1742093384.441068
0.24425,-0.02075,-0.05875,0.00564575,0.00408925,-0.0056609996,1742093384.455502
0.24175,-0.016,-0.06425,0.006012,0.0043182503,-0.00408925,1742093384.46994
0.2375,0.00075,-0.0675,0.0055695,0.00411975,-0.003128,1742093384.484607
0.24,0.00775,-0.0645,0.00466925,0.00314325,-0.002365,1742093384.49917
0.24825,0.007,-0.059,0.0043944996,0.0028687501,-0.00267025,1742093384.514242
0.24925,-0.00275,-0.06125,0.0038299998,0.0044250004,-0.00254825,1742093384.528044
0.2355,-0.01725,-0.0775,0.00399775,0.0057677496,-0.0023345,1742093384.5425081
0.2255,-0.019,-0.08925,0.0043944996,0.0070342496,-0.001648,1742093384.5569658
0.21825,-0.0165,-0.10275,0.0042115003,0.0067902496,-0.00035100002,1742093384.571491
0.22075,-0.00875,-0.107,0.0037995,0.006256,0.00149525,1742093384.5858948
0.222,0.0005,-0.11475,0.0034637498,0.0059967497,0.005066,1742093384.600306
0.21925,0.014,-0.142,0.004242,0.00617975,0.0052642496,1742093384.6145768
0.2145,0.01875,-0.15775,0.00723275,0.0058135,0.00193775,1742093384.628885
0.20125,0.0355,-0.19225,0.0081635,0.0050202496,0.00010675,1742093384.6444101
0.19075,0.0525,-0.216,0.0062407497,0.00384525,-0.00109875,1742093384.657662
0.15675,0.1145,-0.29475,0.00308225,0.0045012496,-0.00074775,1742093384.672087
0.1365,0.14825,-0.35225,-0.0003205,0.005249,-0.00045775,1742093384.686517
0.114,0.16025,-0.41175,-0.0038757501,0.00411975,-0.0022125002,1742093384.700966
0.025,0.12225,-0.54225,-0.008407501,0.0048674997,-0.00225825,1742093384.715465
-0.04975,0.0845,-0.593,-0.020111,0.0048217503,0.009292499,1742093384.730029
-0.201,-0.0125,-0.62175,-0.0239105,0.000412,0.0196685,1742093384.74462
-0.2615,-0.0315,-0.58825,-0.0209655,-0.024704,0.03506475,1742093384.759246
-0.19925,0.04575,-0.291,-0.01339725,-0.045654252,0.032897998,1742093384.774795
-0.06075,0.112,-0.028,0.001236,-0.07952875,0.009002751,1742093384.788386
0.32475,0.1725,0.53525,-0.00181575,-0.08047475,0.005844,1742093384.802762
0.5015,0.17975,0.75825,-0.0224305,-0.056289747,0.019775499,1742093384.817163
0.64575,0.085,0.8435,-0.02401725,-0.0425415,0.016693002,1742093384.831604
0.656,0.01175,0.77575,-0.0170745,-0.031601,0.0053405,1742093384.845977
0.6235,-0.04275,0.6735,-0.00225825,-0.0118407495,-0.01554875,1742093384.8606038
0.439,-0.13,0.40925,-0.000534,-0.00033575002,-0.017135499,1742093384.875725
0.323,-0.15425,0.26775,0.000763,0.015854,-0.009155249,1742093384.889664
0.17975,-0.11075,0.07425,0.00160225,0.017181499,-0.0038605002,1742093384.904597
0.1595,-0.062,0.0285,0.00187675,0.01165775,0.004074,1742093384.918391
0.161,0.01475,-0.02675,0.001648,0.00830075,0.005783,1742093384.932647
0.17675,0.043,-0.033,0.00154125,0.00543225,0.006256,1742093384.9470851
0.20225,0.07475,-0.02225,0.0016632499,-9.15e-05,0.00428775,1742093384.961376
0.261,0.12725,0.01675,0.00169375,-0.0025940002,0.0022277501,1742093384.97569
0.28175,0.12775,0.02825,0.00105275,-0.004013,-0.003296,1742093384.9900959
0.2885,0.083,0.034,0.00030525,-0.0025787498,-0.00520325,1742093385.004521
0.28375,0.058,0.0345,-0.001419,0.00149525,-0.0055237496,1742093385.0187771
0.27475,0.0235,0.037,-0.00201425,0.00308225,-0.0045625,1742093385.035106
0.2705,0.0105,0.03775,-0.00225825,0.0039825,-0.00343325,1742093385.0477068
0.262,-0.0065,0.03625,-0.00125125,0.004074,-0.002472,1742093385.0622962
0.25675,-0.00925,0.034,-0.0003205,0.003952,-0.0025634998,1742093385.0767622
0.25125,-0.00975,0.03025,0.0008545,0.0044555003,-0.00190725,1742093385.0912828
0.248,-0.0005,0.02275,0.001007,0.00460825,-0.001114,1742093385.105674
0.248,0.009,0.01975,0.001114,0.0049590003,-0.00019825,1742093385.120092
0.2535,0.033,0.02,0.0013275,0.0046539996,-0.00064075,1742093385.1346219
0.2585,0.03975,0.0205,0.00157175,0.00419625,-0.002472,1742093385.1486878
0.2595,0.03075,0.02425,0.0014037499,0.00466925,-0.00308225,1742093385.163862
0.262,0.0195,0.02625,0.00115975,0.0054475004,-0.00343325,1742093385.17714
0.261,0.00725,0.022,0.0014037499,0.0076599997,-0.003769,1742093385.191413
0.248,-0.00175,0.00175,0.0015565,0.00852975,-0.003006,1742093385.205754
0.24325,0.0075,-0.0055,0.00146475,0.0089875,-0.0009155,1742093385.220288
0.238,0.03625,-0.01175,0.00146475,0.00862125,-0.0007935,1742093385.234795
0.23975,0.0425,-0.013,0.0015105,0.00747675,-0.0028687501,1742093385.249174
0.243,0.0245,-0.013,0.00177,0.00723275,-0.00419625,1742093385.2643478
0.2415,0.009,-0.01175,0.0022277501,0.0071409997,-0.0051880004,1742093385.277963
0.242,-0.00475,-0.009,0.0030975002,0.0072632497,-0.0049742498,1742093385.2938519
0.23725,-0.0045,-0.0165,0.0031127501,0.00773625,-0.0037079998,1742093385.3069608
0.2295,0.00775,-0.02675,0.00177,0.008270251,-0.001007,1742093385.3213649
0.22125,0.02575,-0.04175,0.00137325,0.00788875,-0.0010375,1742093385.3359208
0.22125,0.023,-0.044,0.002121,0.006363,-0.00411975,1742093385.350373
0.223,0.00625,-0.04075,0.0027312501,0.0056,-0.0055085,1742093385.364734
0.22275,0.0,-0.0355,0.0038757501,0.0044250004,-0.0065765,1742093385.379301
0.22675,-0.00825,-0.0265,0.0042267498,0.00413525,-0.0066985004,1742093385.39417
0.22875,-0.01175,-0.02875,0.0042267498,0.00434875,-0.00631725,1742093385.408288
0.229,-0.01275,-0.03525,0.0030365,0.00564575,-0.003891,1742093385.4226692
0.2215,-0.00775,-0.0545,0.00181575,0.0060577504,-0.0026245,1742093385.437189
0.217,-0.00375,-0.06,0.0003205,0.0054015,-0.00169375,1742093385.4516668
0.22275,0.0,-0.0515,0.0013580001,0.0044250004,-0.0020295,1742093385.4659681
0.231,0.0005,-0.04275,0.0029449998,0.003662,-0.0026092501,1742093385.480393
0.23825,0.00175,-0.03225,0.00216675,0.00408925,-0.0023497501,1742093385.494754
0.2365,0.003,-0.04,-0.0017852499,0.0051880004,-0.00149525,1742093385.509374
0.23,0.00275,-0.0595,0.00099175,0.005005,-0.00175475,1742093385.525009
0.22825,0.00325,-0.06075,0.0039215,0.00437925,-0.00231925,1742093385.538294
0.23025,0.00525,-0.0585,0.0046845004,0.0023345,-0.0033875,1742093385.552692
0.23975,0.0075,-0.049,0.00419625,0.0015565,-0.0038299998,1742093385.567067
0.24375,0.0025,-0.0435,0.0037385002,0.00146475,-0.0044555003,1742093385.581409
0.24875,-0.01725,-0.0405,0.00393675,0.0020295,-0.0047150003,1742093385.595882
0.24775,-0.0245,-0.0425,0.00466925,0.0034942501,-0.0042115003,1742093385.610404
0.24125,-0.023,-0.05275,0.0047302498,0.0040435,-0.0032655,1742093385.625159
0.23625,-0.01575,-0.05725,0.0043639997,0.0045012496,-0.00137325,1742093385.639286
0.233,-0.0035,-0.0635,0.0042267498,0.0044555003,-0.0011445,1742093385.6544461
0.2305,-0.00175,-0.069,0.00416575,0.00437925,-0.00146475,1742093385.668463
0.23,-0.00475,-0.07675,0.00408925,0.0042267498,-0.0024872501,1742093385.684117
0.2375,-0.01575,-0.09375,0.00444025,0.00411975,-0.00302125,1742093385.6975849
0.24075,-0.0145,-0.104,0.0053405,0.0041504996,-0.00358575,1742093385.71205
0.24225,-0.00025,-0.13375,0.0052642496,0.004303,-0.0031585,1742093385.726476
0.243,0.0095,-0.152,0.00402825,0.00469975,-0.00154125,1742093385.741023
0.25075,0.03225,-0.19325,0.0032655,0.00511175,-0.00115975,1742093385.755388
0.25,0.0505,-0.21975,0.0020599999,0.0072785,-0.0026245,1742093385.769739
0.20725,0.0945,-0.32075,0.001114,0.009369001,-0.0043639997,1742093385.7844338
0.1625,0.105,-0.3995,0.00062550005,0.01133725,-0.0056,1742093385.798738
0.11325,0.10325,-0.4795,-0.0020599999,0.01187125,-0.0030975002,1742093385.8144388
0.035,0.08375,-0.59025,-0.00640875,0.0100555,0.000763,1742093385.8277
-0.0015,0.08075,-0.609,-0.016296498,0.0029755002,0.01463325,1742093385.842078
-0.11625,0.1135,-0.58225,-0.021698,0.0001525,0.024002,1742093385.8565571
-0.2065,0.11975,-0.5535,-0.025268499,-0.009597749,0.0378265,1742093385.8711739
-0.308,0.04275,-0.34925,-0.02026375,-0.023819,0.036163248,1742093385.885949
-0.19325,-0.012,-0.09175,0.0004425,-0.06938175,0.01542675,1742093385.900579
0.39575,0.0455,0.67225,0.0087585,-0.085327245,0.00352475,1742093385.914978
0.74975,0.1365,0.9555,0.0070037497,-0.0833435,-0.00488275,1742093385.9293609
0.92975,0.165,1.0,-0.01326,-0.03309625,-0.00947575,1742093385.944428
0.6335,-0.09125,0.672,-0.01756275,-0.0072480002,-0.0078125,1742093385.958375
0.45,-0.20875,0.4875,-0.00631725,0.01187125,-0.010452249,1742093385.972854
0.28325,-0.20725,0.28075,0.001526,0.013321,-0.0127105,1742093385.987189
0.2295,-0.15575,0.187,0.0049742498,0.01937875,-0.0042725,1742093386.001558
0.13525,-0.0825,0.02,0.0043335,0.01841725,0.001892,1742093386.0158641
0.1145,-0.05475,-0.033,0.0047302498,0.008651749,0.00874325,1742093386.030391
0.147,0.0135,-0.07075,0.00491325,0.0039825,0.009430001,1742093386.044862
0.1905,0.0605,-0.062,0.00491325,-0.00010675,0.008194,1742093386.0590138
0.24075,0.103,-0.038,0.0043639997,-0.00662225,0.00213625,1742093386.075218
0.31325,0.118,0.01425,0.00328075,-0.007782,-0.00062550005,1742093386.087743
0.3265,0.096,0.02625,0.0003815,-0.0042572496,-0.0050812503,1742093386.102156
0.31375,0.038,0.0205,-0.00062550005,-0.00067150005,-0.0067597497,1742093386.116658
0.296,0.01475,0.0105,-0.00198375,0.0054475004,-0.0063325,1742093386.1310651
0.268,-0.0145,-0.0035,-0.00231925,0.0065765,-0.005005,1742093386.1456351
0.25825,-0.025,-0.009,-0.0022125002,0.0064545004,-0.00384525,1742093386.160127
0.24075,-0.0315,-0.018,-0.001419,0.0049895,-0.00090025004,1742093386.175255
0.23575,-0.02025,-0.017,-0.0013275,0.0044250004,0.00102225,1742093386.1890712
0.2355,-0.00475,-0.011,-0.00125125,0.0031127501,0.00193775,1742093386.204439
0.2415,0.00725,0.0025,-0.0012207499,0.0025787498,0.00099175,1742093386.217928
0.24225,0.003,0.005,-0.00143425,0.002365,-0.0003815,1742093386.232259
0.24425,-0.00975,0.00025,-0.0015565,0.0023497501,-0.00035100002,1742093386.246778
0.24725,-0.01225,-0.003,-0.00148,0.0025025,0.001007,1742093386.261278
0.25125,-0.0045,-0.00625,-0.00112925,0.00276175,0.0016175,1742093386.2757728
0.25,0.0035,-0.00375,-0.00054925,0.00317375,0.0017242499,1742093386.290134
0.2485,0.012,0.0,0.000412,0.004242,0.0002135,1742093386.3045802
0.2495,0.014,-0.00025,0.00061025,0.0047150003,-0.00099175,1742093386.318709
0.24925,0.00075,-0.00675,0.00099175,0.00590525,-0.0018615,1742093386.333886
0.23975,-0.02525,-0.02725,0.0014037499,0.00646975,-0.0010375,1742093386.34763
0.2365,-0.02425,-0.03375,0.0025787498,0.0070037497,0.0012055,1742093386.362095
0.236,0.0055,-0.0355,0.003006,0.0068512503,0.0012817499,1742093386.37641
0.23525,0.02075,-0.0355,0.0030975002,0.0064545004,-0.0005035,1742093386.3907251
0.2285,0.022,-0.038,0.0026854998,0.00640875,-0.00169375,1742093386.4052732
0.2265,0.00925,-0.04225,0.00225825,0.006256,-0.00270075,1742093386.4196732
0.227,-0.0065,-0.0465,0.00251775,0.00546275,-0.003418,1742093386.434328
0.2325,-0.018,-0.0515,0.00305175,0.0050355,-0.0029755002,1742093386.448591
0.2345,-0.00625,-0.052,0.00328075,0.00469975,-0.00125125,1742093386.4642692
0.23425,0.024,-0.04775,0.00302125,0.004593,-0.0009765,1742093386.47737
0.235,0.027,-0.04375,0.0022125002,0.0042725,-0.0025025,1742093386.491641
0.24125,0.0055,-0.04075,0.0017395001,0.00440975,-0.0034790002,1742093386.5061262
0.2415,-0.0105,-0.04375,0.0013885,0.004837,-0.0040587503,1742093386.5206861
0.2375,-0.022,-0.05,0.00080875,0.0058899997,-0.0033570002,1742093386.535167
0.22925,-0.0215,-0.06125,0.00080875,0.00587475,-0.0022277501,1742093386.549645
0.229,-0.007,-0.06325,0.00119025,0.0046845004,-0.00102225,1742093386.564589
0.2345,0.02475,-0.052,0.00016775,0.0037995,-0.00108325,1742093386.578679
0.24475,0.0305,-0.0525,-0.0029755002,0.0023039998,-0.0020905002,1742093386.594379
0.255,0.016,-0.0555,-1.5250001e-05,0.0020752498,-0.00328075,1742093386.6076548
0.25425,0.0025,-0.055,0.0033264998,0.00308225,-0.0046539996,1742093386.622001
0.252,-0.01625,-0.0535,0.0034790002,0.00378425,-0.00469975,1742093386.636394
0.24875,-0.01675,-0.05525,0.0037995,0.0042115003,-0.00485225,1742093386.6508732
0.2425,-0.0135,-0.05825,0.0042725,0.004013,-0.00466925,1742093386.665278
0.24025,-0.005,-0.0605,0.003952,0.003769,-0.0039215,1742093386.679727
0.2425,-0.00325,-0.06075,0.0033570002,0.00393675,-0.0027160002,1742093386.694581
0.24475,-0.00775,-0.06075,0.00343325,0.004242,-0.002777,1742093386.7087748
0.246,-0.01125,-0.0615,0.00419625,0.00463875,-0.0040435,1742093386.7244742
0.2405,-0.017,-0.06625,0.0047607496,0.0049285004,-0.00469975,1742093386.7377658
0.23175,-0.01475,-0.071,0.005005,0.00567625,-0.0045777503,1742093386.752233
0.2165,-0.0085,-0.0805,0.0045625,0.0056609996,-0.0038299998,1742093386.766657
0.2165,-0.00975,-0.08525,0.00413525,0.0052795,-0.0031127501,1742093386.7811708
0.21775,-0.0125,-0.09225,0.0047302498,0.00428775,-0.0034790002,1742093386.7956648
0.21875,-0.013,-0.11075,0.0055847503,0.00381475,-0.004303,1742093386.810143
0.22175,-0.0095,-0.11925,0.0063934997,0.0029449998,-0.0048979996,1742093386.824824
0.2265,0.00025,-0.13775,0.00564575,0.0028687501,-0.00416575,1742093386.839103
0.22775,0.0025,-0.15075,0.0037537501,0.004242,-0.00187675,1742093386.854385
0.212,0.0065,-0.20025,0.0036010002,0.005249,-0.00169375,1742093386.8680792
0.19175,0.01875,-0.2395,0.0034484998,0.0066374997,-0.0020599999,1742093386.882468
0.12975,0.12475,-0.39225,0.00035100002,0.008148249,-0.00036625,1742093386.896953
0.07975,0.19325,-0.49475,-0.0054475004,0.00991825,0.0031889998,1742093386.911359
0.0295,0.1985,-0.5745,-0.0137635,0.00697325,0.008346501,1742093386.925801
-0.05625,0.02525,-0.6235,-0.01295475,0.0015565,0.0058899997,1742093386.940236
-0.1045,-0.04275,-0.617,-0.009445249,-0.014267,0.0020295,1742093386.954937
-0.18925,-0.011,-0.5335,-0.0141755,-0.023193251,0.010391249,1742093386.969558
-0.192,0.021,-0.42725,-0.02409375,-0.03945925,0.033249002,1742093386.98455
-0.09725,0.02225,-0.106,-0.01832575,-0.04736325,0.03262325,1742093386.998847
0.00525,0.041,0.111,0.0013275,-0.063095,0.011795,1742093387.014165
0.39075,0.1075,0.629,0.00325,-0.065857,0.0055847503,1742093387.027542
0.576,0.12175,0.801,-0.0019225,-0.05941775,0.0028687501,1742093387.04196
0.673,0.08025,0.84925,-0.017151,-0.03227225,0.00331125,1742093387.0563781
0.59125,-0.09575,0.647,-0.0172425,-0.02006525,0.0037995,1742093387.070854
0.49575,-0.13375,0.515,-0.0032195,-0.005249,-0.0033570002,1742093387.0853708
0.332,-0.09725,0.28375,0.00238025,0.00068675,-0.0058899997,1742093387.099686
0.27325,-0.0695,0.1915,0.0047150003,0.0093995,-0.00213625,1742093387.114649
0.21525,-0.03925,0.079,0.0050355,0.00968925,0.00083925005,1742093387.128376
0.20725,-0.02575,0.04375,0.0056609996,0.00617975,0.0058899997,1742093387.142626
0.225,0.01325,0.00325,0.0051269997,0.00469975,0.0075835,1742093387.1568441
0.2445,0.04325,0.0005,0.00440975,0.0033722501,0.0078735,1742093387.171243
0.26725,0.0705,0.007,0.0036162501,0.00057975,0.0030669998,1742093387.185408
0.307,0.0835,0.0295,0.00320425,7.625e-05,-0.0007935,1742093387.199648
0.3105,0.06825,0.03,0.00160225,0.002365,-0.0058287503,1742093387.214725
0.2925,0.028,0.0185,0.00062550005,0.00428775,-0.0061950004,1742093387.228362
0.2825,0.01025,0.0155,-0.000122000005,0.0057677496,-0.005539,1742093387.242623
0.268,-0.012,0.01075,-0.000473,0.0068969997,-0.0034790002,1742093387.2571478
0.25875,-0.01425,0.00525,0.0,0.0068512503,-0.0029449998,1742093387.27158
0.24875,-0.0105,-0.00175,0.00039675,0.0064850003,-0.0017242499,1742093387.2860422
0.2215,0.00175,-0.01875,-7.625e-05,0.00662225,-0.001175,1742093387.3004422
0.21225,0.00175,-0.02325,-0.00059500005,0.0056915004,-0.0014037499,1742093387.315006
0.2205,-0.00275,-0.0145,-0.0001525,0.0045012496,-0.0019685,1742093387.3296099
0.22775,-0.0015,-0.00625,0.00030525,0.0028535,-0.0016785001,1742093387.344565
0.24725,0.00125,0.0095,0.00016775,0.00254825,-0.0009765,1742093387.3583539
0.25475,0.0055,0.01275,0.00010675,0.0025787498,-0.00067150005,1742093387.372643
0.25475,0.0085,0.01075,-0.000122000005,0.00343325,-0.0007325,1742093387.387071
0.25525,0.00675,0.01025,-6.1000002e-05,0.00381475,-0.0009155,1742093387.4014552
0.2555,0.00425,0.0105,0.00086975005,0.0043335,-0.00216675,1742093387.415942
0.252,-0.0045,0.01,0.0011445,0.0047302498,-0.0025787498,1742093387.430324
0.252,-0.00875,0.01125,0.001419,0.00564575,-0.00238025,1742093387.4446359
0.24925,-0.00825,0.0095,0.00157175,0.00611875,-0.0019685,1742093387.4590862
0.24825,-0.0015,0.005,0.0009765,0.00672925,-0.000534,1742093387.475213
0.24775,0.0165,-0.00725,0.000412,0.0072632497,0.00016775,1742093387.487662
0.2415,0.02075,-0.015,0.00027475,0.007904,9.15e-05,1742093387.501971
0.237,0.0175,-0.02125,0.00059500005,0.00788875,-0.0023497501,1742093387.516351
0.23575,-0.00525,-0.025,0.00074775,0.0075225,-0.0033722501,1742093387.530897
0.2355,-0.02025,-0.0245,0.0013580001,0.00662225,-0.0032655,1742093387.5453598
0.236,-0.032,-0.0235,0.00181575,0.0063325,-0.00231925,1742093387.559693
0.236,-0.0215,-0.02675,0.0021972498,0.0063934997,-0.00024425,1742093387.575469
0.2345,0.0125,-0.03975,0.0018615,0.0065765,0.00024425,1742093387.588464
0.23475,0.019,-0.04625,0.0013885,0.006668,1.5250001e-05,1742093387.602755
0.235,0.014,-0.05,0.00119025,0.0061645,-0.002121,1742093387.61709
0.23225,-0.00825,-0.047,0.00125125,0.00579825,-0.00279225,1742093387.6316311
0.233,-0.01625,-0.0415,0.0017242499,0.00520325,-0.00352475,1742093387.6461172
0.235,-0.02275,-0.037,0.00213625,0.00517275,-0.0036315,1742093387.660635
0.2375,-0.0185,-0.04125,-0.000229,0.00590525,-0.0014495,1742093387.675827
0.23975,0.002,-0.05375,-0.0034484998,0.00637825,-0.0001525,1742093387.6896188
0.23625,0.01,-0.06725,-0.001526,0.0061035,-0.000763,1742093387.704275
0.2295,-0.00025,-0.06575,0.00193775,0.0054932497,-0.0025787498,1742093387.7186701
0.2255,-0.0085,-0.06475,0.00358575,0.00488275,-0.0043182503,1742093387.734085
0.22425,-0.01375,-0.0625,0.0039215,0.0034484998,-0.0051880004,1742093387.747623
0.2305,-0.0165,-0.0535,0.0039215,0.002777,-0.0045165,1742093387.762145
0.23425,-0.01325,-0.0505,0.00399775,0.00238025,-0.00314325,1742093387.7766552
0.23625,-0.011,-0.0555,0.0039215,0.00267025,-0.0028229998,1742093387.791136
0.2345,-0.00975,-0.061,0.0033264998,0.00343325,-0.001831,1742093387.8056152
0.231,0.001,-0.06425,0.003006,0.0033722501,-0.00149525,1742093387.819972
0.2315,0.00975,-0.06225,0.00231925,0.0029907501,-0.00149525,1742093387.83482
0.237,0.01725,-0.0595,0.0020599999,0.0029145,-0.00175475,1742093387.8487098
0.241,0.0125,-0.05975,0.00198375,0.0028229998,-0.0023497501,1742093387.864453
0.243,0.00225,-0.06,0.00279225,0.0029755002,-0.0043639997,1742093387.877572
0.2415,-0.018,-0.0605,0.0035704998,0.003006,-0.00535575,1742093387.892043
0.23925,-0.01825,-0.0625,0.0039825,0.00317375,-0.0055237496,1742093387.906694
0.23075,-0.01275,-0.06825,0.0034790002,0.0033722501,-0.00469975,1742093387.921025
0.229,-0.013,-0.0695,0.0028535,0.0029755002,-0.00343325,1742093387.935481
0.235,-0.01525,-0.0735,0.0031585,0.002533,-0.0037995,1742093387.950068
0.23575,-0.01875,-0.07775,0.00466925,0.0022125002,-0.00543225,1742093387.964611
0.23425,-0.02575,-0.08925,0.0050965,0.00242625,-0.0055695,1742093387.978996
0.234,-0.02275,-0.0965,0.005005,0.00279225,-0.00491325,1742093387.994313
0.233,-0.01525,-0.10475,0.0036315,0.00399775,-0.002777,1742093388.0080361
0.22875,-0.00025,-0.125,0.002655,0.0045777503,-0.0019989999,1742093388.0225458
0.2255,0.00025,-0.13775,0.0017852499,0.0052642496,-0.001953,1742093388.037005
0.2105,0.004,-0.1725,0.0020295,0.0053405,-0.002777,1742093388.051386
0.19875,0.01525,-0.20175,0.001892,0.0051269997,-0.00390625,1742093388.065716
0.168,0.05825,-0.291,0.0012055,0.0054780003,-0.0038299998,1742093388.080101
0.14175,0.0945,-0.366,-0.00057975,0.00671375,-0.0034790002,1742093388.094562
0.05325,0.147,-0.5245,-0.00538625,0.00953675,-0.001236,1742093388.1090171
0.00875,0.13725,-0.5835,-0.00712575,0.00833125,0.00033575002,1742093388.123358
-0.03125,0.11575,-0.6165,-0.0144805005,0.0026854998,0.00213625,1742093388.137826
-0.1025,0.07325,-0.582,-0.0163575,-0.0046845004,0.001419,1742093388.15235
-0.11825,0.048,-0.50675,-0.02778625,-0.02200325,0.015228249,1742093388.1668491
-0.10425,0.0075,-0.27125,-0.03341675,-0.02622975,0.02854925,1742093388.181333
-0.0885,0.00425,-0.14325,-0.0245515,-0.035705503,0.028427,1742093388.1959171
0.08575,-0.0125,0.20275,-0.01658625,-0.04512025,0.019989,1742093388.210485
0.2835,0.00925,0.44725,-0.011306751,-0.0546875,0.014267,1742093388.2249348
0.606,0.08175,0.72175,-0.01206975,-0.053650003,0.00505075,1742093388.239328
0.61475,0.0275,0.683,-0.01857,-0.0383605,0.0061950004,1742093388.2544708
0.57125,-0.0505,0.6085,-0.016540501,-0.02012625,0.0085755,1742093388.26811
0.48475,-0.0935,0.498,-0.0075072497,-0.018310498,0.00039675,1742093388.282635
0.41825,-0.09925,0.403,0.00169375,-0.0061645,-0.01083375,1742093388.2971551
0.2445,-0.11075,0.168,0.0021819999,0.0019225,-0.00891125,1742093388.3115242
0.20525,-0.10275,0.1065,0.0036315,0.0047455,-0.0004425,1742093388.326026
0.21025,-0.05925,0.0645,0.0045777503,0.0028074998,0.0028535,1742093388.3403242
0.21975,-0.03925,0.045,0.005249,0.00109875,0.00440975,1742093388.3546
0.233,-0.016,0.02725,0.0061645,-0.0024414998,0.004074,1742093388.368921
0.2855,0.055,0.01875,0.0061950004,-0.0040587503,0.00320425,1742093388.384258
0.30425,0.08475,0.018,0.00488275,-0.0037537501,-0.0005645,1742093388.397632
0.30925,0.0855,0.01575,0.003769,-0.00187675,-0.00331125,1742093388.412011
0.30475,0.0605,0.01725,0.00177,0.001648,-0.0068055,1742093388.426263
0.2925,0.00525,0.0275,0.0011445,0.0025940002,-0.006607,1742093388.440516
0.285,-0.0145,0.03075,0.000885,0.0031585,-0.0055847503,1742093388.454986
0.274,-0.0245,0.029,0.0007935,0.0041810004,-0.00340275,1742093388.469322
0.25175,-0.02875,0.01925,0.00061025,0.004547,-0.0022735,1742093388.484619
0.2455,-0.0285,0.01425,0.00057975,0.0046539996,-0.001007,1742093388.498017
0.232,-0.02675,-0.00025,0.0005035,0.00444025,-0.00042725,1742093388.5124202
0.2335,-0.02375,0.002,0.00054925,0.00302125,0.000534,1742093388.526918
0.25625,-0.01075,0.0255,0.00074775,0.00225825,0.00036625,1742093388.541234
0.26575,-0.00975,0.03525,0.00077825,0.00204475,4.575e-05,1742093388.555565
0.26825,-0.0135,0.038,0.000473,0.00340275,-0.00045775,1742093388.569929
0.25875,-0.0245,0.02575,0.0002595,0.0042572496,0.0,1742093388.584595
0.252,-0.0255,0.017,3.0500001e-05,0.0052185003,0.00216675,1742093388.5986931
0.24525,-0.0155,0.00725,0.00027475,0.005066,0.002884,1742093388.614337
0.25,-0.00575,0.0075,0.001068,0.00437925,0.0023039998,1742093388.627414
0.25925,0.01475,0.01,0.00137325,0.00428775,0.0012665,1742093388.64167
0.2615,0.0195,0.01275,0.00163275,0.0049285004,-0.0013885,1742093388.655926
0.26,-0.00225,0.0045,0.00198375,0.00555425,-0.0027160002,1742093388.6703029
0.2565,-0.021,-0.00325,0.00242625,0.0061950004,-0.0033264998,1742093388.684711
0.254,-0.03175,-0.00875,0.00267025,0.0068055,-0.0014495,1742093388.699221
0.2535,-0.0155,-0.0135,0.0021819999,0.0068969997,0.00035100002,1742093388.713875
0.25275,-0.00025,-0.016,0.001007,0.0072937496,0.00184625,1742093388.727948
0.24775,0.0105,-0.02675,0.0010375,0.00741575,0.0005035,1742093388.743906
0.24275,-0.00025,-0.0305,0.0016175,0.007431,-0.0029449998,1742093388.7566879
0.235,-0.03,-0.028,0.0020752498,0.0072632497,-0.00355525,1742093388.771241
0.2315,-0.03525,-0.027,0.0025787498,0.0070037497,-0.00355525,1742093388.785739
0.2285,-0.033,-0.02925,0.003006,0.0064239996,-0.0021057501,1742093388.8002188
0.22725,-0.008,-0.037,0.00254825,0.00621025,-0.0009765,1742093388.814722
0.2275,0.004,-0.04,0.00070200005,0.0059967497,-0.000534,1742093388.829154
0.226,-0.002,-0.04525,9.15e-05,0.00614925,-0.00149525,1742093388.844631
0.22325,-0.01725,-0.04775,0.00080875,0.0062255003,-0.0029907501,1742093388.858114
0.21725,-0.03875,-0.047,0.00154125,0.0057525,-0.0027160002,1742093388.8726048
0.2185,-0.037,-0.04125,0.0003815,0.004486,-0.00109875,1742093388.88727
0.23425,-0.01075,-0.04225,-0.00125125,0.00411975,-0.00071725,1742093388.901839
0.23725,0.00175,-0.0425,0.00030525,0.0039825,-0.001068,1742093388.916142
0.234,0.00425,-0.0435,0.00408925,0.004837,-0.0022277501,1742093388.930548
0.224,-0.01875,-0.0485,0.00364675,0.0050965,-0.00254825,1742093388.945014
0.22225,-0.0325,-0.0495,0.00381475,0.0037995,-0.00328075,1742093388.959439
0.22625,-0.036,-0.0455,0.0045012496,0.002884,-0.0031889998,1742093388.9754639
0.228,-0.02575,-0.04475,0.00494375,0.0021972498,-0.0021819999,1742093388.988482
0.2315,-0.00425,-0.04675,0.004547,0.00231925,-0.00175475,1742093389.004288
0.23325,-0.00025,-0.0465,0.0037995,0.0029145,-0.002243,1742093389.0174348
0.23425,-0.00275,-0.04925,0.00355525,0.003006,-0.0030669998,1742093389.031908
0.2335,-0.00925,-0.0525,0.00320425,0.00302125,-0.00364675,1742093389.0463722
0.233,-0.0145,-0.055,0.002884,0.0028229998,-0.0034790002,1742093389.0609422
0.235,-0.008,-0.0575,0.0029755002,0.00267025,-0.0031127501,1742093389.075434
0.238,-0.0015,-0.058,0.0027160002,0.0028687501,-0.0026245,1742093389.0899498
0.24325,0.0005,-0.0615,0.0024414998,0.0031585,-0.00276175,1742093389.104473
0.24325,-0.00475,-0.0645,0.0030975002,0.0034942501,-0.0044250004,1742093389.1187031
0.23425,-0.019,-0.0715,0.003662,0.0034790002,-0.0053405,1742093389.134285
0.22925,-0.02625,-0.0725,0.003418,0.0030669998,-0.0044707498,1742093389.147896
0.22775,-0.03125,-0.07075,0.0028074998,0.0028229998,-0.0029755002,1742093389.1624231
0.2305,-0.025,-0.07225,0.00231925,0.0026092501,-0.00177,1742093389.176888
0.2345,-0.02,-0.075,0.00201425,0.0019989999,-0.00169375,1742093389.191443
0.2385,-0.01675,-0.08075,0.0020295,0.0018005001,-0.00204475,1742093389.205906
0.23825,-0.0155,-0.082,0.001648,0.00184625,-0.002411,1742093389.220468
0.24,-0.0215,-0.07625,0.00149525,0.001709,-0.002655,1742093389.2349372
0.24275,-0.0245,-0.07125,0.00137325,0.00115975,-0.0028535,1742093389.249426
