acc_x,acc_y,acc_z,gyro_x,gyro_y,gyro_z,timestamp
0.2445,-0.01625,0.014,3.0500001e-05,-7.625e-05,-0.000229,1742093323.5567281
0.245,-0.01775,0.01425,0.00010675,-0.0001525,-0.00016775,1742093323.5705678
0.2455,-0.01825,0.0145,0.0001525,-0.000229,-3.0500001e-05,1742093323.585042
0.24625,-0.01925,0.0155,0.00019825,-0.0002135,0.0002595,1742093323.599392
0.2465,-0.01675,0.017,0.00027475,-0.0001525,0.00033575002,1742093323.6147158
0.24725,-0.0145,0.0175,1.5250001e-05,-3.0500001e-05,0.00045775,1742093323.6282198
0.24775,-0.0145,0.017,-9.15e-05,0.000122000005,0.000412,1742093323.643488
0.2465,-0.01475,0.01525,-0.000183,0.0001525,0.00030525,1742093323.656867
0.246,-0.013,0.015,-0.00016775,6.1000002e-05,0.00027475,1742093323.671273
0.24575,-0.0125,0.015,-4.575e-05,4.575e-05,3.0500001e-05,1742093323.6856582
0.24425,-0.01425,0.014,-4.575e-05,-1.5250001e-05,-4.575e-05,1742093323.7002618
0.244,-0.0145,0.01375,-4.575e-05,-9.15e-05,-3.0500001e-05,1742093323.714835
0.24425,-0.01375,0.01425,3.0500001e-05,-7.625e-05,1.5250001e-05,1742093323.7291882
0.24375,-0.01325,0.0145,1.5250001e-05,-1.5250001e-05,-4.575e-05,1742093323.743833
0.24375,-0.01425,0.014,-0.00030525,3.0500001e-05,-7.625e-05,1742093323.758173
0.24525,-0.0165,0.01475,-0.000412,3.0500001e-05,-3.0500001e-05,1742093323.772578
0.24575,-0.018,0.015,-0.0002595,-7.625e-05,9.15e-05,1742093323.787064
0.246,-0.019,0.01575,-0.00016775,-0.00013725001,0.00019825,1742093323.8015769
0.2465,-0.01775,0.01625,-3.0500001e-05,-0.000122000005,0.00042725,1742093323.816119
0.24725,-0.01575,0.01725,0.0,-0.00010675,0.00048825,1742093323.83042
0.24775,-0.0145,0.0175,0.0,-0.0001525,0.00048825,1742093323.8447418
0.24775,-0.01375,0.0175,-3.0500001e-05,-0.000122000005,0.00035100002,1742093323.859133
0.24675,-0.01325,0.016,-9.15e-05,-4.575e-05,0.0003205,1742093323.873576
0.2465,-0.013,0.0155,-0.00019825,6.1000002e-05,0.00030525,1742093323.887947
0.24675,-0.01225,0.0155,-0.000122000005,6.1000002e-05,0.00019825,1742093323.902283
0.247,-0.01275,0.01575,0.0,-3.0500001e-05,0.0,1742093323.9167528
0.24675,-0.0135,0.01575,0.0,-3.0500001e-05,-4.575e-05,1742093323.931241
0.246,-0.01425,0.01525,-3.0500001e-05,0.0,-4.575e-05,1742093323.945749
0.24575,-0.01475,0.01475,0.0,1.5250001e-05,9.15e-05,1742093323.9600909
0.246,-0.01425,0.01475,6.1000002e-05,-3.0500001e-05,0.0001525,1742093323.975585
0.2465,-0.01325,0.016,0.000183,-9.15e-05,0.00010675,1742093323.9888299
0.248,-0.01075,0.018,0.000122000005,-4.575e-05,1.5250001e-05,1742093324.003834
0.2475,-0.0115,0.017,-0.0001525,0.00010675,-0.0002135,1742093324.017807
0.245,-0.0135,0.014,-0.000229,4.575e-05,-0.00027475,1742093324.0322392
0.2445,-0.013,0.01325,-0.000229,-0.00039675,-0.00035100002,1742093324.046835
0.2455,-0.0105,0.01525,-0.000229,-0.00061025,-0.0005035,1742093324.061457
0.24575,-0.01125,0.016,-0.00030525,-0.00065625,-0.00068675,1742093324.076025
0.246,-0.0135,0.016,-0.0005035,-0.000473,-0.0008545,1742093324.090662
0.24575,-0.01725,0.01575,-0.00048825,-0.00039675,-0.000763,1742093324.105257
0.2455,-0.017,0.016,-0.00029,-0.0002135,-0.00054925,1742093324.119851
0.245,-0.01525,0.0165,-0.0002135,-1.5250001e-05,-0.000473,1742093324.1343849
0.2455,-0.015,0.017,-0.0002135,0.000412,-0.00057975,1742093324.148831
0.24575,-0.0155,0.0155,-0.00024425,0.00054925,-0.00068675,1742093324.163946
0.2465,-0.016,0.01475,-0.000183,0.000412,-0.00064075,1742093324.1778078
0.246,-0.017,0.01525,-0.000122000005,0.0002595,-0.00057975,1742093324.19228
0.24575,-0.0175,0.01525,-6.1000002e-05,0.000183,-0.00054925,1742093324.2067652
0.246,-0.0185,0.01525,7.625e-05,0.00013725001,-0.00039675,1742093324.221173
0.2465,-0.01875,0.015,0.000122000005,0.000122000005,-0.00027475,1742093324.23559
0.24675,-0.018,0.01525,0.00033575002,4.575e-05,-7.625e-05,1742093324.249923
0.247,-0.01475,0.01575,0.0004425,7.625e-05,-0.00010675,1742093324.264265
0.24675,-0.01425,0.0155,0.00036625,0.00024425,-0.0002135,1742093324.278815
0.24575,-0.01625,0.01425,0.00027475,0.00029,-0.00019825,1742093324.29384
0.2455,-0.01725,0.01375,0.00027475,0.0002135,-0.00010675,1742093324.3075469
0.24625,-0.01725,0.01475,0.000412,0.00013725001,-9.15e-05,1742093324.321939
0.2465,-0.017,0.0155,0.00059500005,3.0500001e-05,-0.000122000005,1742093324.336263
0.24675,-0.01675,0.01675,0.00065625,-7.625e-05,-0.000122000005,1742093324.350732
0.247,-0.01625,0.01775,0.00051875,-1.5250001e-05,-6.1000002e-05,1742093324.365335
0.24675,-0.01625,0.0175,0.0003205,0.00019825,4.575e-05,1742093324.3796532
0.2465,-0.01625,0.016,0.00027475,0.0002135,7.625e-05,1742093324.393965
0.24575,-0.016,0.015,0.0002595,0.0001525,9.15e-05,1742093324.4083378
0.24475,-0.016,0.014,0.000229,0.000122000005,0.0001525,1742093324.422652
0.24475,-0.016,0.01425,0.00019825,9.15e-05,0.000229,1742093324.437066
0.24575,-0.0155,0.01525,0.00030525,1.5250001e-05,0.0002135,1742093324.451373
0.247,-0.015,0.01675,0.00033575002,3.0500001e-05,0.00016775,1742093324.4657311
0.24725,-0.01525,0.017,0.00027475,0.00024425,0.00016775,1742093324.480116
0.2465,-0.01625,0.01625,0.00027475,0.00033575002,0.000229,1742093324.494378
0.24625,-0.016,0.01575,0.00030525,0.00029,0.000412,1742093324.508727
0.2455,-0.01475,0.01525,0.00033575002,0.00027475,0.0004425,1742093324.522954
0.24475,-0.01475,0.01475,0.00030525,0.00030525,0.00042725,1742093324.537156
0.24525,-0.01475,0.01475,0.00013725001,0.00016775,0.00027475,1742093324.5515819
0.24525,-0.014,0.0145,0.000122000005,7.625e-05,0.00019825,1742093324.565832
0.24475,-0.01425,0.01425,7.625e-05,-4.575e-05,0.00010675,1742093324.5803719
0.2455,-0.01525,0.014,4.575e-05,-0.00013725001,0.00010675,1742093324.594762
0.24625,-0.015,0.01425,9.15e-05,-0.0002135,0.00010675,1742093324.609204
0.247,-0.014,0.01575,0.00010675,-0.00016775,6.1000002e-05,1742093324.624959
0.247,-0.0145,0.016,0.00010675,-0.0001525,-6.1000002e-05,1742093324.6380181
0.24625,-0.01575,0.0145,0.00010675,-0.000122000005,-7.625e-05,1742093324.652576
0.24575,-0.01525,0.01375,0.000122000005,-9.15e-05,-3.0500001e-05,1742093324.6670022
0.2455,-0.0145,0.01375,1.5250001e-05,-0.000122000005,0.0001525,1742093324.6813262
0.24575,-0.015,0.01425,-3.0500001e-05,-0.000183,0.000183,1742093324.695866
0.246,-0.0155,0.01475,-1.5250001e-05,-0.0003205,0.0001525,1742093324.710367
0.24725,-0.016,0.016,-1.5250001e-05,-0.00035100002,0.000183,1742093324.7251992
0.248,-0.016,0.0165,0.00010675,-0.00024425,0.000229,1742093324.739378
0.24825,-0.0155,0.017,0.000122000005,-0.00016775,0.00024425,1742093324.754106
0.248,-0.0155,0.01675,9.15e-05,-7.625e-05,0.00027475,1742093324.768086
0.2465,-0.014,0.016,4.575e-05,6.1000002e-05,0.00033575002,1742093324.782345
0.24575,-0.013,0.01525,4.575e-05,6.1000002e-05,0.00029,1742093324.7966568
0.2455,-0.01325,0.01475,0.000122000005,0.0,0.00013725001,1742093324.811336
0.24575,-0.0145,0.01525,0.0001525,-3.0500001e-05,7.625e-05,1742093324.825839
0.24575,-0.015,0.0155,0.00016775,-4.575e-05,7.625e-05,1742093324.849352
0.2455,-0.015,0.01625,0.00013725001,-1.5250001e-05,0.00013725001,1742093324.894572
0.2455,-0.0155,0.016,0.000122000005,-6.1000002e-05,0.00029,1742093324.894706
0.245,-0.01525,0.01525,0.00013725001,-0.000122000005,0.0003815,1742093324.8948212
0.245,-0.01425,0.015,0.00016775,-0.00016775,0.00045775,1742093324.898547
0.245,-0.01275,0.01525,0.0001525,-0.00024425,0.00051875,1742093324.913769
0.24525,-0.0115,0.01575,9.15e-05,-0.0002595,0.00045775,1742093324.941406
0.2455,-0.012,0.0155,6.1000002e-05,-0.00019825,0.0002595,1742093324.947597
0.2465,-0.0125,0.0155,9.15e-05,-0.00019825,0.000183,1742093324.958519
0.24675,-0.0125,0.01575,0.00010675,-0.000122000005,7.625e-05,1742093324.97157
0.24625,-0.014,0.0155,0.00013725001,-4.575e-05,4.575e-05,1742093324.994001
0.24575,-0.01525,0.01475,0.000229,-4.575e-05,0.0002135,1742093324.999006
0.24625,-0.015,0.0165,0.00027475,-0.00010675,0.00030525,1742093325.014766
0.2465,-0.014,0.017,0.00030525,-7.625e-05,0.00030525,1742093325.027963
0.24625,-0.01375,0.0165,0.000122000005,7.625e-05,0.00036625,1742093325.042273
0.24525,-0.01575,0.0145,1.5250001e-05,0.00010675,0.00051875,1742093325.056354
0.24525,-0.01575,0.014,0.00019825,-0.00016775,0.00067150005,1742093325.071649
0.246,-0.01375,0.0155,0.00033575002,-0.00033575002,0.00065625,1742093325.085404
0.247,-0.01275,0.0165,0.00042725,-0.00030525,0.00054925,1742093325.107921
0.24775,-0.0135,0.01725,0.00033575002,-0.00013725001,0.0005035,1742093325.116499
0.24725,-0.0145,0.0165,0.00024425,-1.5250001e-05,0.0005035,1742093325.128926
0.247,-0.0145,0.016,0.00033575002,0.0,0.00064075,1742093325.144437
0.246,-0.012,0.01675,0.0004425,-3.0500001e-05,0.00065625,1742093325.157739
0.24575,-0.01275,0.017,0.00071725,0.00013725001,-6.1000002e-05,1742093325.172318
0.24525,-0.015,0.017,0.0009765,-0.0002595,-0.001007,1742093325.186257
0.24225,-0.01425,0.01375,0.00093075,-0.001587,-0.00102225,1742093325.200781
0.24325,-0.015,0.0145,0.000763,-0.0008545,0.000229,1742093325.215635
0.246,-0.01475,0.0175,0.00051875,0.00048825,0.0015105,1742093325.229871
0.247,-0.01075,0.01825,0.00036625,-0.0001525,0.001114,1742093325.244006
0.24625,-0.0105,0.0175,0.0004425,-0.00070200005,0.000412,1742093325.258365
0.24575,-0.01175,0.01675,0.00090025004,-0.00074775,-0.00030525,1742093325.2727659
0.2455,-0.01225,0.01675,0.00086975005,-0.00074775,3.0500001e-05,1742093325.287165
0.24575,-0.0095,0.0175,0.00061025,-0.00048825,0.000885,1742093325.301583
0.2455,-0.00775,0.01675,0.00054925,-0.0002135,0.00090025004,1742093325.316043
0.2455,-0.009,0.0165,0.0005035,-0.00035100002,0.0002595,1742093325.330443
0.24575,-0.00975,0.01725,0.000534,-0.00065625,-7.625e-05,1742093325.344929
0.246,-0.01,0.0175,0.00051875,-0.00080875,-0.00013725001,1742093325.359478
0.24775,-0.01225,0.01925,0.00033575002,-0.00030525,0.00030525,1742093325.3750982
0.2485,-0.01225,0.01975,0.00036625,-0.0001525,0.00042725,1742093325.388211
0.2485,-0.0115,0.0195,0.00042725,-0.00036625,0.000534,1742093325.402692
0.24875,-0.0105,0.02075,0.000412,-0.00033575002,0.0005035,1742093325.417035
0.24875,-0.01,0.021,0.00030525,-0.00016775,0.00029,1742093325.4314601
0.2475,-0.00925,0.02025,0.0002135,-0.00013725001,0.0002135,1742093325.446075
0.24725,-0.01,0.0195,7.625e-05,-1.5250001e-05,0.00035100002,1742093325.4604359
0.24825,-0.011,0.0195,0.000122000005,0.00019825,0.0005035,1742093325.4750211
0.2485,-0.01025,0.02,0.000229,0.00030525,0.0005645,1742093325.489302
0.2485,-0.009,0.0205,0.00036625,0.000122000005,0.0003815,1742093325.503874
0.247,-0.0075,0.01975,0.0003815,0.000122000005,0.00029,1742093325.517954
0.247,-0.0075,0.0195,0.00024425,0.00033575002,0.00024425,1742093325.532161
0.24625,-0.0075,0.0185,0.000183,0.00036625,0.000229,1742093325.546655
0.246,-0.00725,0.018,0.000183,0.00039675,9.15e-05,1742093325.5609841
0.245,-0.00775,0.017,0.0002135,0.00039675,0.0,1742093325.57521
0.24475,-0.00875,0.01625,0.00019825,0.00033575002,-3.0500001e-05,1742093325.589609
0.24475,-0.0095,0.016,0.000229,0.00013725001,9.15e-05,1742093325.603863
0.246,-0.00975,0.0175,0.00035100002,7.625e-05,0.00010675,1742093325.618176
0.24625,-0.01,0.018,0.00051875,6.1000002e-05,4.575e-05,1742093325.633188
0.247,-0.01075,0.0185,0.000534,0.000122000005,0.00010675,1742093325.6467562
0.24725,-0.0105,0.01875,0.00054925,0.00030525,0.00024425,1742093325.661089
0.247,-0.0085,0.018,0.000473,0.00035100002,0.00027475,1742093325.675339
0.24725,-0.00825,0.0175,0.0003815,0.0003815,0.00029,1742093325.689858
0.24725,-0.00825,0.01725,0.000412,0.00039675,0.0001525,1742093325.704149
0.24675,-0.00925,0.0165,0.00045775,0.00036625,3.0500001e-05,1742093325.7185469
0.2465,-0.01025,0.01625,0.0005645,0.00030525,-6.1000002e-05,1742093325.733531
0.24725,-0.01175,0.018,0.00065625,0.00030525,-4.575e-05,1742093325.74733
0.24775,-0.012,0.01875,0.00080875,0.00035100002,0.0,1742093325.761657
0.2485,-0.01225,0.0195,0.0007935,0.00042725,6.1000002e-05,1742093325.7760289
0.249,-0.01175,0.0205,0.000763,0.00051875,0.0001525,1742093325.7904499
0.249,-0.01,0.0205,0.00067150005,0.000763,0.000473,1742093325.804825
0.24875,-0.00975,0.01975,0.0005645,0.00105275,0.0005645,1742093325.819168
0.24775,-0.01,0.01825,0.00064075,0.0013885,0.00016775,1742093325.833942
0.24375,-0.01025,0.01275,0.00070200005,0.0010375,-6.1000002e-05,1742093325.847976
0.24225,-0.01,0.01075,0.0007935,0.00061025,4.575e-05,1742093325.862321
0.242,-0.009,0.01225,0.0007935,0.0005645,0.000183,1742093325.876647
0.24225,-0.009,0.013,0.00064075,0.00013725001,0.000229,1742093325.890913
0.2425,-0.01025,0.01325,0.00068675,6.1000002e-05,0.000229,1742093325.905164
0.24325,-0.0105,0.014,0.000763,6.1000002e-05,0.00029,1742093325.919443
0.24425,-0.00975,0.01525,0.000763,-6.1000002e-05,0.00039675,1742093325.933804
0.24575,-0.008,0.0165,0.00070200005,-3.0500001e-05,0.0003815,1742093325.948343
0.24625,-0.00825,0.016,0.0005035,0.000183,0.0003205,1742093325.9641159
0.24775,-0.00925,0.01475,0.0004425,0.000183,0.00029,1742093325.977032
0.24825,-0.009,0.01475,0.0004425,0.00010675,0.00035100002,1742093325.991345
0.24975,-0.00775,0.017,0.00045775,0.00013725001,0.00035100002,1742093326.005754
0.25,-0.00675,0.01775,0.00045775,0.00019825,0.00029,1742093326.020052
0.25,-0.00675,0.01775,0.00042725,0.0003815,7.625e-05,1742093326.034362
0.24875,-0.007,0.0165,0.000412,0.0005035,0.0,1742093326.048892
0.24775,-0.00675,0.01525,0.00029,0.00062550005,-0.00010675,1742093326.063936
0.24575,-0.0075,0.013,0.0002135,0.00061025,-0.00013725001,1742093326.0776699
0.2455,-0.0085,0.01275,0.00030525,0.0003815,-0.0001525,1742093326.0920992
0.246,-0.00825,0.015,0.00039675,0.00024425,-0.0001525,1742093326.10641
0.24625,-0.00775,0.01625,0.0004425,0.00019825,-0.00016775,1742093326.120888
0.246,-0.0075,0.0165,0.00024425,0.00039675,-0.0001525,1742093326.135346
0.2455,-0.0065,0.016,0.00010675,0.00054925,-0.00016775,1742093326.149726
0.245,-0.007,0.0145,0.0,0.00067150005,-0.00027475,1742093326.164033
0.24375,-0.00875,0.012,0.0,0.00061025,-0.00027475,1742093326.178429
0.24375,-0.009,0.01125,0.0,0.00033575002,-0.00013725001,1742093326.193658
0.24425,-0.009,0.0115,7.625e-05,0.000183,-7.625e-05,1742093326.207319
0.24425,-0.00825,0.01175,0.000122000005,-7.625e-05,1.5250001e-05,1742093326.2218392
0.244,-0.00725,0.01175,4.575e-05,-0.0001525,0.00010675,1742093326.236248
0.24425,-0.00725,0.01225,-4.575e-05,-0.00016775,0.000183,1742093326.2507331
0.24425,-0.0065,0.01275,-0.00019825,-0.00019825,0.0002135,1742093326.2651432
0.24525,-0.006,0.014,-0.000183,-0.00019825,0.0001525,1742093326.279607
0.246,-0.007,0.01375,-0.0001525,-7.625e-05,-9.15e-05,1742093326.294267
0.2465,-0.00975,0.01375,-0.0001525,-6.1000002e-05,-0.000122000005,1742093326.308789
0.24725,-0.01025,0.014,-9.15e-05,-9.15e-05,-6.1000002e-05,1742093326.323443
0.248,-0.01,0.0145,-7.625e-05,-0.000122000005,0.0,1742093326.3380291
0.2485,-0.01,0.01475,0.0,-0.00010675,3.0500001e-05,1742093326.352353
0.24875,-0.00975,0.0155,3.0500001e-05,-9.15e-05,1.5250001e-05,1742093326.366804
0.249,-0.00925,0.016,3.0500001e-05,-3.0500001e-05,0.0,1742093326.381282
0.249,-0.009,0.016,6.1000002e-05,0.00016775,-0.000122000005,1742093326.395623
0.24825,-0.00925,0.01475,6.1000002e-05,0.00024425,-0.0001525,1742093326.410073
0.24775,-0.009,0.01425,6.1000002e-05,0.00029,-0.000183,1742093326.424725
0.24675,-0.00925,0.01375,9.15e-05,0.0002595,-0.00019825,1742093326.439032
0.2465,-0.009,0.014,0.00019825,0.0002135,-0.000229,1742093326.453951
0.2455,-0.008,0.013,0.00019825,0.000229,-0.000229,1742093326.467926
0.24475,-0.00825,0.01225,7.625e-05,0.00019825,-0.00019825,1742093326.482333
0.24475,-0.00975,0.01225,6.1000002e-05,0.00016775,-0.00019825,1742093326.496813
0.245,-0.01,0.0125,9.15e-05,0.000122000005,-0.000183,1742093326.5112278
0.246,-0.0095,0.013,0.0001525,3.0500001e-05,-0.00010675,1742093326.526352
0.24725,-0.0085,0.01475,0.00010675,3.0500001e-05,-9.15e-05,1742093326.540054
0.2475,-0.009,0.015,6.1000002e-05,9.15e-05,-7.625e-05,1742093326.5544388
0.2475,-0.0095,0.015,0.000122000005,9.15e-05,-7.625e-05,1742093326.568949
0.24725,-0.00875,0.015,0.000183,0.00010675,-9.15e-05,1742093326.583987
0.24725,-0.00775,0.0145,0.000122000005,0.000183,-0.00010675,1742093326.597617
0.247,-0.00825,0.01375,6.1000002e-05,0.0002595,-0.000122000005,1742093326.61216
0.24675,-0.0085,0.01325,6.1000002e-05,0.000229,-0.0001525,1742093326.626633
0.2465,-0.00825,0.01325,7.625e-05,0.00019825,-0.00016775,1742093326.6410508
0.24625,-0.008,0.0135,1.5250001e-05,0.00013725001,-0.00016775,1742093326.655396
0.24625,-0.008,0.01375,-3.0500001e-05,0.000122000005,-0.00019825,1742093326.670034
0.246,-0.0085,0.0135,-4.575e-05,0.000122000005,-0.00030525,1742093326.684535
0.24575,-0.01,0.013,-4.575e-05,0.00010675,-0.0003205,1742093326.699051
0.24525,-0.0105,0.0125,0.0,7.625e-05,-0.0002595,1742093326.714008
0.24525,-0.0105,0.01225,1.5250001e-05,4.575e-05,-0.00019825,1742093326.7277
0.24575,-0.01,0.0125,1.5250001e-05,3.0500001e-05,-0.000122000005,1742093326.742023
0.2465,-0.00975,0.0125,-4.575e-05,6.1000002e-05,1.5250001e-05,1742093326.7564092
0.2475,-0.01025,0.012,-7.625e-05,7.625e-05,7.625e-05,1742093326.770763
0.24775,-0.01,0.012,-1.5250001e-05,6.1000002e-05,0.000122000005,1742093326.785162
0.249,-0.00925,0.013,0.0,6.1000002e-05,0.000122000005,1742093326.7995148
0.24925,-0.00925,0.01325,-1.5250001e-05,0.000122000005,0.00013725001,1742093326.814042
0.2505,-0.00875,0.0145,1.5250001e-05,0.00016775,0.00010675,1742093326.828299
0.2505,-0.0085,0.01525,6.1000002e-05,0.00024425,3.0500001e-05,1742093326.843288
0.25,-0.00875,0.01525,4.575e-05,0.0003815,-0.000122000005,1742093326.856805
0.24825,-0.0095,0.014,0.0,0.00042725,-0.00010675,1742093326.8712618
0.2475,-0.0095,0.0135,7.625e-05,0.00045775,-1.5250001e-05,1742093326.8857322
0.2475,-0.00825,0.014,0.0001525,0.0004425,-4.575e-05,1742093326.9001338
0.24675,-0.00775,0.0135,0.00019825,0.00051875,-0.00013725001,1742093326.914753
0.2455,-0.00875,0.0115,0.00016775,0.00054925,-0.00013725001,1742093326.929055
0.24525,-0.00875,0.011,0.0001525,0.00045775,-4.575e-05,1742093326.943956
0.2455,-0.00775,0.01225,0.00016775,0.0003815,-4.575e-05,1742093326.957941
0.2455,-0.00775,0.01275,0.00016775,0.00033575002,-7.625e-05,1742093326.972349
0.24525,-0.00825,0.0125,0.000122000005,0.00036625,-0.00013725001,1742093326.986699
0.244,-0.00925,0.011,9.15e-05,0.00036625,-0.00013725001,1742093327.001044
0.244,-0.00925,0.011,9.15e-05,0.000229,-3.0500001e-05,1742093327.0154428
0.24525,-0.008,0.0125,9.15e-05,0.00016775,-4.575e-05,1742093327.03007
0.24525,-0.008,0.0125,0.0,0.0002135,-0.00016775,1742093327.044414
0.24425,-0.00975,0.011,-4.575e-05,0.00024425,-0.000183,1742093327.058926
0.2435,-0.0105,0.00975,-6.1000002e-05,0.000229,-0.00013725001,1742093327.073528
0.244,-0.01,0.0105,4.575e-05,1.5250001e-05,-1.5250001e-05,1742093327.087908
0.24525,-0.0095,0.01225,0.00010675,-9.15e-05,1.5250001e-05,1742093327.1022458
0.24625,-0.0095,0.01325,9.15e-05,0.0,6.1000002e-05,1742093327.11651
0.24675,-0.01025,0.012,4.575e-05,9.15e-05,0.000122000005,1742093327.1308181
0.24675,-0.01,0.01175,7.625e-05,0.00013725001,0.000229,1742093327.14508
0.247,-0.00775,0.01125,0.000122000005,0.00010675,0.0002135,1742093327.159314
0.247,-0.00775,0.011,4.575e-05,7.625e-05,0.00019825,1742093327.1737258
0.2475,-0.008,0.011,-1.5250001e-05,9.15e-05,0.000229,1742093327.188031
0.24775,-0.0075,0.01175,-4.575e-05,6.1000002e-05,0.00024425,1742093327.202608
0.24825,-0.007,0.01225,-1.5250001e-05,3.0500001e-05,7.625e-05,1742093327.2170491
0.248,-0.00775,0.01225,0.0,4.575e-05,-1.5250001e-05,1742093327.2314072
0.2475,-0.0085,0.01175,0.0,9.15e-05,-3.0500001e-05,1742093327.245805
0.24625,-0.009,0.011,0.0,7.625e-05,1.5250001e-05,1742093327.260222
0.246,-0.00875,0.011,3.0500001e-05,3.0500001e-05,0.000122000005,1742093327.2752142
0.2455,-0.009,0.01025,6.1000002e-05,1.5250001e-05,0.00013725001,1742093327.288969
0.2455,-0.0085,0.0105,0.00010675,-3.0500001e-05,0.000183,1742093327.3038988
0.24575,-0.008,0.01125,0.000183,-6.1000002e-05,0.00024425,1742093327.317684
0.24575,-0.00775,0.01125,0.00019825,-6.1000002e-05,0.000229,1742093327.332047
0.24575,-0.00775,0.0105,0.000122000005,-0.00010675,0.000229,1742093327.346377
0.24675,-0.0075,0.0115,7.625e-05,-0.000122000005,0.0002595,1742093327.360724
0.24675,-0.0075,0.01175,0.0,-0.000122000005,0.00019825,1742093327.375434
0.247,-0.0085,0.0115,-4.575e-05,-0.000122000005,0.000183,1742093327.389725
0.247,-0.00825,0.01175,-4.575e-05,-0.000122000005,0.00016775,1742093327.4041579
0.24625,-0.00725,0.01125,-3.0500001e-05,-0.00010675,6.1000002e-05,1742093327.4186418
0.246,-0.00775,0.01075,-9.15e-05,-9.15e-05,0.0,1742093327.433984
0.24575,-0.0085,0.01025,-0.00013725001,-0.00010675,-6.1000002e-05,1742093327.447705
0.2465,-0.00875,0.0115,-0.000122000005,-0.000183,-4.575e-05,1742093327.4621499
0.24675,-0.009,0.012,-0.000122000005,-0.000183,0.0,1742093327.476712
0.247,-0.0095,0.01275,-0.00010675,-0.0001525,6.1000002e-05,1742093327.49123
0.24675,-0.00875,0.01275,-3.0500001e-05,-0.00013725001,0.00013725001,1742093327.505684
0.246,-0.0075,0.012,-1.5250001e-05,-0.00010675,0.00013725001,1742093327.5201018
0.24625,-0.0075,0.012,-3.0500001e-05,-1.5250001e-05,0.00010675,1742093327.534624
0.246,-0.00825,0.01125,-4.575e-05,-3.0500001e-05,0.00010675,1742093327.5491168
0.24575,-0.00825,0.011,-3.0500001e-05,-9.15e-05,0.000122000005,1742093327.5641348
0.246,-0.008,0.0115,4.575e-05,-0.00019825,0.000183,1742093327.577798
0.24675,-0.007,0.013,3.0500001e-05,-0.00019825,0.000183,1742093327.592314
0.24675,-0.00725,0.013,-4.575e-05,-0.000122000005,0.000183,1742093327.606694
0.2465,-0.00825,0.0125,-1.5250001e-05,-0.00010675,0.000183,1742093327.621155
0.2465,-0.00775,0.01275,7.625e-05,-0.000183,0.00019825,1742093327.6356502
0.247,-0.00675,0.013,0.000122000005,-0.00019825,0.00016775,1742093327.6499999
0.2465,-0.007,0.01275,0.0001525,-0.00019825,0.00010675,1742093327.664341
0.2465,-0.0075,0.013,0.00010675,-0.000183,3.0500001e-05,1742093327.6786208
0.247,-0.00675,0.01375,7.625e-05,-0.00016775,4.575e-05,1742093327.693871
0.24775,-0.00625,0.01425,9.15e-05,-0.00013725001,0.0,1742093327.7073972
0.248,-0.0055,0.014,7.625e-05,-4.575e-05,-4.575e-05,1742093327.721801
0.247,-0.0055,0.01275,-4.575e-05,0.000122000005,-0.000122000005,1742093327.736448
0.24525,-0.006,0.01,-7.625e-05,0.00010675,-0.00013725001,1742093327.7510211
0.24475,-0.00625,0.0095,-3.0500001e-05,-0.000122000005,-0.00019825,1742093327.7656078
0.246,-0.007,0.012,1.5250001e-05,-0.0002135,-0.00019825,1742093327.780122
0.24675,-0.007,0.01325,6.1000002e-05,-0.0002135,-0.0002135,1742093327.7946272
0.247,-0.0075,0.0135,3.0500001e-05,-0.0001525,-0.00016775,1742093327.809089
0.2465,-0.00775,0.0125,-1.5250001e-05,-0.00010675,-0.00010675,1742093327.825226
0.24625,-0.0075,0.01225,-9.15e-05,-6.1000002e-05,-4.575e-05,1742093327.83818
0.2465,-0.008,0.01225,-7.625e-05,-6.1000002e-05,-6.1000002e-05,1742093327.853774
0.247,-0.0085,0.01275,3.0500001e-05,-9.15e-05,-0.0001525,1742093327.867286
0.248,-0.00925,0.01375,4.575e-05,-9.15e-05,-0.0001525,1742093327.881699
0.2485,-0.009,0.01475,4.575e-05,-3.0500001e-05,-0.00010675,1742093327.896197
0.2485,-0.0085,0.015,3.0500001e-05,4.575e-05,-9.15e-05,1742093327.9105961
0.248,-0.0085,0.015,-1.5250001e-05,0.000122000005,-9.15e-05,1742093327.925024
0.24725,-0.00825,0.01425,-1.5250001e-05,0.0002135,-0.00016775,1742093327.939629
0.2455,-0.008,0.01225,-3.0500001e-05,0.0002135,-0.00019825,1742093327.954108
0.24525,-0.0085,0.01175,-1.5250001e-05,0.00013725001,-0.0001525,1742093327.968596
0.245,-0.009,0.01175,6.1000002e-05,6.1000002e-05,-0.000122000005,1742093327.982997
0.245,-0.00825,0.01225,0.00016775,-7.625e-05,-7.625e-05,1742093327.997396
0.24575,-0.008,0.01275,0.00013725001,-6.1000002e-05,-7.625e-05,1742093328.011899
0.246,-0.0085,0.012,6.1000002e-05,0.0,6.1000002e-05,1742093328.026169
0.247,-0.00775,0.012,9.15e-05,-1.5250001e-05,0.00016775,1742093328.040591
0.24775,-0.00625,0.01275,0.000122000005,-1.5250001e-05,0.00024425,1742093328.055012
0.24825,-0.00525,0.013,0.00010675,9.15e-05,0.000183,1742093328.069288
0.24775,-0.0065,0.01175,9.15e-05,0.00013725001,0.000122000005,1742093328.084069
0.24825,-0.0075,0.01275,0.00048825,6.1000002e-05,-0.00096125,1742093328.09798
0.246,-0.0075,0.01275,0.00074775,-0.00071725,-0.00181575,1742093328.113617
0.2435,-0.0075,0.011,0.00042725,-0.00109875,-0.00086975005,1742093328.1269162
0.248,-0.00975,0.015,0.00029,0.00024425,0.000229,1742093328.141226
0.2495,-0.0095,0.01575,0.00016775,0.00093075,0.00067150005,1742093328.155563
0.2475,-0.008,0.01325,4.575e-05,-0.0003815,1.5250001e-05,1742093328.16997
0.24575,-0.007,0.01175,0.00030525,-0.0002595,-0.000122000005,1742093328.184407
0.24775,-0.0075,0.014,0.0002595,0.0001525,0.00010675,1742093328.198824
0.2475,-0.0065,0.0145,7.625e-05,-0.00010675,1.5250001e-05,1742093328.2140958
0.24625,-0.0065,0.0135,0.00016775,0.0002595,-0.0001525,1742093328.227842
0.246,-0.00825,0.01325,0.000122000005,0.00033575002,-0.00016775,1742093328.2422268
0.2455,-0.009,0.01275,3.0500001e-05,1.5250001e-05,-0.00016775,1742093328.2565918
0.2455,-0.00875,0.01325,0.00010675,9.15e-05,-4.575e-05,1742093328.271015
0.24625,-0.00875,0.01375,0.0001525,0.0001525,4.575e-05,1742093328.285347
0.2465,-0.0085,0.01375,0.00016775,-1.5250001e-05,4.575e-05,1742093328.299715
0.24625,-0.00675,0.01375,0.000183,3.0500001e-05,4.575e-05,1742093328.314144
0.2465,-0.007,0.0135,7.625e-05,0.00013725001,0.00010675,1742093328.3282602
0.2455,-0.007,0.01225,0.0,0.00010675,0.00010675,1742093328.3439329
0.24525,-0.007,0.012,6.1000002e-05,6.1000002e-05,0.00010675,1742093328.3566809
0.24575,-0.00725,0.012,9.15e-05,0.0,9.15e-05,1742093328.370902
0.24625,-0.007,0.01225,9.15e-05,-6.1000002e-05,6.1000002e-05,1742093328.3853362
0.24675,-0.00675,0.013,1.5250001e-05,-1.5250001e-05,-1.5250001e-05,1742093328.399785
0.24725,-0.00825,0.0135,-1.5250001e-05,6.1000002e-05,-6.1000002e-05,1742093328.41429
0.24725,-0.00925,0.013,3.0500001e-05,1.5250001e-05,-6.1000002e-05,1742093328.4286451
0.2475,-0.009,0.01275,7.625e-05,-1.5250001e-05,-1.5250001e-05,1742093328.44383
0.2475,-0.0085,0.013,0.00013725001,1.5250001e-05,7.625e-05,1742093328.457539
0.2475,-0.008,0.0135,0.00013725001,4.575e-05,7.625e-05,1742093328.4717371
0.24725,-0.008,0.0135,0.000122000005,7.625e-05,6.1000002e-05,1742093328.486018
0.247,-0.00825,0.01325,4.575e-05,0.00016775,0.0,1742093328.500285
0.2465,-0.008,0.0125,3.0500001e-05,0.00016775,0.0,1742093328.514509
0.24625,-0.00825,0.012,9.15e-05,0.000122000005,1.5250001e-05,1742093328.5287302
0.24625,-0.008,0.012,9.15e-05,7.625e-05,1.5250001e-05,1742093328.5430112
0.247,-0.008,0.01275,6.1000002e-05,6.1000002e-05,4.575e-05,1742093328.557338
0.24775,-0.00775,0.01375,6.1000002e-05,0.000122000005,3.0500001e-05,1742093328.57157
0.2475,-0.008,0.01325,3.0500001e-05,0.000183,3.0500001e-05,1742093328.5857909
0.24725,-0.00825,0.013,6.1000002e-05,0.00016775,9.15e-05,1742093328.600118
0.24775,-0.00675,0.0135,0.00010675,0.00013725001,7.625e-05,1742093328.614509
0.2475,-0.0065,0.01375,4.575e-05,0.000183,0.0,1742093328.628884
0.2465,-0.00775,0.0125,1.5250001e-05,0.00024425,-1.5250001e-05,1742093328.643903
0.246,-0.00775,0.01175,6.1000002e-05,0.0002135,3.0500001e-05,1742093328.657501
0.24625,-0.00625,0.01275,0.00010675,0.00016775,3.0500001e-05,1742093328.671796
0.24625,-0.00575,0.01275,0.00010675,0.0001525,-1.5250001e-05,1742093328.686218
0.246,-0.00625,0.012,-1.5250001e-05,0.0002135,-7.625e-05,1742093328.7006788
0.2445,-0.008,0.01025,-3.0500001e-05,0.00019825,-7.625e-05,1742093328.7151139
0.245,-0.008,0.01075,7.625e-05,1.5250001e-05,-3.0500001e-05,1742093328.729503
0.2455,-0.00725,0.0125,0.00013725001,-4.575e-05,-6.1000002e-05,1742093328.744034
0.24525,-0.00775,0.01275,1.5250001e-05,0.0,-3.0500001e-05,1742093328.758346
0.245,-0.00875,0.01175,-6.1000002e-05,4.575e-05,4.575e-05,1742093328.772676
0.245,-0.00875,0.0115,-0.00010675,3.0500001e-05,0.000122000005,1742093328.78703
0.2455,-0.00825,0.012,-7.625e-05,-9.15e-05,0.00019825,1742093328.801426
0.247,-0.0075,0.01275,-4.575e-05,-0.00010675,0.000183,1742093328.815778
0.24725,-0.00725,0.01325,0.0,-0.00010675,0.00010675,1742093328.830215
0.2475,-0.00575,0.0135,-3.0500001e-05,-9.15e-05,9.15e-05,1742093328.8446772
0.24725,-0.00525,0.0135,-0.00013725001,4.575e-05,1.5250001e-05,1742093328.859015
0.24625,-0.0065,0.01225,-0.000183,0.000122000005,-3.0500001e-05,1742093328.874777
0.24575,-0.00725,0.01125,-0.00013725001,7.625e-05,-7.625e-05,1742093328.888049
0.245,-0.00775,0.0095,-0.00010675,1.5250001e-05,-4.575e-05,1742093328.9024909
0.2455,-0.008,0.01,-7.625e-05,-6.1000002e-05,4.575e-05,1742093328.9168751
0.24575,-0.008,0.011,-1.5250001e-05,-0.00024425,0.00013725001,1742093328.931318
0.247,-0.008,0.013,1.5250001e-05,-0.00029,0.0001525,1742093328.945687
0.2475,-0.00825,0.0135,-3.0500001e-05,-0.00019825,0.00024425,1742093328.9601321
0.2475,-0.0085,0.013,-9.15e-05,-0.000183,0.00030525,1742093328.974863
0.24725,-0.00875,0.01275,1.5250001e-05,-0.00016775,0.00035100002,1742093328.9890099
0.24625,-0.00825,0.0125,0.0001525,-0.000183,0.00036625,1742093329.004065
0.2465,-0.008,0.0125,0.000229,-0.00024425,0.00039675,1742093329.017687
0.2475,-0.008,0.013,0.0002595,-0.00033575002,0.000473,1742093329.0321438
0.24875,-0.00675,0.01475,0.00030525,-0.00027475,0.00048825,1742093329.0465229
0.249,-0.0055,0.0155,0.00029,-6.1000002e-05,0.0004425,1742093329.061055
0.24875,-0.005,0.01425,0.000229,9.15e-05,0.000412,1742093329.075531
0.24775,-0.005,0.01275,0.00019825,0.000229,0.00039675,1742093329.089679
0.24575,-0.00375,0.0095,0.00019825,0.000183,0.000412,1742093329.104015
0.24525,-0.003,0.0095,0.00019825,3.0500001e-05,0.00035100002,1742093329.118311
0.246,-0.003,0.012,0.0002135,-6.1000002e-05,0.0002595,1742093329.1326778
0.24625,-0.00375,0.013,0.0002135,-0.0001525,0.0001525,1742093329.147004
0.24675,-0.00425,0.0135,0.00013725001,-0.00013725001,9.15e-05,1742093329.1614
0.2475,-0.0045,0.015,9.15e-05,-6.1000002e-05,7.625e-05,1742093329.175811
0.24725,-0.0045,0.015,7.625e-05,4.575e-05,-3.0500001e-05,1742093329.190188
0.2455,-0.00475,0.01325,9.15e-05,9.15e-05,-7.625e-05,1742093329.204722
0.24475,-0.00525,0.01225,0.00010675,0.00010675,-0.00013725001,1742093329.219108
0.244,-0.0065,0.0115,0.000122000005,1.5250001e-05,-0.0001525,1742093329.233744
0.2445,-0.00675,0.012,0.00016775,-7.625e-05,-0.00013725001,1742093329.2480159
0.245,-0.0065,0.0125,0.00019825,-0.00019825,-7.625e-05,1742093329.262531
0.2465,-0.006,0.01375,0.0001525,-0.0002135,-4.575e-05,1742093329.276938
0.247,-0.00575,0.0145,0.00010675,-0.00019825,-4.575e-05,1742093329.291353
0.247,-0.0055,0.014,0.00010675,-0.00016775,-7.625e-05,1742093329.3059368
0.2465,-0.005,0.01375,0.0,-0.00016775,-0.00013725001,1742093329.3203819
0.24625,-0.00575,0.01325,0.0,-0.00016775,-0.00016775,1742093329.3347719
0.24625,-0.00625,0.013,0.0,-0.00024425,-0.00016775,1742093329.349289
0.247,-0.00575,0.0135,0.0,-0.00024425,-0.000122000005,1742093329.363789
0.247,-0.00575,0.01325,-1.5250001e-05,-0.00019825,-7.625e-05,1742093329.3783832
0.2465,-0.00625,0.013,-4.575e-05,-0.00013725001,0.0,1742093329.393706
0.24675,-0.00675,0.0125,0.0,-0.00016775,3.0500001e-05,1742093329.407369
0.24725,-0.006,0.013,0.00010675,-0.00019825,7.625e-05,1742093329.421789
0.2475,-0.00475,0.013,7.625e-05,-0.0001525,9.15e-05,1742093329.436221
0.24725,-0.00475,0.0125,1.5250001e-05,-7.625e-05,0.000122000005,1742093329.45062
0.24675,-0.005,0.01275,4.575e-05,-0.00010675,9.15e-05,1742093329.464981
0.247,-0.00475,0.01325,9.15e-05,-0.000183,-3.0500001e-05,1742093329.479577
0.24775,-0.00575,0.01475,9.15e-05,-0.0001525,-6.1000002e-05,1742093329.494088
0.2475,-0.0065,0.01475,7.625e-05,-9.15e-05,-6.1000002e-05,1742093329.508682
0.247,-0.0065,0.0145,0.00010675,-3.0500001e-05,-3.0500001e-05,1742093329.52306
0.2465,-0.00625,0.0145,9.15e-05,-3.0500001e-05,1.5250001e-05,1742093329.5374851
0.24675,-0.006,0.0145,0.0001525,0.0,3.0500001e-05,1742093329.5517921
0.24625,-0.005,0.01425,0.000183,0.0,1.5250001e-05,1742093329.566043
0.2455,-0.0045,0.01375,0.00013725001,1.5250001e-05,3.0500001e-05,1742093329.580405
0.24575,-0.004,0.0135,0.00013725001,0.0,4.575e-05,1742093329.5946932
0.24575,-0.00375,0.0135,0.00013725001,-3.0500001e-05,0.0,1742093329.609018
0.24575,-0.004,0.0135,4.575e-05,-0.00010675,-0.00010675,1742093329.624414
0.246,-0.00475,0.0135,-1.5250001e-05,-0.00010675,-0.000122000005,1742093329.637988
0.24575,-0.005,0.01375,-1.5250001e-05,-0.000122000005,-0.0001525,1742093329.65257
0.246,-0.0055,0.015,0.0,-0.0001525,-0.00016775,1742093329.667042
0.246,-0.0055,0.0155,-7.625e-05,-0.00010675,-0.000183,1742093329.681546
0.24575,-0.0065,0.0145,-0.000122000005,-4.575e-05,-0.0002135,1742093329.696098
0.24525,-0.007,0.01375,-0.00013725001,-1.5250001e-05,-0.0001525,1742093329.7107809
0.24525,-0.00725,0.01325,-9.15e-05,-7.625e-05,-0.00010675,1742093329.7253911
0.2455,-0.0065,0.0135,-3.0500001e-05,-0.00019825,-1.5250001e-05,1742093329.739979
0.2465,-0.00575,0.01475,-4.575e-05,-0.0002135,0.0,1742093329.754357
0.247,-0.00575,0.01525,-4.575e-05,-0.0002135,-1.5250001e-05,1742093329.768981
0.247,-0.006,0.015,-0.000122000005,-0.000122000005,-3.0500001e-05,1742093329.783926
0.247,-0.006,0.01425,-0.000122000005,-9.15e-05,-1.5250001e-05,1742093329.797974
0.247,-0.0055,0.01425,-0.00010675,-9.15e-05,-4.575e-05,1742093329.813785
0.24775,-0.0055,0.01525,-0.0001525,-0.00010675,-4.575e-05,1742093329.827115
0.248,-0.0055,0.0155,-0.000183,-4.575e-05,-6.1000002e-05,1742093329.841656
0.248,-0.00575,0.01525,-0.000183,1.5250001e-05,-6.1000002e-05,1742093329.8560681
0.24775,-0.00575,0.015,-0.00010675,0.00010675,-7.625e-05,1742093329.8705769
0.24675,-0.0055,0.014,-6.1000002e-05,9.15e-05,-4.575e-05,1742093329.885088
0.247,-0.00425,0.0145,-6.1000002e-05,4.575e-05,-3.0500001e-05,1742093329.899552
0.2475,-0.003,0.015,-0.000122000005,0.00010675,-0.000122000005,1742093329.914229
0.24725,-0.0045,0.01475,-0.0001525,0.0001525,-0.000183,1742093329.9283788
0.24675,-0.00525,0.01425,-0.00010675,0.00010675,-0.0002135,1742093329.944096
0.2455,-0.00425,0.013,-9.15e-05,7.625e-05,-0.0002135,1742093329.9574962
0.245,-0.00375,0.01275,-0.00010675,3.0500001e-05,-0.00024425,1742093329.971991
0.24525,-0.006,0.0135,-9.15e-05,0.0,-0.00027475,1742093329.986499
0.2455,-0.007,0.0135,-3.0500001e-05,-7.625e-05,-0.000229,1742093330.0009532
0.24625,-0.007,0.01425,-3.0500001e-05,-9.15e-05,-0.00010675,1742093330.015497
0.2465,-0.0065,0.01475,-3.0500001e-05,-6.1000002e-05,0.0,1742093330.029881
0.2465,-0.006,0.015,-1.5250001e-05,-6.1000002e-05,1.5250001e-05,1742093330.044412
0.24675,-0.006,0.01425,-4.575e-05,-6.1000002e-05,0.0,1742093330.058917
0.247,-0.0065,0.014,-0.00010675,0.0,-4.575e-05,1742093330.073322
0.24775,-0.00675,0.0145,-9.15e-05,-3.0500001e-05,-6.1000002e-05,1742093330.087862
0.248,-0.00625,0.0155,-9.15e-05,-6.1000002e-05,-0.00010675,1742093330.102497
0.24775,-0.00525,0.01525,-0.000122000005,-3.0500001e-05,-0.00016775,1742093330.1169422
0.24725,-0.006,0.01475,-4.575e-05,0.00010675,-0.00019825,1742093330.131378
0.246,-0.007,0.0135,1.5250001e-05,0.00013725001,-0.00019825,1742093330.145764
0.246,-0.00675,0.0135,4.575e-05,0.00010675,-0.00016775,1742093330.160198
0.246,-0.0065,0.0135,0.0,7.625e-05,-0.00010675,1742093330.1754088
0.246,-0.0065,0.01425,-1.5250001e-05,9.15e-05,-0.00010675,1742093330.1891131
0.24575,-0.0075,0.0145,3.0500001e-05,9.15e-05,-0.00010675,1742093330.203831
0.2455,-0.00825,0.014,6.1000002e-05,6.1000002e-05,-3.0500001e-05,1742093330.217776
0.24575,-0.00775,0.014,6.1000002e-05,1.5250001e-05,0.0001525,1742093330.232073
0.24625,-0.007,0.014,7.625e-05,1.5250001e-05,0.000183,1742093330.2463942
0.24625,-0.00725,0.01375,0.00013725001,0.0,0.00024425,1742093330.260669
0.24625,-0.0065,0.014,0.0001525,-3.0500001e-05,0.00029,1742093330.275445
0.2465,-0.00575,0.01425,0.00016775,-6.1000002e-05,0.0003205,1742093330.28948
0.24675,-0.005,0.0145,0.0001525,-9.15e-05,0.0003815,1742093330.3039649
0.24725,-0.00375,0.01575,0.0001525,-4.575e-05,0.00033575002,1742093330.318174
0.24775,-0.004,0.01575,9.15e-05,6.1000002e-05,0.00024425,1742093330.332417
0.247,-0.004,0.014,4.575e-05,9.15e-05,0.0002595,1742093330.346671
0.24625,-0.0035,0.01275,3.0500001e-05,9.15e-05,0.000229,1742093330.360924
0.24525,-0.00325,0.01225,4.575e-05,0.0,0.00013725001,1742093330.3756878
0.2455,-0.004,0.013,7.625e-05,-0.00010675,7.625e-05,1742093330.389631
0.24625,-0.00425,0.014,7.625e-05,-0.00016775,0.0,1742093330.404276
0.24725,-0.00525,0.01575,1.5250001e-05,-0.000122000005,0.0,1742093330.418294
0.24725,-0.00575,0.01575,-6.1000002e-05,0.0,0.0,1742093330.433544
0.246,-0.00575,0.01475,-3.0500001e-05,0.0,1.5250001e-05,1742093330.446986
0.246,-0.0055,0.0145,0.0,-4.575e-05,0.000122000005,1742093330.46127
0.246,-0.004,0.01425,1.5250001e-05,-6.1000002e-05,0.000122000005,1742093330.475585
0.246,-0.00425,0.01375,0.0,-6.1000002e-05,9.15e-05,1742093330.4899971
0.24575,-0.0055,0.013,0.0,-0.00010675,3.0500001e-05,1742093330.504367
0.24525,-0.00575,0.01275,0.0,-0.00016775,6.1000002e-05,1742093330.5187762
0.2455,-0.0055,0.0135,-6.1000002e-05,-0.00024425,0.00016775,1742093330.5338318
0.24675,-0.006,0.01575,-6.1000002e-05,-0.000229,0.00019825,1742093330.547764
0.247,-0.0065,0.016,-7.625e-05,-0.00016775,0.00016775,1742093330.5637949
0.24725,-0.0065,0.016,-3.0500001e-05,-0.0001525,0.00019825,1742093330.5767329
0.2475,-0.00625,0.01625,4.575e-05,-0.0001525,0.00024425,1742093330.591319
0.2475,-0.006,0.016,0.00013725001,-7.625e-05,0.00030525,1742093330.605685
0.2465,-0.00575,0.01475,0.0001525,-1.5250001e-05,0.0003205,1742093330.620202
0.2465,-0.00525,0.01425,0.00024425,3.0500001e-05,0.0003205,1742093330.634509
0.246,-0.00475,0.013,0.00027475,1.5250001e-05,0.00035100002,1742093330.648684
0.2465,-0.004,0.01325,0.000229,-3.0500001e-05,0.00042725,1742093330.663695
0.24725,-0.00225,0.0135,0.0002135,-3.0500001e-05,0.000412,1742093330.677418
0.24725,-0.0015,0.01375,0.00016775,-1.5250001e-05,0.00030525,1742093330.69179
0.24775,-0.00175,0.01425,0.000122000005,0.0,0.0002135,1742093330.706079
0.2485,-0.0025,0.0145,9.15e-05,1.5250001e-05,0.00013725001,1742093330.720381
0.24875,-0.00325,0.0145,7.625e-05,3.0500001e-05,0.00010675,1742093330.734661
0.24825,-0.0025,0.01475,4.575e-05,6.1000002e-05,0.00010675,1742093330.749019
0.248,-0.002,0.01475,4.575e-05,0.000122000005,1.5250001e-05,1742093330.764211
0.24725,-0.00325,0.01425,7.625e-05,0.00010675,-9.15e-05,1742093330.777798
0.24675,-0.004,0.01425,0.000122000005,7.625e-05,-0.000183,1742093330.793803
0.2465,-0.005,0.01475,9.15e-05,0.00010675,-0.00013725001,1742093330.806704
0.24625,-0.00525,0.015,0.00010675,0.000122000005,-4.575e-05,1742093330.820988
0.24625,-0.005,0.01525,0.00024425,7.625e-05,7.625e-05,1742093330.835299
0.2465,-0.004,0.01575,0.00027475,9.15e-05,0.0001525,1742093330.84955
0.2465,-0.00325,0.01575,0.00027475,0.00019825,0.00027475,1742093330.8639889
0.246,-0.0015,0.01475,0.0002595,0.00019825,0.00029,1742093330.878201
0.24575,-0.00125,0.0145,0.00027475,0.0001525,0.00024425,1742093330.892509
0.245,-0.00175,0.01425,0.00030525,0.0001525,0.00019825,1742093330.906633
0.24425,-0.00225,0.0135,0.00035100002,0.0001525,0.00016775,1742093330.921015
0.24375,-0.003,0.01275,0.00027475,-1.5250001e-05,0.0002595,1742093330.9353442
0.2435,-0.00375,0.0125,0.0002595,-9.15e-05,0.0003205,1742093330.9498932
0.24425,-0.0035,0.01325,0.0003205,-0.00029,0.00036625,1742093330.9642692
0.24675,-0.00175,0.0155,0.00029,-0.00036625,0.00036625,1742093330.978668
0.2475,-0.00175,0.01625,0.00010675,-0.00029,0.00029,1742093330.993876
0.248,-0.002,0.01675,4.575e-05,-0.000229,0.00024425,1742093331.007273
0.248,-0.00225,0.0165,1.5250001e-05,-0.00016775,0.0002135,1742093331.021587
0.248,-0.0025,0.0165,1.5250001e-05,-9.15e-05,0.000183,1742093331.036017
0.248,-0.00325,0.01625,4.575e-05,-7.625e-05,0.00016775,1742093331.050393
0.248,-0.0025,0.0165,1.5250001e-05,-4.575e-05,0.000122000005,1742093331.06477
0.24725,-0.0005,0.0165,1.5250001e-05,3.0500001e-05,7.625e-05,1742093331.079036
0.247,-0.00025,0.01625,-1.5250001e-05,0.00013725001,-0.00010675,1742093331.0939908
0.24675,-0.00025,0.01525,-3.0500001e-05,0.0001525,-0.000229,1742093331.1080809
0.247,-0.00025,0.015,-7.625e-05,0.00016775,-0.0003205,1742093331.122515
0.24675,-0.00125,0.0145,-0.000183,0.00019825,-0.00035100002,1742093331.13704
0.24625,-0.004,0.0145,-0.00016775,0.00013725001,-0.0003205,1742093331.151571
0.2465,-0.0045,0.01525,-1.5250001e-05,-9.15e-05,-0.000183,1742093331.166118
0.24775,-0.005,0.018,6.1000002e-05,-0.00013725001,-4.575e-05,1742093331.1806662
0.24775,-0.0045,0.0185,4.575e-05,-9.15e-05,0.000473,1742093331.1949801
0.2475,-0.003,0.0195,-3.0500001e-05,7.625e-05,0.0007325,1742093331.209474
0.24775,-0.0025,0.01975,0.00019825,0.00054925,0.00059500005,1742093331.224684
0.24575,-0.0,0.017,0.000183,0.00027475,0.0004425,1742093331.237947
0.24525,0.00075,0.016,7.625e-05,1.5250001e-05,0.000473,1742093331.252299
0.2455,0.00075,0.0155,-4.575e-05,0.00061025,0.00080875,1742093331.266517
0.246,-0.00125,0.01475,-6.1000002e-05,0.0007325,0.00083925005,1742093331.280988
0.24575,-0.00075,0.01425,6.1000002e-05,0.00024425,0.00054925,1742093331.295367
0.24625,0.00175,0.0145,0.00010675,0.000183,0.0003205,1742093331.3098009
0.2465,0.00175,0.01475,-6.1000002e-05,0.00036625,1.5250001e-05,1742093331.3251982
0.2465,-0.001,0.01325,-0.00019825,0.00045775,6.1000002e-05,1742093331.338664
0.247,-0.0015,0.013,-0.00027475,0.00061025,0.00013725001,1742093331.353882
0.2475,-0.00075,0.01275,-0.0003205,0.00062550005,-9.15e-05,1742093331.3678122
0.24675,-0.00125,0.01175,-0.00035100002,0.000412,-0.00035100002,1742093331.38226
0.246,-0.00225,0.011,-0.000412,0.00019825,-0.00042725,1742093331.3967738
0.24625,-0.00425,0.011,-0.0003815,0.00030525,-0.00033575002,1742093331.411267
0.248,-0.00475,0.0125,-0.00030525,0.00027475,-0.0003815,1742093331.425808
0.2505,-0.0045,0.01575,-0.00024425,7.625e-05,-0.0005035,1742093331.440268
0.25125,-0.00325,0.0165,-0.0002135,0.000229,-0.00030525,1742093331.454754
0.251,0.00075,0.01625,-0.00039675,0.000534,1.5250001e-05,1742093331.469066
0.2495,0.002,0.014,-0.00059500005,0.000824,0.00027475,1742093331.4839501
0.24575,0.00275,0.00775,-0.00071725,0.001175,0.0002595,1742093331.497864
0.24425,0.002,0.006,-0.00067150005,0.001007,6.1000002e-05,1742093331.512178
0.24325,0.0015,0.0055,-0.0005645,0.00042725,-7.625e-05,1742093331.5265641
0.24475,0.00225,0.008,-0.00062550005,0.00030525,3.0500001e-05,1742093331.5410078
0.24625,0.0015,0.01,-0.00071725,0.00029,0.0,1742093331.555265
0.2465,-0.00075,0.01025,-0.0007325,0.000183,-0.00013725001,1742093331.569858
0.24675,-0.00125,0.01,-0.0007325,0.00019825,0.0,1742093331.584256
0.24825,-0.00175,0.01175,-0.00064075,0.00035100002,3.0500001e-05,1742093331.598785
0.24775,-0.00075,0.01175,-0.0005035,0.000412,-0.00013725001,1742093331.613714
0.2475,0.00025,0.011,-0.00048825,0.0003205,-0.0004425,1742093331.627566
0.246,-0.0015,0.0085,-0.00054925,0.0003815,-0.0004425,1742093331.6433432
0.24525,-0.003,0.008,-0.00042725,0.000473,-0.0003205,1742093331.656568
0.246,-0.004,0.00975,-0.00027475,0.00045775,-0.0003815,1742093331.671013
0.24575,-0.00425,0.01,0.00010675,0.00019825,-0.00080875,1742093331.685459
0.24425,-0.00425,0.0095,0.000122000005,0.000122000005,-0.00077825,1742093331.699851
0.2445,-0.00475,0.01075,1.5250001e-05,0.0003205,-0.000473,1742093331.714262
0.24375,-0.00575,0.01125,0.0001525,0.00033575002,-0.0005035,1742093331.72897
0.24375,-0.0065,0.01175,0.00030525,0.00030525,-0.00057975,1742093331.743567
0.244,-0.0075,0.01275,0.000763,0.0002135,-0.00067150005,1742093331.7579
0.24225,-0.008,0.01125,0.00099175,9.15e-05,-0.00061025,1742093331.772254
0.2425,-0.00725,0.01125,0.00105275,3.0500001e-05,1.5250001e-05,1742093331.7865589
0.2455,-0.00425,0.013,0.00102225,0.00010675,0.00029,1742093331.800878
0.24625,-0.003,0.01325,0.0009765,0.00016775,0.0003205,1742093331.815153
0.2465,-0.00175,0.012,0.000946,0.000183,0.000229,1742093331.829535
0.247,-0.00125,0.01225,0.000946,0.0002135,0.0001525,1742093331.843898
0.2475,-0.00125,0.012,0.00093075,9.15e-05,-0.000183,1742093331.858263
0.24675,-0.00225,0.01025,0.00093075,-3.0500001e-05,-0.00039675,1742093331.8728662
0.24675,-0.0025,0.00975,0.00074775,-0.000122000005,-0.00024425,1742093331.8874931
0.2485,-0.00175,0.011,0.00057975,3.0500001e-05,0.0,1742093331.901678
0.2485,-0.00175,0.011,0.00039675,0.0003205,0.00010675,1742093331.9160051
0.24875,-0.0025,0.0115,0.00042725,0.00024425,-3.0500001e-05,1742093331.930353
0.24825,-0.00225,0.01175,0.000534,0.00016775,-0.00027475,1742093331.944994
0.24775,-0.00175,0.01125,0.00048825,0.00027475,-0.00027475,1742093331.9594681
0.247,-0.0025,0.01075,0.00036625,0.00039675,-0.000229,1742093331.974997
0.246,-0.004,0.00975,0.00016775,0.0003815,-0.00010675,1742093331.988254
0.2455,-0.0055,0.00975,0.000183,0.0002595,-4.575e-05,1742093332.004082
0.24525,-0.0055,0.01,0.00042725,7.625e-05,-6.1000002e-05,1742093332.0172238
0.245,-0.00375,0.01225,0.00051875,1.5250001e-05,-0.00013725001,1742093332.031785
0.24525,-0.003,0.0125,0.0004425,-0.00010675,-0.0003205,1742093332.0463731
0.245,-0.00375,0.011,0.0003815,-9.15e-05,-0.0003205,1742093332.06092
0.24525,-0.00325,0.01125,0.00036625,7.625e-05,-7.625e-05,1742093332.076193
0.246,-0.0005,0.01175,0.00030525,6.1000002e-05,-3.0500001e-05,1742093332.089667
0.24575,-0.00025,0.0105,0.000229,-1.5250001e-05,-4.575e-05,1742093332.104247
0.24525,-0.0005,0.0095,0.000122000005,-0.00010675,-9.15e-05,1742093332.119104
0.24525,-0.0015,0.009,0.00010675,-0.000122000005,-9.15e-05,1742093332.1336992
0.245,-0.00175,0.00925,0.0002595,-0.00030525,-0.00027475,1742093332.148093
0.2445,-0.002,0.0095,0.00030525,-0.000473,-0.00033575002,1742093332.1634638
0.2445,-0.0025,0.0095,0.00024425,-0.0005035,-0.000122000005,1742093332.177024
0.246,-0.00425,0.011,0.0002135,-0.00042725,1.5250001e-05,1742093332.191484
0.247,-0.00325,0.0115,9.15e-05,-0.0004425,0.00024425,1742093332.205791
0.24825,-0.00175,0.012,4.575e-05,-0.0002595,0.00035100002,1742093332.220169
0.2485,-0.00225,0.012,7.625e-05,-6.1000002e-05,0.00036625,1742093332.234457
0.2485,-0.00275,0.01175,0.000229,-0.000183,0.00010675,1742093332.248752
0.24875,-0.003,0.01225,0.00033575002,-0.00027475,-6.1000002e-05,1742093332.263886
0.24875,-0.00275,0.0125,0.00048825,-0.000473,-0.00035100002,1742093332.2775428
0.2485,-0.00225,0.013,0.00045775,-0.000473,-0.00030525,1742093332.292011
0.24875,-0.002,0.0135,0.0003205,1.5250001e-05,0.00016775,1742093332.3062851
0.2485,-0.001,0.014,0.00024425,0.000183,0.00027475,1742093332.3207848
0.2475,0.0,0.013,0.00019825,0.0001525,0.000183,1742093332.3351722
0.2465,0.001,0.01175,0.0001525,0.000122000005,-0.000122000005,1742093332.349563
0.24575,0.0,0.01025,0.00010675,0.00016775,-0.0002135,1742093332.364275
0.245,-0.0005,0.00975,0.0,3.0500001e-05,-0.00030525,1742093332.378273
0.2445,-0.00225,0.00975,1.5250001e-05,-4.575e-05,-0.00035100002,1742093332.393825
0.2445,-0.00325,0.01025,7.625e-05,-0.0001525,-0.0003205,1742093332.407077
0.24525,-0.00375,0.01075,4.575e-05,-0.000183,-0.0002595,1742093332.421515
0.2455,-0.004,0.0105,1.5250001e-05,-0.00019825,-7.625e-05,1742093332.43606
0.2465,-0.00375,0.01175,3.0500001e-05,-0.0002595,-1.5250001e-05,1742093332.4505541
0.24725,-0.0025,0.0125,1.5250001e-05,-0.00029,0.0,1742093332.464952
0.24775,-0.00175,0.013,-6.1000002e-05,-0.00010675,-0.00013725001,1742093332.4798899
0.2475,-0.004,0.012,-6.1000002e-05,-3.0500001e-05,-0.0002135,1742093332.494369
0.24675,-0.00475,0.01125,1.5250001e-05,-9.15e-05,-0.0002135,1742093332.508957
0.24625,-0.0035,0.0115,1.5250001e-05,-0.0001525,-0.0001525,1742093332.523357
0.246,-0.00325,0.0115,-3.0500001e-05,-0.00016775,-0.00013725001,1742093332.5380979
0.24625,-0.00425,0.0115,-3.0500001e-05,-0.0001525,-0.00016775,1742093332.552618
0.24625,-0.0045,0.01175,3.0500001e-05,-0.00013725001,-0.00013725001,1742093332.5670872
0.2465,-0.00275,0.01175,3.0500001e-05,-0.00013725001,-0.000122000005,1742093332.58165
0.2465,-0.002,0.01175,0.0,-0.00013725001,-9.15e-05,1742093332.596139
0.2465,-0.00175,0.012,-3.0500001e-05,-0.0001525,-0.0001525,1742093332.610649
0.24625,-0.0025,0.0115,0.0,-0.00016775,-0.0002595,1742093332.62506
0.24575,-0.0035,0.01075,0.0,-0.00019825,-0.0003205,1742093332.639576
0.2455,-0.00525,0.01075,-4.575e-05,-0.000183,-0.00024425,1742093332.6540742
0.24625,-0.0055,0.01125,-6.1000002e-05,-0.000229,-3.0500001e-05,1742093332.6686609
0.24775,-0.00475,0.013,0.0,-0.00027475,3.0500001e-05,1742093332.6838899
0.24825,-0.0045,0.01325,6.1000002e-05,-0.000229,7.625e-05,1742093332.697314
0.248,-0.004,0.01325,6.1000002e-05,-0.000183,0.00010675,1742093332.711977
0.24825,-0.0025,0.01375,7.625e-05,-0.00010675,0.0,1742093332.7264462
0.2485,-0.001,0.0135,4.575e-05,-4.575e-05,-0.00010675,1742093332.740887
0.24775,-0.002,0.013,-1.5250001e-05,4.575e-05,-0.00019825,1742093332.755281
0.24675,-0.003,0.01225,1.5250001e-05,9.15e-05,-0.00030525,1742093332.769887
0.246,-0.00425,0.01175,3.0500001e-05,6.1000002e-05,-0.00030525,1742093332.784253
0.246,-0.0045,0.012,9.15e-05,3.0500001e-05,-0.0003205,1742093332.798663
0.24525,-0.00575,0.01175,9.15e-05,1.5250001e-05,-0.00030525,1742093332.814158
0.24525,-0.0065,0.012,0.00010675,-4.575e-05,-0.00013725001,1742093332.827553
0.246,-0.00525,0.01425,0.0001525,-6.1000002e-05,-7.625e-05,1742093332.8420732
0.24625,-0.00525,0.01425,0.00016775,-7.625e-05,-6.1000002e-05,1742093332.8566642
0.24675,-0.006,0.01425,0.0001525,-3.0500001e-05,1.5250001e-05,1742093332.8709261
