acc_x,acc_y,acc_z,gyro_x,gyro_y,gyro_z,timestamp
0.246,-0.0175,-0.01375,0.002533,-3.0500001e-05,0.00057975,1742093427.908277
0.2455,-0.0175,-0.013,0.00276175,-0.000229,0.0008545,1742093427.90851
0.24625,-0.00975,-0.009,0.0026245,-0.0003205,0.00065625,1742093427.914884
0.24625,-0.00875,-0.0095,0.00198375,-0.00062550005,9.15e-05,1742093427.929706
0.2455,-0.0125,-0.01125,0.0017395001,-0.00059500005,-0.00024425,1742093427.946271
0.24675,-0.0145,-0.0095,0.00198375,-0.00090025004,-0.001007,1742093427.968714
0.2475,-0.01425,-0.009,0.0017395001,-0.00125125,-0.0009765,1742093427.980124
0.24775,-0.01475,-0.00975,0.0014495,-0.00083925005,0.00033575002,1742093427.989716
0.24925,-0.01325,-0.00625,0.00109875,-0.0003815,0.0007935,1742093428.002013
0.249,-0.01025,-0.0065,0.00080875,-0.00024425,0.0007325,1742093428.016493
0.24825,-0.00825,-0.00825,0.00080875,-0.00045775,-0.00010675,1742093428.031191
0.24825,-0.0085,-0.00975,0.00086975005,-0.00042725,-0.00051875,1742093428.0455701
0.24875,-0.00925,-0.00975,0.00048825,-0.00035100002,-0.0007935,1742093428.060142
0.25,-0.012,-0.007,0.00016775,-0.000412,-0.00061025,1742093428.075058
0.25025,-0.01375,-0.00625,-4.575e-05,-0.00030525,-0.00057975,1742093428.089407
0.25,-0.0155,-0.00675,0.00013725001,-0.0001525,-0.000824,1742093428.104364
0.249,-0.01625,-0.0075,0.00067150005,-0.0001525,-0.00115975,1742093428.118431
0.24625,-0.01775,-0.008,0.0007325,-0.0002135,-0.0010375,1742093428.132896
0.2465,-0.017,-0.008,0.0002135,-0.0002595,-0.00024425,1742093428.14756
0.2475,-0.01475,-0.00875,-0.000122000005,-0.000229,0.00013725001,1742093428.162112
0.24725,-0.01325,-0.00975,-0.00024425,-0.00016775,0.000229,1742093428.176713
0.247,-0.012,-0.0105,0.00019825,-3.0500001e-05,-0.00035100002,1742093428.1912608
0.24425,-0.0115,-0.01125,0.00036625,-1.5250001e-05,-0.00059500005,1742093428.20575
0.24275,-0.011,-0.0125,-0.000122000005,-0.00030525,-0.000763,1742093428.220499
0.2395,-0.01475,-0.018,-0.0004425,-0.0005645,-0.00102225,1742093428.235208
0.23675,-0.026,-0.01925,-0.00146475,-0.00160225,-0.0014037499,1742093428.2498062
0.24425,-0.133,0.021,-0.00228875,-0.0025634998,-0.00099175,1742093428.264406
0.26925,-0.263,0.07775,0.0012207499,-0.0057220003,-0.0017395001,1742093428.278914
0.36575,-0.6415,0.22025,0.007843,-0.00744625,-0.0052337497,1742093428.294111
0.40875,-0.82475,0.295,0.02250675,-0.00621025,-0.00225825,1742093428.307877
0.41125,-0.96875,0.40425,0.029358,-0.0018005001,0.01048275,1742093428.32244
0.30575,-0.867,0.37675,0.03668225,0.00546275,0.02563475,1742093428.3367722
0.15875,-0.6685,0.303,0.0609895,0.0187835,0.0421295,1742093428.35111
-0.03775,0.0545,0.11875,0.07431025,0.0187225,0.04011525,1742093428.3655949
-0.056,0.5045,0.03075,0.078949,0.0058287503,0.029327499,1742093428.379891
0.04025,1.0,-0.1125,0.068283,-9.15e-05,0.0197295,1742093428.39454
0.123,1.0,-0.1615,0.045700002,-0.009582501,-0.0038605002,1742093428.4088519
0.2245,0.8415,-0.139,0.03707875,-0.009079001,-0.0123595,1742093428.4247239
0.25,0.682,-0.083,0.01744075,-0.00355525,-0.02648925,1742093428.437857
0.2495,0.356,0.004,0.0074004997,-0.00016775,-0.02690125,1742093428.452246
0.23575,0.218,0.03775,-0.00204475,0.0036010002,-0.019744748,1742093428.46666
0.22125,0.11725,0.061,-0.01266475,0.007553,0.0015105,1742093428.481059
0.2045,-0.019,0.08125,-0.01380925,0.0066374997,0.0072937496,1742093428.495509
0.213,-0.07775,0.0685,-0.01419075,0.0023039998,0.00715625,1742093428.509909
0.2365,-0.1215,0.03275,-0.012130749,0.00115975,0.0048065,1742093428.5264041
0.2465,-0.1025,0.0055,-0.0075225,0.00225825,0.0050812503,1742093428.5387871
0.28025,-0.05325,-0.01375,-0.0062407497,0.0038299998,0.00640875,1742093428.554274
0.28525,-0.02125,-0.00625,-0.004074,0.00148,0.0054475004,1742093428.567892
0.275,0.042,-0.01175,-0.00080875,-0.00302125,0.0010375,1742093428.5824058
0.2675,0.06425,-0.0215,-0.00086975005,-0.00254825,0.00042725,1742093428.596904
0.26,0.08075,-0.02775,-0.0032655,0.00270075,0.001007,1742093428.611308
0.23725,0.09775,-0.0365,-0.00411975,0.0043639997,0.001114,1742093428.625694
0.22725,0.09925,-0.037,-0.00505075,0.00325,0.000763,1742093428.640078
0.216,0.0865,-0.028,-0.0059510004,0.002243,0.00067150005,1742093428.654507
0.213,0.07575,-0.0235,-0.0088805,0.0012970001,0.00137325,1742093428.668885
0.212,0.057,-0.0255,-0.009262,0.00077825,0.00175475,1742093428.684696
0.21625,0.05375,-0.02625,-0.008590749,4.575e-05,0.001892,1742093428.6977851
0.2255,0.05475,-0.022,-0.006302,-0.001526,0.0009155,1742093428.7122638
0.24275,0.06575,-0.005,-0.006012,-0.00187675,0.000122000005,1742093428.7267892
0.25025,0.068,0.007,-0.009292499,-0.001526,0.000534,1742093428.741214
0.26425,0.0555,0.02375,-0.011139,-0.00061025,0.00149525,1742093428.755626
0.263,0.04825,0.0205,-0.011917,0.0020295,0.00270075,1742093428.769897
0.246,0.046,-0.015,-0.011398249,0.00190725,0.00228875,1742093428.784319
0.2405,0.048,-0.029,-0.0111085,-0.00029,-0.00184625,1742093428.799105
0.25375,0.025,-0.023,-0.0106355,-0.0016632499,-0.00453175,1742093428.814549
0.2615,0.00975,-0.00625,-0.01013175,-0.00198375,-0.0063477503,1742093428.828277
0.2635,0.0055,0.0085,-0.0113525,-0.00027475,-0.0055237496,1742093428.842793
0.25925,0.003,0.01775,-0.012756251,0.00105275,-0.004074,1742093428.857242
0.24825,-0.004,0.007,-0.0125885,0.00381475,-0.0012817499,1742093428.87171
0.215,-0.00525,-0.03375,-0.01115425,0.00460825,-0.00148,1742093428.886247
0.20575,0.00575,-0.04675,-0.008255,0.00314325,-0.003296,1742093428.900784
0.2165,0.0195,-0.03125,-0.00715625,0.00099175,-0.0045625,1742093428.91529
0.22875,0.01175,-0.014,-0.00747675,-0.00157175,-0.005066,1742093428.929868
0.23875,-0.0075,-0.002,-0.008850001,-0.0013427499,-0.0032655,1742093428.944619
0.236,-0.00525,-0.0105,-0.011734,-0.00071725,0.00042725,1742093428.959208
0.24175,0.00975,-0.0235,-0.01216125,-0.0008545,9.15e-05,1742093428.975184
0.2445,0.00575,-0.02325,-0.01092525,-0.001068,-0.0022735,1742093428.98825
0.24575,-0.00325,-0.02125,-0.00646975,-0.00137325,-0.00962825,1742093429.002971
0.246,-0.02075,-0.017,-0.00587475,-0.00157175,-0.011383001,1742093429.017689
0.2465,-0.0275,-0.0155,-0.009155249,-0.001007,-0.0073242504,1742093429.0323951
0.2395,-0.034,-0.02075,-0.0102845,-0.00027475,-0.0045777503,1742093429.0469701
0.23425,-0.03525,-0.027,-0.008270251,0.00059500005,-0.00308225,1742093429.061592
0.23,-0.035,-0.03225,-0.00593575,0.0003205,-0.0034790002,1742093429.0762272
0.232,-0.03025,-0.02625,-0.00239575,-0.0013275,-0.0032195,1742093429.090833
0.24225,-0.00475,-0.00125,-0.0029755002,-0.0021819999,-0.00204475,1742093429.105577
0.25775,-0.00375,0.0125,-0.00845325,-0.0021972498,0.00102225,1742093429.120176
0.26825,-0.01475,0.00675,-0.009948749,-0.001007,0.0010375,1742093429.134882
0.25725,-0.01675,-0.00875,-0.009323,0.00033575002,0.00027475,1742093429.149181
0.24725,-0.02,-0.01725,-0.0061035,0.00125125,-0.0019685,1742093429.164259
0.24425,-0.03275,-0.00825,-0.0052337497,0.0003205,-0.0038605002,1742093429.17839
0.2455,-0.0425,-0.00175,-0.00640875,-0.00238025,-0.00671375,1742093429.194144
0.24925,-0.097,0.01975,-0.008865249,-0.00314325,-0.0059510004,1742093429.2076669
0.25125,-0.15475,0.04475,-0.01330575,-0.00334175,-0.0055695,1742093429.222271
0.25525,-0.381,0.1235,-0.012375,-0.00296025,-0.008209251,1742093429.236845
0.2585,-0.5305,0.1625,0.0026854998,-0.0043639997,-0.015335,1742093429.251287
0.2635,-0.77575,0.194,0.010528499,-0.0067597497,-0.0156555,1742093429.2657359
0.24225,-0.8265,0.19625,0.02250675,-0.00546275,0.00567625,1742093429.280166
0.22275,-0.72,0.25975,0.0305175,-0.0012817499,0.02159125,1742093429.2947142
0.225,-0.53725,0.26625,0.04188525,0.001953,0.029144252,1742093429.3089101
0.21325,-0.255,0.22925,0.06301875,0.0036162501,0.02326975,1742093429.323104
0.1845,0.38025,0.07675,0.067214996,0.0028229998,0.0194245,1742093429.337311
0.201,0.6245,-0.00625,0.05979925,-0.0016785001,0.011917,1742093429.3517911
0.25725,0.86975,-0.11075,0.049881,-0.00314325,0.0059205,1742093429.366187
0.27,0.833,-0.11625,0.036300752,-0.00070200005,-0.0052185003,1742093429.3806999
0.25475,0.60975,-0.10025,0.02832025,0.000946,-0.0078125,1742093429.395076
0.238,0.50625,-0.091,0.020141501,0.00042725,-0.0104065,1742093429.409584
0.23075,0.4055,-0.058,0.0068207504,-0.000229,-0.010849,1742093429.4256132
0.22925,0.18375,0.01975,0.0019989999,0.00024425,-0.008209251,1742093429.438402
0.22525,0.078,0.03975,-0.0034790002,0.00071725,-0.0021057501,1742093429.452697
0.225,-0.0595,0.046,-0.005005,0.00033575002,-0.00016775,1742093429.4670799
0.2285,-0.0805,0.0375,-0.0043182503,-9.15e-05,0.0017852499,1742093429.481569
0.2375,-0.07475,0.02225,-0.00289925,0.000122000005,0.00279225,1742093429.495944
0.24,-0.06875,-0.0105,-0.0015105,0.0033875,0.00460825,1742093429.510456
0.24825,-0.03275,-0.011,-0.00013725001,0.0014037499,0.00355525,1742093429.524961
0.24675,-0.0125,-0.01,0.001068,-0.00086975005,0.0020295,1742093429.5394602
0.2445,0.00575,-0.0125,0.001007,-0.0023497501,0.001007,1742093429.5544808
0.24,0.03425,-0.02275,1.5250001e-05,-0.0009155,0.001175,1742093429.568137
0.239,0.04075,-0.02375,-0.0021819999,0.00225825,0.00086975005,1742093429.582436
0.2405,0.039,-0.017,-0.003128,0.002533,0.000534,1742093429.5967848
0.2375,0.037,-0.014,-0.00369275,0.00062550005,-0.0009765,1742093429.6112509
0.228,0.03175,-0.00775,-0.0039825,-0.000183,-0.00146475,1742093429.6258938
0.22625,0.0265,-0.007,-0.0043944996,-0.00045775,-0.0014037499,1742093429.640542
0.229,0.019,-0.01075,-0.00437925,-0.00108325,-0.00051875,1742093429.655143
0.23475,0.01975,-0.01,-0.004303,-0.00169375,0.000122000005,1742093429.66958
0.2435,0.02475,-0.00575,-0.00505075,-0.0023039998,0.00131225,1742093429.684936
0.2575,0.04325,0.00125,-0.00590525,-0.00198375,0.00175475,1742093429.698559
0.25875,0.054,0.0005,-0.008316,-0.0010375,0.00317375,1742093429.714444
0.2565,0.05625,-0.0025,-0.009201,-0.00062550005,0.00378425,1742093429.727457
0.255,0.0495,-0.0065,-0.0101165,-0.0001525,0.00399775,1742093429.741992
0.25975,0.034,-0.00675,-0.01042175,7.625e-05,0.00378425,1742093429.756356
0.259,0.0295,-0.0075,-0.01054375,0.00048825,0.0033722501,1742093429.7707589
0.2515,0.0205,-0.002,-0.0115815,0.0019685,0.0032195,1742093429.785194
0.245,0.0135,-0.00375,-0.011749251,0.00154125,0.0033570002,1742093429.799556
0.23875,0.009,-0.00875,-0.01245125,0.00013725001,0.0040587503,1742093429.814665
0.239,0.0185,-0.014,-0.01260375,-0.00051875,0.00440975,1742093429.828395
0.243,0.02675,-0.015,-0.01228325,-0.00033575002,0.0032195,1742093429.8427572
0.24725,0.02975,-0.01175,-0.01206975,3.0500001e-05,0.00177,1742093429.857162
0.24875,0.024,-0.00625,-0.012267999,0.00030525,-0.0001525,1742093429.8716412
0.25225,0.007,0.00425,-0.0124665005,0.00030525,6.1000002e-05,1742093429.886085
0.2515,0.0025,0.00425,-0.01266475,0.00059500005,0.00077825,1742093429.90047
0.24975,0.0015,0.00025,-0.012329,0.0013580001,0.00231925,1742093429.9147332
0.245,0.0145,-0.01225,-0.011749251,0.0016632499,0.0026245,1742093429.929075
0.24225,0.02175,-0.0175,-0.011245751,0.0018005001,0.0020905002,1742093429.944584
0.24475,0.02175,-0.01925,-0.011123749,0.00154125,0.00119025,1742093429.9578571
0.247,0.0175,-0.01675,-0.01092525,0.00115975,9.15e-05,1742093429.9721742
0.249,0.016,-0.00925,-0.01136775,0.001236,0.00045775,1742093429.986578
0.25025,0.01775,-0.006,-0.011749251,0.00154125,0.00074775,1742093430.001198
0.2465,0.0185,-0.01225,-0.011550999,0.0022125002,4.575e-05,1742093430.015579
0.243,0.0205,-0.017,-0.01136775,0.0021819999,-0.0002135,1742093430.03008
0.2415,0.0255,-0.0195,-0.01171875,0.0012817499,0.00030525,1742093430.0452108
0.2435,0.0305,-0.0165,-0.01245125,0.00096125,0.000885,1742093430.058857
0.24125,0.02925,-0.01825,-0.013275251,0.0009155,0.000824,1742093430.07317
0.23425,0.01975,-0.02625,-0.01307675,0.00096125,0.00061025,1742093430.087567
0.23175,0.01825,-0.02825,-0.0119630005,0.0005035,0.00064075,1742093430.101995
0.2355,0.01975,-0.0215,-0.0114744995,-0.00010675,0.000473,1742093430.116468
0.23875,0.019,-0.01575,-0.011078,-0.0007935,-0.00027475,1742093430.131076
0.24075,0.02,-0.013,-0.010879501,-0.0015105,-0.001068,1742093430.145683
0.2425,0.019,-0.015,-0.0114744995,-0.00109875,-0.000412,1742093430.160275
0.24,0.0175,-0.01925,-0.013092,-7.625e-05,0.00016775,1742093430.17522
0.233,0.00325,-0.02625,-0.012985251,-9.15e-05,-0.0009155,1742093430.189377
0.2315,-0.008,-0.025,-0.0109709995,-0.00125125,-0.00358575,1742093430.204609
0.2385,-0.02175,-0.00575,-0.0101165,-0.00193775,-0.004074,1742093430.2187772
0.24525,-0.029,0.00375,-0.0100555,-0.002655,-0.0041504996,1742093430.23452
0.246,-0.047,0.0015,-0.010253999,-0.002472,-0.00419625,1742093430.2478578
0.2425,-0.05825,-0.00275,-0.01013175,-0.002472,-0.00485225,1742093430.262441
0.23425,-0.09575,0.00225,-0.0089875,-0.00279225,-0.00640875,1742093430.277097
0.23275,-0.134,0.01725,-0.0072632497,-0.0034637498,-0.008788999,1742093430.291617
0.2345,-0.19125,0.045,-0.00343325,-0.0057220003,-0.013717749,1742093430.306201
0.2525,-0.4055,0.14625,-0.00119025,-0.0070647504,-0.015152001,1742093430.32071
0.27375,-0.556,0.20525,0.0106965,-0.0084379995,-0.013641249,1742093430.335235
0.309,-0.759,0.27425,0.02111825,-0.0080415,-0.0094604995,1742093430.349748
0.3015,-0.7675,0.27925,0.040237498,-0.0043639997,0.0024872501,1742093430.3644822
0.25475,-0.5895,0.22875,0.04824825,-0.00045775,0.009506251,1742093430.378686
0.24275,-0.4005,0.1975,0.06419375,0.00570675,0.018692,1742093430.394094
0.23675,0.157,0.13475,0.07023625,0.00564575,0.018341,1742093430.407354
0.24125,0.41425,0.09025,0.072525,0.0051880004,0.01608275,1742093430.4215329
0.2465,0.61175,0.0275,0.06729125,0.0013275,0.0061339997,1742093430.435777
0.24675,0.762,-0.09775,0.059203997,0.00083925005,-0.0009155,1742093430.45019
0.2485,0.737,-0.11,0.04208375,0.00187675,-0.011627249,1742093430.4645948
0.22875,0.56725,-0.0495,0.034057498,0.0022125002,-0.013046251,1742093430.47901
0.20775,0.45525,-0.0275,0.0168305,0.0029907501,-0.013092,1742093430.494677
0.1745,0.24575,-0.0255,0.009201,0.0019225,-0.010437001,1742093430.5079439
0.1805,0.1725,-0.01275,0.0030975002,-0.00029,-0.0060272496,1742093430.5224152
0.21375,0.0635,0.021,-0.00372325,-0.00399775,0.00068675,1742093430.536879
0.2225,0.01925,0.02175,-0.00561525,-0.0041810004,0.00163275,1742093430.551292
0.2315,-0.0145,0.019,-0.00662225,-0.0032655,0.00125125,1742093430.5657349
0.2525,-0.04075,0.025,-0.00593575,-0.0027160002,0.00148,1742093430.580292
0.262,-0.0445,0.01475,-0.006256,0.0013427499,0.002777,1742093430.594641
0.263,-0.04125,-0.00775,-0.0049285004,0.000473,0.00157175,1742093430.609184
0.2625,-0.03475,-0.01175,-0.0017852499,-0.00190725,-0.0015105,1742093430.625361
0.259,-0.016,-0.0115,-0.001175,-0.00204475,-0.0017395001,1742093430.638473
0.25425,-0.001,-0.008,-0.00146475,-0.00070200005,-0.00109875,1742093430.654547
0.2425,0.0305,-0.009,-0.00305175,0.0023345,0.00051875,1742093430.667541
0.241,0.03975,-0.0085,-0.00372325,0.0024872501,0.00112925,1742093430.681909
0.2415,0.04275,-0.0095,-0.00466925,0.00086975005,0.00163275,1742093430.6962812
0.24275,0.03975,-0.0135,-0.00505075,0.00045775,0.001236,1742093430.710687
0.245,0.04025,-0.00975,-0.0058899997,0.000183,-0.00016775,1742093430.7251499
0.24925,0.03725,0.002,-0.0063325,-0.00024425,-0.00071725,1742093430.7398012
0.249,0.036,0.00425,-0.0074004997,-0.00109875,-0.000183,1742093430.754835
0.25075,0.0325,0.00475,-0.00817875,-0.001068,0.000412,1742093430.768645
0.25075,0.0255,0.00025,-0.008850001,-0.00077825,0.00071725,1742093430.784344
0.25325,0.013,-0.00825,-0.009231499,-0.000122000005,0.0002595,1742093430.797512
0.2555,0.01025,-0.00825,-0.00935375,0.00036625,-0.0003205,1742093430.812002
0.257,0.00475,-0.00525,-0.00975025,0.00093075,-0.0013275,1742093430.8265338
0.25475,-0.014,-0.003,-0.00985725,0.0008545,-0.00149525,1742093430.841144
0.251,-0.022,-0.00775,-0.009582501,0.0009765,-0.001236,1742093430.856003
0.24325,-0.0265,-0.01625,-0.00912475,0.00112925,-0.0012665,1742093430.8705459
0.24225,-0.0205,-0.019,-0.00801075,0.0011445,-0.0020599999,1742093430.885181
0.248,-0.008,-0.01975,-0.00737,0.00083925005,-0.0027312501,1742093430.8998559
0.25325,-0.007,-0.0145,-0.006836,0.00045775,-0.0031127501,1742093430.91455
0.262,-0.01225,-0.0035,-0.007019,0.00065625,-0.0022125002,1742093430.929152
0.263,-0.012,-0.002,-0.00723275,0.0017395001,-0.00013725001,1742093430.944541
0.2585,-0.001,-0.0055,-0.0067902496,0.0023345,0.00013725001,1742093430.958449
0.2535,0.00475,-0.0085,-0.00617975,0.0027160002,-4.575e-05,1742093430.9729338
0.2485,0.00775,-0.012,-0.00570675,0.002411,-0.000824,1742093430.987365
0.2445,0.00775,-0.015,-0.0060272496,0.0021515,-0.00067150005,1742093431.0017211
0.24375,0.00775,-0.01525,-0.0075072497,0.00231925,0.00108325,1742093431.01613
0.243,0.0085,-0.019,-0.00811775,0.0024414998,0.00198375,1742093431.030522
0.24275,0.011,-0.02125,-0.007843,0.0023345,0.0020752498,1742093431.0450912
0.2425,0.01925,-0.022,-0.0075072497,0.001953,0.0012665,1742093431.059519
0.24375,0.0195,-0.02025,-0.0072175004,0.00108325,-0.00067150005,1742093431.0750651
0.249,0.01275,-0.01525,-0.0075682504,0.000946,-0.000763,1742093431.088628
0.25075,0.01325,-0.01325,-0.00842275,0.001068,0.000412,1742093431.104246
0.25075,0.01575,-0.01225,-0.0100555,0.001648,0.00292975,1742093431.117362
0.2475,0.01625,-0.014,-0.010101249,0.0017852499,0.0026245,1742093431.1316328
0.2455,0.016,-0.01625,-0.009872501,0.001648,0.00086975005,1742093431.146098
0.2415,0.01725,-0.0195,-0.0100707505,0.00148,0.00039675,1742093431.160584
0.2395,0.012,-0.0195,-0.0111085,0.00125125,0.0011445,1742093431.1754398
0.24075,-0.00575,-0.01375,-0.01171875,0.0012817499,0.0022125002,1742093431.1893451
0.2415,-0.0085,-0.012,-0.0119630005,0.0014037499,0.0029755002,1742093431.204272
0.24175,-0.00975,-0.01175,-0.011031999,0.0013580001,0.002472,1742093431.2185001
0.23825,-0.01225,-0.01575,-0.01019275,0.0012665,0.001831,1742093431.233906
0.23525,-0.016,-0.01825,-0.009582501,0.001236,0.00198375,1742093431.247457
0.23,-0.02375,-0.02275,-0.009872501,0.0012207499,0.00305175,1742093431.262059
0.2295,-0.02525,-0.024,-0.010314999,0.0010375,0.0046845004,1742093431.276567
0.2265,-0.0175,-0.0305,-0.009582501,0.00064075,0.004593,1742093431.29107
0.22775,-0.0125,-0.03,-0.0075072497,-0.0002135,0.00325,1742093431.3055518
0.23425,-0.002,-0.02325,-0.0066985004,-0.00033575002,0.00228875,1742093431.32017
0.239,-0.0035,-0.01775,-0.0071105,-0.000183,0.00193775,1742093431.3348548
0.239,-0.01575,-0.014,-0.00794975,0.00010675,0.0027465,1742093431.3493829
0.234,-0.019,-0.01575,-0.00874325,0.00029,0.0033264998,1742093431.364651
0.23025,-0.02525,-0.01775,-0.0088195,-0.0005645,0.00105275,1742093431.378379
0.238,-0.05975,-0.002,-0.0079955,-0.0016175,-0.0017242499,1742093431.394201
0.25025,-0.09125,0.01925,-0.006363,-0.004013,-0.0077210004,1742093431.407517
0.2805,-0.21075,0.0755,-0.00570675,-0.0048217503,-0.009491,1742093431.422249
0.2985,-0.301,0.11425,-0.00024425,-0.0052337497,-0.01316825,1742093431.436788
0.3415,-0.558,0.209,0.0059205,-0.0045012496,-0.01643375,1742093431.451265
0.36325,-0.7015,0.248,0.0221405,-0.0016632499,-0.013427749,1742093431.465748
0.36525,-0.796,0.29025,0.0298005,0.0009765,-0.0057525,1742093431.480107
0.33275,-0.705,0.27475,0.037506,0.00466925,0.004074,1742093431.495018
0.288,-0.55025,0.234,0.056778,0.013122501,0.01599125,1742093431.508734
0.2205,-0.05775,0.13225,0.066070504,0.01542675,0.01643375,1742093431.523061
0.20375,0.2125,0.093,0.069595255,0.016998248,0.01576225,1742093431.5372858
0.1655,0.6625,-0.02225,0.065689005,0.016037,0.012756251,1742093431.551618
0.14475,0.76825,-0.098,0.050674498,0.01278675,0.00378425,1742093431.565964
0.10775,0.7655,-0.19225,0.040969748,0.0128175,-9.15e-05,1742093431.580342
0.10275,0.71625,-0.2005,0.031188998,0.010162249,-0.0033570002,1742093431.594893
0.112,0.5265,-0.16525,0.01649475,-0.001526,-0.012313751,1742093431.609377
0.125,0.40025,-0.1165,0.011550999,-0.006012,-0.0168,1742093431.624938
0.148,0.267,-0.054,-0.0026092501,-0.00712575,-0.013443,1742093431.63834
0.1965,0.03475,0.0405,-0.00941475,-0.0050355,-0.0077515002,1742093431.6527228
0.21575,-0.0405,0.05625,-0.0110625,-0.00367725,-0.002121,1742093431.66728
0.261,-0.09825,0.0535,-0.00846875,-0.00514225,-0.00146475,1742093431.6818602
0.283,-0.09325,0.04325,-0.0054015,-0.007019,0.0002135,1742093431.696374
0.3035,-0.06125,0.01675,-0.0046234997,-0.005844,0.000824,1742093431.710882
0.30025,-0.041,0.00175,-0.00396725,-0.00384525,0.00112925,1742093431.725376
0.27825,-0.0005,-0.03325,-0.00372325,-7.625e-05,0.002243,1742093431.739957
0.2655,0.02025,-0.04725,-0.00355525,0.0010375,0.00270075,1742093431.754645
0.255,0.043,-0.0535,-0.0034942501,0.001236,0.00317375,1742093431.7691038
0.2475,0.0715,-0.045,-0.00440975,0.00096125,0.00369275,1742093431.784694
0.24875,0.0765,-0.0395,-0.0068207504,0.00042725,0.00399775,1742093431.798208
0.24675,0.0715,-0.03475,-0.008026,0.00029,0.00369275,1742093431.812682
0.243,0.06275,-0.02925,-0.009734999,-0.000122000005,0.00314325,1742093431.8272781
0.23575,0.039,-0.0105,-0.0101165,-0.0005645,0.0031889998,1742093431.84182
0.234,0.03,-0.00325,-0.0109709995,-0.00125125,0.00378425,1742093431.85624
0.235,0.0155,-0.00775,-0.0115205,-0.0012970001,0.0043182503,1742093431.870713
0.23825,0.0135,-0.017,-0.01177975,-0.00143425,0.0047150003,1742093431.885445
0.24125,0.01525,-0.0235,-0.0122375,-0.0021057501,0.00466925,1742093431.8999848
0.247,0.02225,-0.0205,-0.012680001,-0.0024872501,0.0042267498,1742093431.9145758
0.24825,0.0215,-0.0155,-0.01065075,-0.00302125,0.0027312501,1742093431.9291
0.24675,0.01975,-0.00775,-0.009811499,-0.00279225,0.00279225,1742093431.944559
0.24375,0.024,-0.01025,-0.010559,-0.001709,0.0044555003,1742093431.9580622
0.241,0.033,-0.028,-0.011260999,-0.001419,0.0049742498,1742093431.972621
0.24325,0.033,-0.03675,-0.011825499,-0.0017852499,0.00317375,1742093431.987175
0.255,0.01875,-0.02925,-0.011398249,-0.0022125002,0.0012665,1742093432.001678
0.26025,0.00525,-0.01675,-0.0105742505,-0.0023345,-0.001236,1742093432.016227
0.26075,-0.01325,-0.0015,-0.011031999,-0.00157175,-0.00013725001,1742093432.030924
0.2555,-0.015,-0.0055,-0.011764499,-0.000534,0.001526,1742093432.0455198
0.2475,-0.011,-0.015,-0.01257325,0.000824,0.003418,1742093432.060085
0.23675,0.0045,-0.03375,-0.012252751,0.00062550005,0.0033722501,1742093432.0746639
0.23725,0.011,-0.03825,-0.011031999,-0.00070200005,0.001648,1742093432.0888362
0.24025,0.00025,-0.035,-0.0106355,-0.00105275,0.00067150005,1742093432.104361
0.24075,-0.007,-0.0305,-0.01020825,-0.00112925,0.00010675,1742093432.117867
0.24225,-0.00875,-0.0195,-0.010086001,-0.00096125,0.00045775,1742093432.132349
0.24075,-0.004,-0.01725,-0.010253999,-0.00024425,0.00149525,1742093432.146843
0.23475,0.00875,-0.025,-0.0104674995,-0.00010675,0.0019685,1742093432.161571
0.23275,0.01975,-0.0305,-0.01048275,-0.000229,0.0021972498,1742093432.176179
0.232,0.0315,-0.035,-0.0104674995,-0.000824,0.001419,1742093432.19066
0.23025,0.03975,-0.03775,-0.01071175,-0.0012207499,0.000763,1742093432.2050638
0.23075,0.03775,-0.0325,-0.01092525,-0.0023345,-0.0003205,1742093432.2196212
0.2335,0.03075,-0.02,-0.010727,-0.00279225,-0.00090025004,1742093432.234199
0.23575,0.02425,-0.014,-0.010879501,-0.00283825,-0.00112925,1742093432.2487922
0.23775,0.0115,-0.01075,-0.01104725,-0.00263975,-0.001114,1742093432.263884
0.23575,0.00975,-0.0165,-0.011016751,-0.00242625,-0.00086975005,1742093432.277814
0.23425,0.022,-0.0265,-0.0110932505,-0.0024872501,-0.00067150005,1742093432.2923589
0.235,0.0295,-0.027,-0.0110015,-0.0026854998,-0.001587,1742093432.3069708
0.233,0.026,-0.02525,-0.010559,-0.00292975,-0.0024872501,1742093432.321554
0.23425,0.02075,-0.0215,-0.0099945,-0.00302125,-0.0030975002,1742093432.336064
0.237,0.01925,-0.0175,-0.009002751,-0.0025025,-0.0029755002,1742093432.3506439
0.245,0.0245,-0.0115,-0.009017999,-0.0020905002,-0.00245675,1742093432.36524
0.2485,0.02425,-0.00725,-0.00953675,-0.000534,-0.00198375,1742093432.37981
0.24575,0.014,-0.00375,-0.00935375,0.00071725,-0.0023039998,1742093432.39455
0.2385,0.00775,-0.00975,-0.008926501,0.002365,-0.0030365,1742093432.408727
0.233,-0.00525,-0.0145,-0.009277251,0.0022277501,-0.003128,1742093432.423233
0.23625,-0.01125,-0.01275,-0.009842,-7.625e-05,-0.0042725,1742093432.437977
0.2475,-0.023,-0.0095,-0.010024999,-0.0013427499,-0.00585925,1742093432.452618
0.25,-0.04225,-0.00625,-0.0099639995,-0.0028535,-0.009216251,1742093432.467361
0.25525,-0.10275,0.017,-0.0097045,-0.00325,-0.010559,1742093432.481813
0.25925,-0.14825,0.0345,-0.009323,-0.00340275,-0.011612001,1742093432.496445
0.26225,-0.21175,0.05325,-0.0075682504,-0.00231925,-0.01148975,1742093432.5110168
0.26725,-0.39125,0.1035,-0.0047302498,-0.0002135,-0.009903,1742093432.526392
0.2715,-0.5065,0.1525,0.0057677496,0.00263975,-0.00587475,1742093432.539983
0.26875,-0.694,0.23275,0.01266475,0.0023345,-0.004776,1742093432.554464
0.2785,-0.71725,0.2625,0.027847249,0.0045165,0.00903325,1742093432.568557
0.28825,-0.55475,0.2755,0.035827752,0.009277251,0.016540501,1742093432.582842
0.26,-0.36975,0.227,0.044799753,0.014007499,0.019195499,1742093432.597177
0.2295,-0.15725,0.168,0.059738252,0.0148315,0.016159,1742093432.611659
0.19125,0.2605,0.063,0.0629425,0.013000499,0.01361075,1742093432.625963
0.1845,0.43375,0.00775,0.060180753,0.010498,0.008926501,1742093432.640258
0.18375,0.7065,-0.116,0.053970248,0.009384249,0.0077972496,1742093432.655114
0.18325,0.7775,-0.16575,0.0355225,0.007019,0.003418,1742093432.668849
0.166,0.71175,-0.2325,0.02787775,0.0044555003,-0.0023039998,1742093432.684662
0.165,0.6025,-0.22175,0.015808,-0.00308225,-0.0116425,1742093432.697731
0.193,0.3465,-0.113,0.00918575,-0.00579825,-0.0124665005,1742093432.712117
0.21225,0.22975,-0.05325,0.00305175,-0.00720225,-0.0112915,1742093432.728441
0.2305,0.1295,-0.0055,-0.0039215,-0.0070952503,-0.0060272496,1742093432.741083
0.26175,0.0025,0.0385,-0.0051880004,-0.005783,-0.00296025,1742093432.7555368
0.27,-0.02975,0.03175,-0.0052337497,-0.0028687501,0.00137325,1742093432.76998
0.26875,-0.0485,0.00175,-0.0042267498,-0.0021515,0.0021057501,1742093432.784624
0.2665,-0.04425,-0.00525,-0.001236,-0.0019685,0.00154125,1742093432.7990751
0.2565,-0.013,-0.01525,-6.1000002e-05,-0.00157175,0.0013275,1742093432.8147268
0.2485,0.00775,-0.02575,-0.0005645,0.00029,0.002777,1742093432.828085
0.2335,0.035,-0.04775,-0.001419,0.000763,0.00320425,1742093432.8424478
0.23175,0.03475,-0.05125,-0.0022125002,0.00071725,0.00317375,1742093432.856805
0.22975,0.02975,-0.0515,-0.002884,-0.00029,0.00245675,1742093432.87135
0.2265,0.0325,-0.03775,-0.00328075,-0.00093075,0.002365,1742093432.885772
0.23025,0.0375,-0.026,-0.0052795,-0.0014495,0.0028074998,1742093432.900244
0.2385,0.0435,-0.018,-0.00640875,-0.0012207499,0.0030975002,1742093432.914711
0.24325,0.03925,-0.01875,-0.00782775,-0.00057975,0.00354,1742093432.9291499
0.24675,0.0275,-0.02325,-0.00788875,-0.00051875,0.00343325,1742093432.944442
0.246,0.02675,-0.02375,-0.0076599997,-0.0008545,0.0029449998,1742093432.958362
0.25,0.02775,-0.01725,-0.00767525,-0.00115975,0.0025634998,1742093432.972991
0.25225,0.031,-0.015,-0.007599,-0.00148,0.0021057501,1742093432.987422
0.2545,0.0345,-0.0145,-0.0077972496,-0.0013275,0.0019225,1742093433.001899
0.25275,0.034,-0.0275,-0.008026,-0.00077825,0.00198375,1742093433.016438
0.24825,0.0315,-0.03975,-0.00852975,-0.000473,0.0020599999,1742093433.0309381
0.25175,0.024,-0.04575,-0.00852975,-0.0009155,0.001953,1742093433.0454028
0.25075,0.02375,-0.04075,-0.0074920002,-0.0016632499,0.0007325,1742093433.059942
0.248,0.02725,-0.0235,-0.00741575,-0.0018615,0.00027475,1742093433.075181
0.248,0.0265,-0.015,-0.00830075,-0.00137325,0.00071725,1742093433.088919
0.242,0.02575,-0.009,-0.008941749,-0.00068675,0.0012665,1742093433.1043441
0.238,0.02475,-0.01125,-0.00976575,-1.5250001e-05,0.0018005001,1742093433.117944
0.23425,0.0255,-0.01625,-0.011031999,0.0004425,0.00228875,1742093433.1323268
0.231,0.037,-0.02775,-0.01092525,3.0500001e-05,0.0020295,1742093433.146832
0.2315,0.0425,-0.0305,-0.009948749,-0.001419,0.0002135,1742093433.161311
0.24025,0.04675,-0.02575,-0.009948749,-0.00190725,-0.0009155,1742093433.176028
0.247,0.04725,-0.0225,-0.010727,-0.00225825,-0.00143425,1742093433.1905951
0.25775,0.03875,-0.013,-0.011031999,-0.0022277501,-0.000534,1742093433.2052128
0.25925,0.029,-0.01075,-0.011673001,-0.0013580001,-0.00016775,1742093433.219824
0.25575,0.00925,-0.012,-0.0115815,-0.00051875,-0.00077825,1742093433.234424
0.251,0.00475,-0.0145,-0.01026925,0.00119025,-0.001526,1742093433.2489312
0.243,0.0,-0.02175,-0.009658749,0.00187675,-0.00112925,1742093433.264371
0.23825,-0.00075,-0.02475,-0.009719751,0.0025940002,-0.00027475,1742093433.277955
0.233,-0.0,-0.02775,-0.0114135,0.0030975002,0.000885,1742093433.292449
0.2325,-0.00825,-0.03375,-0.01194775,0.0026245,0.000412,1742093433.306964
0.23425,-0.01125,-0.03625,-0.0110015,0.001587,-0.0015565,1742093433.321526
0.2435,-0.00875,-0.03375,-0.010238751,0.0012665,-0.00225825,1742093433.336035
0.2475,-0.007,-0.02925,-0.0080415,0.001175,-0.0036010002,1742093433.350501
0.25125,-0.00375,-0.02675,-0.0073547503,0.0012207499,-0.0036010002,1742093433.365024
0.2525,0.00425,-0.02725,-0.0081635,0.0015565,-0.0013275,1742093433.379522
0.255,0.0245,-0.03,-0.009231499,0.0017242499,-0.0001525,1742093433.394384
0.2535,0.02975,-0.03175,-0.0100707505,0.0019685,0.0002595,1742093433.408409
0.25075,0.0285,-0.0325,-0.0105742505,0.001953,-0.00102225,1742093433.422946
0.2465,0.01425,-0.031,-0.01033025,0.00157175,-0.00184625,1742093433.4374459
0.24575,0.00925,-0.02775,-0.010376001,0.00064075,-0.002121,1742093433.451946
0.24825,0.00225,-0.0195,-0.01077275,0.0002135,-0.001831,1742093433.466424
0.24525,-0.00025,-0.01825,-0.01062,-0.00010675,-0.0024414998,1742093433.4811132
0.23925,-0.01075,-0.0165,-0.01026925,-0.00033575002,-0.0034790002,1742093433.495869
0.24025,-0.02725,-0.01375,-0.009017999,-0.0016785001,-0.006836,1742093433.510538
0.24375,-0.104,0.0105,-0.0086975,-0.002777,-0.008926501,1742093433.5251992
0.24325,-0.1695,0.04,-0.00791925,-0.00621025,-0.013046251,1742093433.5397902
0.23425,-0.40375,0.131,-0.0045777503,-0.00782775,-0.01408375,1742093433.554314
0.2325,-0.56775,0.166,-3.0500001e-05,-0.008788999,-0.01593025,1742093433.5690272
0.23675,-0.70525,0.18925,0.016037,-0.009643501,-0.011078,1742093433.584055
0.228,-0.76775,0.24125,0.023224002,-0.009017999,0.0052185003,1742093433.597827
0.22725,-0.681,0.28375,0.032074,-0.00010675,0.038437,1742093433.6122181
0.224,-0.30575,0.23625,0.04426575,0.00543225,0.03913875,1742093433.6265368
0.19725,-0.02725,0.14425,0.06767275,0.008865249,0.025833251,1742093433.640861
0.20575,0.463,0.02625,0.067276,0.00782775,0.023040751,1742093433.65511
0.2355,0.611,-0.00675,0.06159975,0.0075835,0.02012625,1742093433.669491
0.25525,0.68725,-0.051,0.0494995,0.009079001,0.0049590003,1742093433.684652
0.258,0.65525,-0.12325,0.044555753,0.008514499,-0.00378425,1742093433.698126
0.246,0.5965,-0.13425,0.03359975,0.0043639997,-0.01380925,1742093433.712506
0.21225,0.46375,-0.12125,0.02793875,0.0021057501,-0.01570125,1742093433.726944
0.20175,0.3955,-0.1065,0.01652525,-9.15e-05,-0.016113251,1742093433.74143
0.19775,0.24525,-0.06475,0.0115205,-0.000183,-0.015152001,1742093433.755937
0.2005,0.1725,-0.04375,0.004074,0.0002595,-0.010452249,1742093433.770444
0.2025,0.0765,-0.02275,0.000824,0.0007325,-0.006363,1742093433.784977
0.20275,0.06,-0.02275,-0.0020599999,0.00096125,-0.0019685,1742093433.799314
0.20575,0.05,-0.02775,-0.00485225,-0.000229,0.001709,1742093433.814688
0.2155,0.00975,-0.039,-0.0047302498,-0.00109875,0.0009765,1742093433.828473
0.2235,-0.01025,-0.03425,-0.00372325,-0.00263975,-0.0002595,1742093433.844647
0.23575,-0.027,-0.01625,-0.00328075,-0.00289925,-3.0500001e-05,1742093433.8579772
0.2375,-0.0245,-0.013,-0.0027312501,-0.00201425,0.00225825,1742093433.87252
0.23625,0.01575,-0.016,-0.0026092501,-0.0014037499,0.00358575,1742093433.887035
0.233,0.041,-0.01925,-0.003128,-0.00045775,0.0047302498,1742093433.90149
0.227,0.07075,-0.031,-0.00372325,-0.000412,0.0043639997,1742093433.915943
0.23075,0.0705,-0.03425,-0.00428775,-0.000885,0.00331125,1742093433.930433
0.24025,0.05625,-0.0295,-0.0047607496,-0.00216675,0.0009765,1742093433.944948
0.24325,0.053,-0.02275,-0.0053405,-0.0023345,0.0008545,1742093433.959409
0.2465,0.05225,-0.0155,-0.0072632497,-0.001892,0.001709,1742093433.9754071
0.2465,0.05725,-0.01125,-0.00801075,-0.00160225,0.0019989999,1742093433.9884071
0.246,0.06125,-0.0125,-0.009781,-0.00112925,0.0028074998,1742093434.004286
0.24725,0.05725,-0.0175,-0.010437001,-0.00108325,0.0028535,1742093434.017407
0.24575,0.05075,-0.02175,-0.010376001,-0.00163275,0.00148,1742093434.031938
0.24375,0.045,-0.02675,-0.01013175,-0.0019225,0.000763,1742093434.046388
0.24225,0.0445,-0.02425,-0.01048275,-0.001831,0.0007935,1742093434.060939
0.24025,0.0445,-0.01525,-0.0114135,-0.001526,0.001831,1742093434.075757
0.23875,0.0445,-0.01375,-0.01266475,-0.00112925,0.00320425,1742093434.089934
0.2375,0.0435,-0.01675,-0.015274,-0.0005645,0.0049742498,1742093434.104407
0.23975,0.03975,-0.025,-0.01582325,-0.0008545,0.00466925,1742093434.1189609
0.24275,0.03775,-0.02525,-0.01454175,-0.0021819999,0.0012665,1742093434.134364
0.24625,0.03575,-0.02175,-0.013564999,-0.00263975,-0.001114,1742093434.148004
0.24625,0.03275,-0.02,-0.01301575,-0.0029907501,-0.00396725,1742093434.162633
0.24425,0.0195,-0.01475,-0.013778751,-0.00296025,-0.0035095,1742093434.177223
0.244,0.0145,-0.0115,-0.01605225,-0.00239575,-0.00039675,1742093434.1917892
0.24175,0.01225,-0.01075,-0.016235251,-0.0020295,0.00039675,1742093434.206315
0.2395,0.0125,-0.0135,-0.015442001,-0.00184625,-0.00010675,1742093434.2209432
0.242,0.01625,-0.017,-0.012542751,-0.00242625,-0.0033264998,1742093434.235488
0.24375,0.02,-0.016,-0.0112305,-0.00292975,-0.00372325,1742093434.2500238
0.24525,0.01925,-0.013,-0.009903,-0.0035704998,-0.004303,1742093434.264605
0.244,0.0105,-0.01275,-0.0101165,-0.0034484998,-0.004074,1742093434.279226
0.24475,0.00975,-0.01525,-0.01187125,-0.002655,-0.0013427499,1742093434.294322
0.24775,0.0215,-0.016,-0.012436,-0.00242625,-0.000412,1742093434.308348
0.249,0.02725,-0.01475,-0.011673001,-0.0029449998,-0.00201425,1742093434.324744
0.2485,0.023,-0.0105,-0.010314999,-0.00325,-0.004303,1742093434.337497
0.2475,0.0155,-0.00875,-0.0074920002,-0.00364675,-0.008545,1742093434.35202
0.252,0.0015,-0.00425,-0.0075072497,-0.00372325,-0.008606,1742093434.366503
0.25625,-0.002,-0.001,-0.00903325,-0.0035095,-0.00662225,1742093434.381105
0.25875,0.0,-0.00025,-0.013351499,-0.00187675,-0.001007,1742093434.395904
0.2515,0.00425,-0.00325,-0.0134735005,-0.00059500005,-0.0003205,1742093434.410562
0.2465,0.00175,-0.00675,-0.01095575,0.00074775,-0.00308225,1742093434.42588
0.2405,0.005,-0.01925,-0.00975025,0.00039675,-0.0049285004,1742093434.439554
0.24,0.00775,-0.02375,-0.0089569995,-0.0010375,-0.0068055,1742093434.4542341
0.24125,-0.00025,-0.02175,-0.009292499,-0.00148,-0.006546,1742093434.468776
0.24025,-0.009,-0.01725,-0.01042175,-0.001648,-0.0043335,1742093434.484624
0.241,-0.02225,-0.0075,-0.010589501,-0.0015565,-0.0037385002,1742093434.498089
0.238,-0.02575,-0.0075,-0.00935375,-0.001419,-0.00511175,1742093434.51403
0.233,-0.034,-0.00725,-0.00897225,-0.00148,-0.0058899997,1742093434.52764
0.235,-0.0485,-0.00175,-0.00968925,-0.0017242499,-0.0059815003,1742093434.542428
0.24425,-0.1145,0.0355,-0.009491,-0.00239575,-0.0065917503,1742093434.5570052
0.2535,-0.169,0.07675,-0.008377,-0.00355525,-0.00798025,1742093434.571594
0.2645,-0.2505,0.1375,6.1000002e-05,-0.00358575,-0.009140001,1742093434.5862389
0.30225,-0.526,0.3165,0.00187675,-0.002243,-0.00741575,1742093434.600713
0.32375,-0.663,0.379,0.0043335,0.00080875,0.00125125,1742093434.615061
0.35275,-0.7225,0.4145,0.01115425,0.00320425,0.01033025,1742093434.629497
0.33975,-0.64275,0.39925,0.02757275,0.0128632495,0.0296325,1742093434.644108
0.25575,-0.38075,0.28325,0.0397645,0.0186005,0.03141775,1742093434.658081
0.19725,-0.1545,0.17975,0.06510925,0.0221405,0.023620501,1742093434.672516
0.12575,0.36225,-0.011,0.070571996,0.021164,0.021881001,1742093434.686806
0.111,0.549,-0.08825,0.07051075,0.0202485,0.020279,1742093434.701167
0.1025,0.67,-0.1595,0.0610505,0.014862,0.0111085,1742093434.71544
0.11,0.7445,-0.2485,0.05372625,0.009933501,0.005249,1742093434.7298381
0.1165,0.71425,-0.262,0.03689575,0.00154125,-0.0039825,1742093434.744619
0.137,0.57225,-0.22325,0.02857975,-0.00090025004,-0.0068512503,1742093434.75865
0.149,0.4765,-0.18075,0.01374825,-0.0015565,-0.00918575,1742093434.774859
0.1655,0.2795,-0.095,0.00694275,-0.0007325,-0.008194,1742093434.78767
0.17475,0.19775,-0.05775,0.0017395001,-0.000534,-0.00637825,1742093434.802203
0.1915,0.1355,-0.02375,-0.002365,-0.0022735,-0.0033722501,1742093434.816757
0.242,0.05575,0.02325,-0.00225825,-0.0033570002,-0.00292975,1742093434.831228
0.2625,0.03075,0.03075,-0.002121,-0.0038605002,-0.002777,1742093434.8457139
0.28275,-0.0045,0.02225,-0.00325,-0.0031585,-0.001709,1742093434.860332
0.285,-0.01125,0.0145,-0.00434875,-0.00169375,0.00051875,1742093434.8761091
0.27175,-0.006,-0.00325,-0.00343325,-0.00115975,0.00048825,1742093434.889332
0.2615,0.00075,-0.01225,-0.0025787498,0.0003205,0.00013725001,1742093434.9045079
0.24,0.0175,-0.02925,-0.0028229998,0.00115975,0.00039675,1742093434.918091
0.23125,0.0265,-0.03475,-0.0033722501,0.00201425,0.0010375,1742093434.9326222
0.23,0.03725,-0.039,-0.00514225,0.00325,0.002884,1742093434.9470332
0.2315,0.043,-0.043,-0.00538625,0.00340275,0.00325,1742093434.9615092
0.232,0.0465,-0.04625,-0.00390625,0.0029145,0.00254825,1742093434.975829
0.22275,0.05625,-0.04625,-0.0028229998,0.0021972498,0.0017395001,1742093434.990304
0.2195,0.06725,-0.0445,-0.00378425,-0.00093075,0.00039675,1742093435.005012
0.23625,0.0625,-0.0285,-0.0052185003,-0.0022125002,0.0005645,1742093435.019219
0.2405,0.05675,-0.024,-0.0068207504,-0.0028074998,0.00177,1742093435.035083
0.24825,0.05275,-0.01875,-0.00741575,-0.002884,0.002243,1742093435.048173
0.25275,0.05075,-0.0165,-0.0076599997,-0.0030365,0.0020599999,1742093435.06271
0.25375,0.0505,-0.01575,-0.0069885002,-0.00305175,-0.00057975,1742093435.077296
0.244,0.05525,-0.02175,-0.0070647504,-0.0029449998,-0.0021972498,1742093435.0919209
0.2405,0.0535,-0.0235,-0.00976575,-0.0027160002,-0.00245675,1742093435.106518
0.2405,0.04,-0.021,-0.0114135,-0.0025025,-0.00102225,1742093435.121162
0.2375,0.04025,-0.023,-0.0128632495,-0.0020905002,0.0011445,1742093435.135682
0.23225,0.04675,-0.02825,-0.01295475,-0.0020905002,0.00115975,1742093435.150239
0.23375,0.044,-0.027,-0.01210025,-0.00283825,-0.00048825,1742093435.16475
0.23625,0.02975,-0.02525,-0.011169501,-0.00317375,-0.00187675,1742093435.179316
0.233,0.03025,-0.02725,-0.01092525,-0.0035704998,-0.00354,1742093435.194478
0.239,0.037,-0.0205,-0.0122375,-0.0037995,-0.003006,1742093435.2085109
0.2455,0.033,-0.01275,-0.01358025,-0.00393675,-0.00216675,1742093435.2230248
0.24875,0.024,-0.00725,-0.014557,-0.003769,-0.00169375,1742093435.237565
0.24625,0.0045,-0.0045,-0.014510999,-0.0032347501,-0.0017242499,1742093435.252192
0.24525,0.001,-0.0055,-0.013351499,-0.0022277501,-0.0017852499,1742093435.266895
0.2415,0.01275,-0.016,-0.012436,-0.001953,-0.001892,1742093435.281473
0.238,0.0225,-0.02025,-0.012405501,-0.001526,-0.0008545,1742093435.295962
0.23475,0.03625,-0.01975,-0.012909001,-0.0017395001,-0.00029,1742093435.3104708
0.23775,0.0325,-0.018,-0.012802,-0.0027312501,-0.00059500005,1742093435.325912
0.24425,0.02025,-0.01575,-0.012252751,-0.0030365,-0.0012207499,1742093435.3395991
0.24675,0.01825,-0.013,-0.010940501,-0.00331125,-0.0018615,1742093435.354602
0.25075,0.01875,-0.01025,-0.01020825,-0.0033722501,-0.00213625,1742093435.3689852
0.252,0.01625,-0.01175,-0.0094604995,-0.003418,-0.0024872501,1742093435.384501
0.254,0.00825,-0.015,-0.008224499,-0.0028229998,-0.0026092501,1742093435.39815
0.25275,0.0095,-0.01725,-0.0075835,-0.00204475,-0.0022277501,1742093435.412798
0.2495,0.01375,-0.0185,-0.0065917503,-0.00042725,-0.001648,1742093435.4275358
0.241,0.018,-0.0185,-0.0064239996,-0.000122000005,-0.00177,1742093435.442128
0.239,0.01275,-0.018,-0.00617975,-0.00039675,-0.00251775,1742093435.456799
0.2415,-0.00475,-0.01275,-0.00570675,-0.00057975,-0.0028687501,1742093435.471471
0.24375,-0.009,-0.0085,-0.0042115003,-0.00093075,-0.00314325,1742093435.486112
0.2455,-0.0085,-0.00425,-0.00378425,-0.000824,-0.00283825,1742093435.5007622
0.2455,-0.0085,-0.00475,-0.0036010002,7.625e-05,-0.0013580001,1742093435.515307
0.24625,-0.01175,-0.0045,-0.00393675,-4.575e-05,-0.000534,1742093435.530015
0.24825,-0.0125,-0.0055,-0.0045165,-0.0005035,0.000122000005,1742093435.5446458
0.2505,-0.009,-0.0105,-0.0043182503,-0.0002135,-0.00010675,1742093435.559328
0.249,-0.00425,-0.01325,-0.0037537501,0.0002135,-0.00059500005,1742093435.57514
0.24625,0.001,-0.015,-0.002243,0.00051875,-0.00254825,1742093435.588379
0.243,-0.001,-0.00925,-0.00225825,9.15e-05,-0.0037385002,1742093435.6030238
0.24775,-0.011,0.00025,-0.003769,-0.0013427499,-0.00567625,1742093435.6177971
0.265,-0.05125,0.03625,-0.0042572496,-0.0018615,-0.0068207504,1742093435.632299
0.269,-0.08125,0.061,-0.00541675,-0.0018005001,-0.010376001,1742093435.646867
0.291,-0.21525,0.16575,-0.00688175,-0.0017395001,-0.012252751,1742093435.6615
0.30975,-0.34725,0.23175,-0.007782,-0.00105275,-0.0138855,1742093435.67603
0.366,-0.637,0.3285,-0.00228875,0.00064075,-0.0110932505,1742093435.6904671
0.38675,-0.7055,0.36025,0.01681525,0.00643925,0.00985725,1742093435.7048378
0.37375,-0.5975,0.37425,0.02336125,0.013122501,0.024261499,1742093435.7192209
0.306,-0.48525,0.3325,0.029998751,0.02159125,0.03439325,1742093435.7343402
0.2095,-0.33375,0.2475,0.05337525,0.03155525,0.03189075,1742093435.7477708
0.07025,0.14825,0.03225,0.064148,0.029907249,0.028061,1742093435.7619572
0.04875,0.4115,-0.059,0.065445,0.023697,0.02418525,1742093435.776208
0.0475,0.6895,-0.2185,0.06011975,0.0206605,0.017044,1742093435.79074
0.0445,0.71925,-0.29125,0.051422,0.011016751,-0.0042115003,1742093435.805131
0.06025,0.70425,-0.3255,0.044464,0.0052337497,-0.009430001,1742093435.819514
0.0915,0.65775,-0.2705,0.035492,-0.0002595,-0.011734,1742093435.834643
0.12975,0.56875,-0.20125,0.019714251,-0.00798025,-0.0188445,1742093435.848612
0.19975,0.30125,-0.08525,0.01463325,-0.008941749,-0.02224725,1742093435.8647249
0.22525,0.17875,-0.03925,0.0054932497,-0.00637825,-0.01705925,1742093435.877631
0.25025,0.056,0.0145,0.00062550005,-0.0044555003,-0.0090637505,1742093435.892171
0.25525,0.04525,0.01725,-0.005066,-0.0019685,0.00125125,1742093435.906566
0.267,0.0235,-0.0045,-0.0052947504,-0.0016175,0.001007,1742093435.921064
0.27425,0.00525,-0.01475,-0.003662,-0.001892,-0.0019685,1742093435.935671
0.28325,-0.01125,-0.0145,-0.00302125,-0.00184625,-0.00198375,1742093435.9503932
0.2805,-0.006,-0.0125,-0.00263975,-0.0012970001,-0.00137325,1742093435.965197
0.25875,0.012,-0.02625,-0.0021819999,0.000946,-0.0004425,1742093435.9795651
0.24275,0.0225,-0.03975,-0.002533,0.0022277501,0.0004425,1742093435.99474
0.22675,0.035,-0.05225,-0.0042572496,0.0034790002,0.003128,1742093436.0084102
0.20525,0.058,-0.06475,-0.0050202496,0.003296,0.0037079998,1742093436.022846
0.203,0.06375,-0.06375,-0.005844,0.00077825,0.0029907501,1742093436.037311
0.21375,0.06725,-0.05075,-0.0060425,-0.001007,0.0021515,1742093436.051821
0.22325,0.06275,-0.03975,-0.00614925,-0.003296,-1.5250001e-05,1742093436.06632
0.233,0.047,-0.02175,-0.0061950004,-0.0037385002,-0.0007325,1742093436.0809941
0.23275,0.04125,-0.018,-0.00691225,-0.0036315,6.1000002e-05,1742093436.095458
0.22975,0.04175,-0.023,-0.00764475,-0.00325,0.0012970001,1742093436.109889
0.22725,0.04775,-0.02825,-0.00845325,-0.0029755002,0.002472,1742093436.125469
0.22925,0.0505,-0.031,-0.0101165,-0.0030669998,0.00302125,1742093436.138937
0.23575,0.04275,-0.0335,-0.010314999,-0.00325,0.00238025,1742093436.15486
0.23575,0.04,-0.0355,-0.009811499,-0.0036162501,0.00157175,1742093436.167904
0.23925,0.045,-0.0345,-0.0097045,-0.003662,0.001831,1742093436.182389
0.24375,0.051,-0.0305,-0.009017999,-0.00343325,0.00157175,1742093436.1969228
0.255,0.05,-0.01975,-0.00845325,-0.00279225,0.00051875,1742093436.2114182
0.25325,0.04175,-0.018,-0.00801075,-0.000885,-0.00204475,1742093436.225966
0.23975,0.0215,-0.024,-0.009155249,-0.0003815,-0.00231925,1742093436.240507
0.24025,0.012,-0.02625,-0.010742251,-0.00029,-0.0017852499,1742093436.254981
0.2415,0.00675,-0.028,-0.010849,-0.00093075,-0.0011445,1742093436.269634
0.24,0.006,-0.028,-0.009796251,-0.0013580001,-0.0013580001,1742093436.284786
0.23875,0.00725,-0.02775,-0.00788875,-0.001587,-0.0012055,1742093436.298692
0.23675,0.0215,-0.02725,-0.007309,-0.00149525,-0.00054925,1742093436.313993
0.23625,0.03575,-0.02425,-0.00798025,-0.0012817499,0.00062550005,1742093436.3277729
0.2435,0.04825,-0.01825,-0.0090485,-0.0013580001,0.00013725001,1742093436.342171
0.24575,0.03975,-0.01825,-0.009674,-0.001526,-0.0018005001,1742093436.356918
0.24625,0.028,-0.0215,-0.0093995,-0.00157175,-0.001892,1742093436.3715332
0.2485,0.03175,-0.02075,-0.00912475,-0.0016632499,-0.0013275,1742093436.386085
0.25075,0.042,-0.01725,-0.008377,-0.00190725,-0.00061025,1742093436.400697
0.25075,0.042,-0.01575,-0.0080872495,-0.00190725,-0.00099175,1742093436.415301
0.24975,0.038,-0.01625,-0.007843,-0.00148,-0.00175475,1742093436.429983
0.2445,0.02975,-0.024,-0.0078735,-0.0012207499,-0.001526,1742093436.444483
0.242,0.03475,-0.02725,-0.0084379995,-0.00105275,1.5250001e-05,1742093436.458923
0.24,0.048,-0.02575,-0.00891125,-0.0012207499,0.0005645,1742093436.475214
0.24,0.0455,-0.02225,-0.009079001,-0.00181575,-0.00016775,1742093436.4880378
0.2385,0.0315,-0.01925,-0.0087585,-0.00213625,-0.00093075,1742093436.502677
0.238,0.02675,-0.02025,-0.008316,-0.00239575,-0.001953,1742093436.5172942
0.237,0.024,-0.025,-0.008270251,-0.0022125002,-0.002243,1742093436.531948
0.23725,0.02425,-0.02525,-0.008499251,-0.00198375,-0.001526,1742093436.546459
0.2375,0.0255,-0.02175,-0.0087585,-0.001709,0.00083925005,1742093436.561772
0.236,0.02625,-0.021,-0.00846875,-0.0016175,0.0009155,1742093436.5753589
0.23425,0.02825,-0.0215,-0.00868225,-0.00169375,0.000412,1742093436.589919
0.2345,0.03325,-0.0225,-0.009491,-0.00204475,7.625e-05,1742093436.60478
0.2365,0.03075,-0.024,-0.011245751,-0.00305175,-0.00099175,1742093436.6190238
0.24075,0.01925,-0.026,-0.0116425,-0.00340275,-0.001175,1742093436.634503
0.2415,0.018,-0.024,-0.01165775,-0.004074,-0.001114,1742093436.648166
0.24325,0.01625,-0.01625,-0.011612001,-0.0043639997,-0.00149525,1742093436.663978
0.24225,0.01175,-0.014,-0.01121525,-0.0044250004,-0.00276175,1742093436.67747
0.239,0.00525,-0.01175,-0.0110625,-0.00444025,-0.00302125,1742093436.6920488
0.24,0.00325,-0.012,-0.0113525,-0.00444025,-0.0025787498,1742093436.7067132
0.24275,0.00125,-0.0065,-0.01278675,-0.0040587503,-0.000885,1742093436.721195
0.241,-0.004,-0.0035,-0.012695249,-0.00413525,-0.00143425,1742093436.735785
0.2385,-0.016,0.00025,-0.01150525,-0.0047912505,-0.0044555003,1742093436.7504792
0.24075,-0.05875,0.02125,-0.011383001,-0.00520325,-0.0056609996,1742093436.765006
0.24225,-0.0925,0.04325,-0.01310725,-0.0070342496,-0.008361749,1742093436.7796538
0.27225,-0.2395,0.127,-0.013031,-0.008346501,-0.010253999,1742093436.794497
0.29425,-0.354,0.182,-0.008285499,-0.00788875,-0.01228325,1742093436.808898
0.32075,-0.602,0.24625,-0.0057525,-0.00593575,-0.009948749,1742093436.8250089
0.3185,-0.6925,0.26525,0.0081025,0.001068,0.010147001,1742093436.837674
0.301,-0.6695,0.323,0.019516,0.00491325,0.022949249,1742093436.8519921
0.2885,-0.524,0.33125,0.032409754,0.008727999,0.03211975,1742093436.8663821
0.26675,-0.294,0.293,0.05169675,0.017654499,0.035903998,1742093436.8807008
0.20925,0.22325,0.11,0.05372625,0.022873,0.033905,1742093436.8949811
0.1785,0.45425,0.00575,0.0519715,0.02734375,0.02182,1742093436.909089
0.16025,0.72925,-0.15525,0.05018625,0.02442925,0.012191749,1742093436.9234161
0.1555,0.739,-0.203,0.04025275,0.014679,-0.00396725,1742093436.93783
0.13725,0.606,-0.22725,0.033889752,0.01071175,-0.009216251,1742093436.952351
0.1275,0.51125,-0.21625,0.028289748,0.0072175004,-0.013061499,1742093436.966742
0.12225,0.4155,-0.198,0.019012501,0.00157175,-0.015808,1742093436.981094
0.129,0.25725,-0.14725,0.0147705,-0.00067150005,-0.014267,1742093436.995585
0.14625,0.198,-0.10925,0.006607,-0.0038605002,-0.007019,1742093437.010091
0.196,0.11025,-0.0265,0.00334175,-0.00437925,-0.0037079998,1742093437.0256
0.2185,0.072,-0.00125,-0.000885,-0.0036315,-0.00048825,1742093437.039188
0.25175,0.017,0.008,-0.0025025,-0.00308225,0.00070200005,1742093437.0550258
0.2645,0.007,0.005,-0.0045165,-0.0022735,0.0019989999,1742093437.067935
0.27675,0.003,0.0025,-0.0045777503,-0.0020599999,0.0013580001,1742093437.082486
0.27375,0.00525,0.001,-0.0041044997,-0.001709,0.00048825,1742093437.0968
0.26675,0.01075,-0.00275,-0.00296025,-0.00061025,-0.0001525,1742093437.111479
0.2505,0.02725,-0.018,-0.0026245,-3.0500001e-05,-0.00016775,1742093437.125982
0.243,0.03425,-0.02725,-0.0022735,0.00077825,-0.00029,1742093437.140485
0.23325,0.0445,-0.038,-0.0024872501,0.00065625,-1.5250001e-05,1742093437.154901
0.23325,0.0465,-0.03825,-0.00354,0.00013725001,0.00083925005,1742093437.169309
0.2345,0.0485,-0.03175,-0.0037537501,-0.00042725,0.0009155,1742093437.184491
0.2355,0.05025,-0.026,-0.00399775,-0.00169375,0.0013885,1742093437.198376
0.237,0.054,-0.01625,-0.0044250004,-0.0016175,0.0018005001,1742093437.212903
0.2375,0.0555,-0.0175,-0.0049895,-0.0012207499,0.00216675,1742093437.227385
0.23925,0.0565,-0.02075,-0.0056609996,-0.0009765,0.00238025,1742093437.2419121
0.24325,0.05875,-0.02475,-0.00561525,-0.0012055,0.00204475,1742093437.2563782
0.2435,0.0595,-0.02425,-0.0054015,-0.00177,0.0005645,1742093437.2709172
0.242,0.06025,-0.022,-0.0053252503,-0.00198375,-0.00029,1742093437.285496
0.24025,0.05825,-0.021,-0.0059510004,-0.00216675,-0.000412,1742093437.30011
0.237,0.04675,-0.01825,-0.00640875,-0.0019989999,0.000229,1742093437.314566
0.2355,0.0405,-0.01825,-0.0065307496,-0.00125125,0.00143425,1742093437.3291311
0.2345,0.044,-0.0255,-0.0065155,-0.0009765,0.00213625,1742093437.3441632
0.236,0.055,-0.03,-0.00671375,-0.000885,0.0028074998,1742093437.358141
0.23725,0.0645,-0.03175,-0.0076905,-0.0013275,0.00279225,1742093437.372603
0.241,0.06025,-0.0245,-0.007965,-0.001831,0.0018615,1742093437.387116
0.24175,0.0525,-0.01925,-0.007599,-0.0026092501,-0.00010675,1742093437.401629
0.24275,0.045,-0.013,-0.0074004997,-0.0027465,-0.00033575002,1742093437.4162781
0.242,0.04775,-0.01325,-0.0073242504,-0.00242625,-6.1000002e-05,1742093437.430977
0.23625,0.05675,-0.017,-0.0075835,-0.0021057501,-7.625e-05,1742093437.445577
0.233,0.0585,-0.021,-0.00874325,-0.0020295,-0.00030525,1742093437.460198
0.23425,0.05225,-0.024,-0.009674,-0.002243,-1.5250001e-05,1742093437.4753861
0.23825,0.0465,-0.02225,-0.0104674995,-0.0028229998,0.00048825,1742093437.4893708
0.24175,0.03975,-0.02075,-0.010101249,-0.00314325,4.575e-05,1742093437.5046558
0.2415,0.0385,-0.0205,-0.00962825,-0.00331125,-0.00057975,1742093437.518461
0.24125,0.03975,-0.02025,-0.009079001,-0.0034942501,-0.001587,1742093437.534493
0.24225,0.04275,-0.017,-0.0089875,-0.00358575,-0.0019225,1742093437.547555
0.24225,0.0395,-0.01475,-0.0091705,-0.00352475,-0.0022277501,1742093437.5621738
0.2415,0.026,-0.0155,-0.009292499,-0.0033875,-0.0020599999,1742093437.5768929
0.241,0.02525,-0.01975,-0.00975025,-0.0029755002,-0.00119025,1742093437.591258
0.2425,0.04025,-0.02275,-0.010498,-0.0026092501,-0.0007935,1742093437.605665
0.2405,0.049,-0.02275,-0.011825499,-0.0019225,-0.00242625,1742093437.620165
0.233,0.0465,-0.0255,-0.01095575,-0.0021819999,-0.0043639997,1742093437.63488
0.23075,0.037,-0.0235,-0.0079955,-0.003418,-0.0064545004,1742093437.6494951
0.23025,0.02225,-0.0205,-0.0077210004,-0.003891,-0.0060577504,1742093437.664185
0.233,0.02525,-0.01825,-0.0080872495,-0.0042115003,-0.0048979996,1742093437.6785018
0.2405,0.031,-0.0125,-0.00874325,-0.0045625,-0.0032347501,1742093437.694477
0.24925,0.03975,-0.0045,-0.008377,-0.00434875,-0.0041504996,1742093437.707552
0.245,0.04075,-0.00875,-0.007782,-0.00334175,-0.0072785,1742093437.722071
0.237,0.03625,-0.01975,-0.008072,-0.003128,-0.008194,1742093437.736656
0.23575,0.0315,-0.01975,-0.00839225,-0.00378425,-0.008590749,1742093437.7512891
0.2405,0.02375,-0.008,-0.008788999,-0.00428775,-0.0079345,1742093437.765891
0.243,0.0245,-0.00125,-0.009903,-0.00469975,-0.00767525,1742093437.780422
0.24725,0.03,0.006,-0.0101165,-0.00444025,-0.008590749,1742093437.794875
0.24975,0.033,0.00975,-0.010162249,-0.0036162501,-0.0101775,1742093437.8093739
0.24425,0.024,0.01025,-0.010742251,-0.0014495,-0.0139465,1742093437.825243
0.23725,0.01,0.00775,-0.0123595,-0.0012665,-0.0150605,1742093437.838389
0.23375,-0.00925,0.01275,-0.01693725,-0.0030365,-0.0154115,1742093437.853045
0.25025,-0.108,0.06225,-0.017852752,-0.0042267498,-0.015457249,1742093437.867548
0.2565,-0.1935,0.10275,-0.0160675,-0.0056304997,-0.016967751,1742093437.882081
0.2665,-0.458,0.22,-0.011612001,-0.0051269997,-0.01693725,1742093437.896659
0.29125,-0.64975,0.307,0.0037385002,-0.00051875,-0.010238751,1742093437.9112341
0.294,-0.87625,0.3765,0.0099945,0.0029449998,-0.0028229998,1742093437.925687
0.259,-0.826,0.3605,0.02548225,0.009643501,0.024475,1742093437.939986
0.2395,-0.54225,0.344,0.03575125,0.012313751,0.035888746,1742093437.954622
0.239,-0.32025,0.3025,0.0501405,0.01463325,0.038803,1742093437.968677
0.21875,-0.05225,0.2265,0.07095325,0.02053825,0.033752497,1742093437.98421
0.17,0.41225,0.06925,0.07289125,0.0234375,0.031158501,1742093437.9973812
0.15225,0.60275,-0.0095,0.07038875,0.02182,0.01756275,1742093438.01179
0.14775,0.808,-0.16325,0.0638885,0.0186615,0.009552,1742093438.026183
0.1445,0.77875,-0.21525,0.047226,0.01104725,-0.00343325,1742093438.040759
0.1305,0.6625,-0.252,0.038803,0.0068207504,-0.008270251,1742093438.055069
0.1355,0.603,-0.2255,0.030181998,0.003128,-0.011612001,1742093438.0694861
0.14525,0.5195,-0.17875,0.015686,-0.00131225,-0.016632,1742093438.084745
0.16975,0.27975,-0.07875,0.008712751,-0.00187675,-0.016723748,1742093438.098546
0.18025,0.16725,-0.042,-0.0041504996,-0.0012817499,-0.01036075,1742093438.114298
0.199,0.021,-0.0105,-0.00833125,-0.00112925,-0.0060577504,1742093438.127659
0.2165,-0.02225,-0.0085,-0.011016751,-0.002655,-0.00099175,1742093438.142369
0.246,-0.07175,-0.0025,-0.00991825,-0.00396725,-0.00077825,1742093438.157024
0.255,-0.07975,0.00775,-0.0069885002,-0.0053405,-0.00080875,1742093438.171795
0.269,-0.0765,0.0265,-0.0059815003,-0.0048065,0.00019825,1742093438.1862972
0.26975,-0.05975,0.023,-0.00491325,-0.0018005001,0.00384525,1742093438.200782
0.26025,-0.00125,-0.005,-0.00463875,1.5250001e-05,0.005249,1742093438.215269
0.25025,0.028,-0.0235,-0.004303,0.0016175,0.005783,1742093438.229574
0.23825,0.05325,-0.04075,-0.00491325,0.003006,0.0052337497,1742093438.2447622
0.22725,0.073,-0.0515,-0.0059205,0.0025940002,0.004776,1742093438.258604
0.2255,0.07175,-0.049,-0.0072632497,0.0010375,0.00408925,1742093438.273008
0.23025,0.068,-0.03525,-0.0076905,0.00016775,0.0040587503,1742093438.287494
0.2365,0.06875,-0.02975,-0.00811775,-0.00149525,0.00372325,1742093438.3019829
0.24625,0.067,-0.02775,-0.008285499,-0.0021972498,0.003296,1742093438.3165572
0.25,0.05925,-0.026,-0.008407501,-0.00317375,0.0018615,1742093438.331085
0.25625,0.041,-0.01575,-0.00811775,-0.0036315,0.000824,1742093438.3456168
0.257,0.034,-0.0115,-0.0077667497,-0.00396725,-3.0500001e-05,1742093438.360173
0.255,0.03,-0.009,-0.007599,-0.0036162501,0.00013725001,1742093438.375241
0.2445,0.0305,-0.00925,-0.00782775,-0.0031889998,0.00090025004,1742093438.389067
0.23775,0.03125,-0.012,-0.00839225,-0.0023345,0.002411,1742093438.404386
0.22825,0.038,-0.0245,-0.0085602505,-0.002121,0.0029145,1742093438.418092
0.228,0.045,-0.031,-0.009292499,-0.0023345,0.003418,1742093438.432571
0.23325,0.047,-0.03325,-0.009734999,-0.0025940002,0.0031889998,1742093438.4471
0.237,0.04425,-0.03025,-0.00991825,-0.0033875,0.00131225,1742093438.461592
0.246,0.03925,-0.01675,-0.009582501,-0.0037079998,-4.575e-05,1742093438.4761422
0.249,0.037,-0.00875,-0.00912475,-0.0037079998,-0.0014037499,1742093438.490649
0.24975,0.03325,-0.00425,-0.008788999,-0.00254825,-0.00292975,1742093438.505449
0.24175,0.0235,-0.012,-0.009231499,-0.0015105,-0.0025787498,1742093438.519944
0.23375,0.0255,-0.02075,-0.0102845,-0.0002135,-0.00051875,1742093438.5345988
0.2255,0.04375,-0.02925,-0.01086425,-0.0007325,7.625e-05,1742093438.549058
0.23,0.04525,-0.02675,-0.010376001,-0.00279225,-0.001648,1742093438.563977
0.23425,0.0355,-0.02425,-0.009277251,-0.0034484998,-0.0036162501,1742093438.57818
0.23725,0.02725,-0.02075,-0.00764475,-0.00289925,-0.0057677496,1742093438.594005
0.245,0.01275,-0.006,-0.00741575,-0.00216675,-0.00531,1742093438.607265
0.245,0.01,-0.005,-0.00720225,-0.001709,-0.00428775,1742093438.6217659
0.2355,0.0165,-0.013,-0.0075682504,-0.001953,-0.003662,1742093438.636357
0.2375,0.01725,-0.0135,-0.008712751,-0.00242625,-0.00283825,1742093438.6510022
0.2425,0.01225,-0.01125,-0.00941475,-0.0038299998,-0.0023039998,1742093438.665548
0.251,0.00525,-0.00475,-0.008346501,-0.00437925,-0.0031585,1742093438.680176
0.25525,0.006,-0.0005,-0.006607,-0.004486,-0.0048065,1742093438.694669
0.26175,0.00475,0.007,-0.00617975,-0.00411975,-0.00505075,1742093438.70927
0.26075,0.006,0.00675,-0.0059967497,-0.003006,-0.004776,1742093438.72473
0.2545,0.00925,0.00275,-0.0068969997,-0.002472,-0.0040587503,1742093438.738393
0.253,0.008,-0.0005,-0.009140001,-0.001709,-0.0022125002,1742093438.752984
0.2485,0.008,-0.0085,-0.00935375,-0.00160225,-0.0019685,1742093438.7675588
0.2475,0.009,-0.00875,-0.007965,-0.0018005001,-0.00320425,1742093438.782136
0.25925,0.0095,0.006,-0.0071105,-0.001953,-0.0042267498,1742093438.796603
0.27025,0.01725,0.013,-0.0066374997,-0.00157175,-0.0052185003,1742093438.811084
0.272,0.02775,0.01075,-0.009384249,0.0014495,-0.0055085,1742093438.8255029
0.2535,0.0275,-0.008,-0.012756251,0.00292975,-0.00390625,1742093438.8399801
0.2445,0.01825,-0.01925,-0.01573175,0.0029907501,-0.0010375,1742093438.85453
0.229,0.01125,-0.038,-0.013793999,0.002121,-0.001526,1742093438.868882
0.229,0.01625,-0.03,-0.010498,-3.0500001e-05,-0.0041044997,1742093438.8842869
0.259,0.00025,0.015,-0.010604749,-0.0013580001,-0.0054015,1742093438.897886
0.2725,-0.03075,0.038,-0.01193225,-0.00238025,-0.008926501,1742093438.912441
0.27325,-0.157,0.09825,-0.013046251,-0.0025787498,-0.010757499,1742093438.926985
0.2625,-0.2605,0.1325,-0.0138855,-0.00270075,-0.012267999,1742093438.9415958
0.258,-0.41675,0.1875,-0.0022277501,-0.00068675,-0.0115205,1742093438.956199
0.28125,-0.7855,0.29775,0.0038299998,0.00019825,-0.008788999,1742093438.970457
0.3,-0.863,0.325,0.01351925,0.0037385002,0.011184749,1742093438.984756
0.32675,-0.6825,0.37825,0.01849375,0.00868225,0.02772525,1742093438.999087
0.322,-0.50525,0.3605,0.03627025,0.02285775,0.03886425,1742093439.014669
0.24275,-0.08825,0.16725,0.049423248,0.0272675,0.031784,1742093439.0277
0.18975,0.1485,0.06525,0.059997503,0.028564502,0.024231002,1742093439.041903
0.14725,0.38775,-0.0135,0.0652465,0.023773251,0.01817325,1742093439.056266
0.11225,0.751,-0.13725,0.060608003,0.019333,0.0168915,1742093439.070559
0.1095,0.8435,-0.19575,0.04422,0.01036075,0.0061035,1742093439.085047
0.099,0.772,-0.26575,0.036620997,0.0066985004,-0.002884,1742093439.0993779
0.09375,0.66125,-0.2565,0.025299,0.00109875,-0.016296498,1742093439.114655
0.1115,0.4495,-0.168,0.02105725,-0.00096125,-0.01890575,1742093439.128155
0.1285,0.35325,-0.1155,0.010849,-0.0022735,-0.01737975,1742093439.142559
0.1585,0.1845,-0.04625,0.0049895,-0.001953,-0.014389,1742093439.157067
0.1755,0.11675,-0.027,-0.0002595,-0.00175475,-0.010803251,1742093439.171663
0.19525,0.0605,-0.01325,-0.0069885002,-0.0023039998,-0.0049742498,1742093439.186187
0.23975,-0.026,0.00125,-0.008773751,-0.002884,-0.00384525,1742093439.200672
0.25375,-0.05775,0.0055,-0.0088805,-0.0036010002,-0.00331125,1742093439.215265
0.2685,-0.088,0.0125,-0.0075225,-0.0036010002,-0.00283825,1742093439.229883
0.271,-0.086,0.011,-0.00399775,-0.00238025,-0.00169375,1742093439.244852
0.2555,-0.06275,-0.00875,-0.00263975,-0.0012970001,-0.000885,1742093439.25907
0.244,-0.04225,-0.021,-0.00169375,0.0002595,0.0015565,1742093439.275402
0.22675,0.0085,-0.04,-0.0016785001,0.0002595,0.00242625,1742093439.288001
0.226,0.026,-0.0465,-0.0020599999,-9.15e-05,0.0030365,1742093439.302374
0.2285,0.04,-0.0505,-0.00317375,-0.00065625,0.0038757501,1742093439.316865
0.23475,0.0655,-0.05125,-0.0035704998,-0.00090025004,0.0033875,1742093439.33133
0.238,0.0695,-0.0485,-0.00428775,-0.00137325,0.0009155,1742093439.345888
0.2405,0.0595,-0.03875,-0.0047607496,-0.00137325,0.00016775,1742093439.360391
0.2425,0.05075,-0.031,-0.00579825,-0.00071725,0.0007935,1742093439.375117
0.24975,0.033,-0.0195,-0.0061950004,-0.0001525,0.00177,1742093439.389378
0.2535,0.0235,-0.01825,-0.0060425,0.00010675,0.0033875,1742093439.404883
0.251,0.02025,-0.026,-0.0054780003,-0.00045775,0.0033875,1742093439.418261
0.24575,0.02825,-0.029,-0.00511175,-0.001114,0.00289925,1742093439.433995
0.24225,0.03475,-0.02775,-0.0052947504,-0.00181575,0.0013580001,1742093439.447262
0.24,0.03025,-0.02375,-0.0058287503,-0.00181575,0.001068,1742093439.461775
0.24075,0.026,-0.02475,-0.006668,-0.00146475,0.00238025,1742093439.476177
0.242,0.03175,-0.029,-0.00646975,-0.00149525,0.00292975,1742093439.4906728
0.24225,0.04,-0.03075,-0.00585925,-0.0016632499,0.0027465,1742093439.505166
0.23625,0.05725,-0.0355,-0.00596625,-0.0018005001,0.0019685,1742093439.5195541
0.23325,0.059,-0.03775,-0.0065307496,-0.0030669998,-1.5250001e-05,1742093439.534931
0.23325,0.051,-0.0375,-0.0064850003,-0.00367725,-0.00074775,1742093439.548627
0.236,0.049,-0.03225,-0.0064239996,-0.0038605002,-0.00093075,1742093439.5638669
0.2435,0.0465,-0.01875,-0.0073395,-0.0034942501,0.00102225,1742093439.5778182
0.246,0.04625,-0.01525,-0.0081025,-0.0032195,0.0023497501,1742093439.592273
0.2465,0.04825,-0.016,-0.0088805,-0.0028535,0.00302125,1742093439.60675
0.24025,0.054,-0.023,-0.0089875,-0.002655,0.002777,1742093439.621272
0.238,0.05325,-0.02475,-0.009094249,-0.00279225,0.001892,1742093439.6357849
0.2385,0.04725,-0.02075,-0.0085755,-0.0030975002,0.000946,1742093439.6502872
0.23825,0.048,-0.0165,-0.0079955,-0.0034942501,-0.00065625,1742093439.6648
0.23975,0.0445,-0.0095,-0.008865249,-0.0033875,-0.00059500005,1742093439.679411
0.24075,0.036,-0.01025,-0.011184749,-0.00242625,0.00033575002,1742093439.6947
0.242,0.024,-0.02325,-0.011795,-0.0020752498,6.1000002e-05,1742093439.708343
0.24275,0.02575,-0.02825,-0.0114440005,-0.002243,-0.00013725001,1742093439.722993
0.24325,0.03075,-0.02925,-0.008499251,-0.00317375,0.00112925,1742093439.737556
0.2445,0.04025,-0.022,-0.00720225,-0.003662,0.00068675,1742093439.752073
0.2455,0.0455,-0.01675,-0.00672925,-0.004593,-0.001068,1742093439.7666419
0.24625,0.04825,-0.011,-0.007904,-0.0049895,-0.0011445,1742093439.781247
0.24825,0.04375,-0.008,-0.0114135,-0.0055085,-0.00013725001,1742093439.795878
0.25275,0.0335,-0.0095,-0.01165775,-0.0053252503,-0.00029,1742093439.810461
0.254,0.02925,-0.00875,-0.009369001,-0.0041044997,-0.00354,1742093439.8253891
0.24675,0.02,-0.0075,-0.008072,-0.00428775,-0.0059205,1742093439.8397288
0.243,0.0135,-0.0085,-0.0058899997,-0.00579825,-0.009903,1742093439.85439
0.2435,0.00075,-0.008,-0.0047912505,-0.0063325,-0.011260999,1742093439.868876
0.24675,-0.0035,-0.00625,-0.00378425,-0.00643925,-0.01206975,1742093439.884634
0.2515,-0.00575,-0.0025,-0.0039215,-0.00460825,-0.0112915,1742093439.8982568
0.259,-0.014,0.0045,-0.0048674997,-0.0029145,-0.010376001,1742093439.912818
0.26,-0.0245,0.0065,-0.006073,0.00057975,-0.009216251,1742093439.927289
0.2585,-0.04175,0.00775,-0.00579825,0.00148,-0.009017999,1742093439.941775
0.25075,-0.04025,0.00125,-0.0043335,0.001587,-0.00903325,1742093439.9562602
0.23325,-0.029,-0.0015,-0.004837,0.00169375,-0.009140001,1742093439.970857
0.23525,-0.0375,0.00525,-0.0088195,-0.00064075,-0.012024,1742093439.9854348
0.2565,-0.127,0.06275,-0.009521499,-0.0021972498,-0.0160065,1742093440.0000498
0.2495,-0.202,0.10175,-0.01091,-0.0042267498,-0.022369498,1742093440.014826
0.24,-0.518,0.2245,-0.011825499,-0.00364675,-0.01988225,1742093440.0293498
0.2595,-0.73225,0.311,-0.0100555,-0.00231925,-0.015167249,1742093440.0456588
0.2745,-0.89275,0.3595,0.00991825,-0.00149525,7.625e-05,1742093440.058363
0.25425,-0.8805,0.40375,0.0237275,0.0002135,0.016388,1742093440.0727732
0.264,-0.74,0.44125,0.04904175,0.00941475,0.03891,1742093440.08705
0.22025,-0.23875,0.35075,0.064544745,0.01452625,0.040069498,1742093440.1013608
0.15875,0.1015,0.23975,0.0769805,0.022338752,0.04299925,1742093440.115684
0.0765,0.73475,-0.01325,0.07197575,0.02371225,0.040969748,1742093440.129923
0.06525,0.91925,-0.1435,0.0647125,0.02241525,0.032318,1742093440.1446369
0.06975,0.991,-0.25275,0.05055225,0.010498,0.005066,1742093440.158554
0.11125,0.884,-0.31875,0.0436555,0.0050355,-0.0062712496,1742093440.1729379
0.13025,0.77225,-0.28275,0.02575675,0.00067150005,-0.01782225,1742093440.18743
0.1545,0.51025,-0.169,0.01617425,0.0001525,-0.020462,1742093440.2018619
0.162,0.372,-0.1175,0.00331125,-0.00029,-0.0213165,1742093440.216314
0.18875,0.133,-0.039,-0.0023497501,0.00030525,-0.01640325,1742093440.230839
0.21125,0.05425,-0.00625,-0.0112,0.00108325,-0.00254825,1742093440.24526
0.266,-0.0425,0.03575,-0.011627249,0.0,0.0,1742093440.2596118
0.28325,-0.073,0.043,-0.010009751,-0.0015565,-0.00061025,1742093440.2748969
0.29325,-0.0895,0.0475,-0.00717175,-0.0028535,-0.001953,1742093440.288737
0.30025,-0.08875,0.0465,-0.0070495,-0.00190725,-0.00074775,1742093440.3044128
0.29475,-0.07275,0.032,-0.00662225,0.00239575,0.00193775,1742093440.3178
0.26875,-0.023,-0.01375,-0.0060577504,0.0044250004,0.00251775,1742093440.332244
0.25275,0.00075,-0.03325,-0.0052185003,0.00672925,0.0029145,1742093440.3467891
0.2215,0.04675,-0.05925,-0.0054932497,0.0066985004,0.003296,1742093440.3611782
0.21425,0.063,-0.0635,-0.0068969997,0.0043182503,0.00358575,1742093440.375695
0.21675,0.07525,-0.05975,-0.0072632497,0.00254825,0.0028229998,1742093440.390029
0.225,0.0755,-0.055,-0.00747675,0.00086975005,0.001648,1742093440.404917
0.2345,0.07225,-0.04825,-0.0081025,-0.0012817499,-0.00029,1742093440.419112
0.25325,0.057,-0.0255,-0.008590749,-0.00184625,-0.00059500005,1742093440.434324
0.2595,0.05025,-0.01275,-0.009796251,-0.00184625,7.625e-05,1742093440.448123
0.2595,0.03975,-0.00875,-0.010879501,-0.0012665,0.001007,1742093440.462563
0.25525,0.03,-0.0155,-0.01251225,-0.0005035,0.0018005001,1742093440.477071
0.251,0.002,-0.0275,-0.01197825,-0.0008545,0.00102225,1742093440.491447
0.24725,-0.004,-0.03,-0.00903325,-0.002365,-0.00033575002,1742093440.506123
0.2425,0.0105,-0.0225,-0.008377,-0.0029449998,0.00029,1742093440.52061
0.24025,0.019,-0.017,-0.008514499,-0.0030365,0.00143425,1742093440.5351748
0.23725,0.0235,-0.01575,-0.00991825,-0.00187675,0.00292975,1742093440.549587
0.23325,0.0215,-0.0235,-0.010314999,-0.0013275,0.002777,1742093440.5640872
0.23375,0.0195,-0.0275,-0.0099639995,-0.00149525,0.001587,1742093440.578731
0.23875,0.01725,-0.026,-0.009613,-0.00184625,0.001114,1742093440.594235
0.24025,0.018,-0.02375,-0.008606,-0.0022735,0.00016775,1742093440.607606
0.238,0.026,-0.02075,-0.008316,-0.0022125002,0.0,1742093440.622046
0.23675,0.029,-0.021,-0.008926501,-0.0022277501,0.0009765,1742093440.636669
0.23625,0.03025,-0.02725,-0.009491,-0.00228875,0.0013885,1742093440.651179
0.23825,0.02725,-0.0305,-0.009872501,-0.00238025,0.0012817499,1742093440.665623
0.241,0.02275,-0.0305,-0.00924675,-0.0029449998,0.0,1742093440.6801212
0.24325,0.0225,-0.01925,-0.008514499,-0.0031585,-0.00057975,1742093440.6947572
0.243,0.0255,-0.01225,-0.007782,-0.0029907501,-0.00070200005,1742093440.709356
0.23875,0.03425,-0.0115,-0.008026,-0.00279225,-0.00071725,1742093440.724671
0.2355,0.0355,-0.01575,-0.0090637505,-0.002472,-0.00163275,1742093440.7386408
0.227,0.03575,-0.02925,-0.010009751,-0.00254825,-0.0012055,1742093440.7545521
0.224,0.03775,-0.03375,-0.010788,-0.00381475,0.00010675,1742093440.767763
0.22925,0.0375,-0.0275,-0.010604749,-0.0047150003,7.625e-05,1742093440.782315
0.235,0.036,-0.01875,-0.009643501,-0.0060882503,-0.00157175,1742093440.7969348
0.24925,0.02875,-0.002,-0.009262,-0.0062407497,-0.002884,1742093440.811551
0.2515,0.022,-0.00125,-0.009017999,-0.00593575,-0.0042267498,1742093440.826187
0.246,0.0135,-0.0155,-0.009079001,-0.004486,-0.00541675,1742093440.840735
0.24325,0.01175,-0.02225,-0.0093995,-0.004013,-0.00491325,1742093440.855474
0.2425,0.0105,-0.025,-0.00991825,-0.0040435,-0.003662,1742093440.870045
0.24025,0.0055,-0.02325,-0.00991825,-0.00428775,-0.00340275,1742093440.884547
0.24175,0.00125,-0.01925,-0.0089875,-0.0050202496,-0.0037385002,1742093440.899123
0.25275,-0.0025,-0.003,-0.007843,-0.0052795,-0.0046845004,1742093440.9142761
0.25575,-0.004,0.0035,-0.00614925,-0.0048065,-0.0067597497,1742093440.928459
0.2545,-0.01675,0.008,-0.0061339997,-0.0043182503,-0.0072480002,1742093440.944373
0.24925,-0.02275,0.004,-0.006012,-0.00325,-0.0064239996,1742093440.9575691
0.2385,-0.023,-0.00525,-0.00514225,-0.00216675,-0.0056304997,1742093440.972262
0.234,-0.01475,-0.008,-0.00453175,-0.0013885,-0.00505075,1742093440.986938
0.237,-0.00925,-0.002,-0.00587475,-0.00251775,-0.00564575,1742093441.001529
0.249,-0.0265,0.0155,-0.00744625,-0.004013,-0.0068665,1742093441.0161421
0.264,-0.05675,0.04075,-0.00862125,-0.0057525,-0.011260999,1742093441.030717
0.27725,-0.16075,0.10325,-0.00947575,-0.00505075,-0.01245125,1742093441.045273
0.27775,-0.24075,0.1475,-0.011749251,-0.000885,-0.011550999,1742093441.059842
0.28425,-0.5175,0.27425,-0.008285499,0.00190725,-0.0105742505,1742093441.075593
0.287,-0.702,0.3315,0.001419,0.0060272496,-0.004074,1742093441.088693
0.26625,-0.85175,0.35125,0.010452249,0.0077210004,0.007431,1742093441.103026
0.24925,-0.75875,0.3545,0.031066999,0.01307675,0.0433655,1742093441.117436
0.26825,-0.37625,0.33925,0.0412445,0.01725775,0.052474998,1742093441.131775
0.237,-0.111,0.25125,0.053482,0.021453751,0.0504455,1742093441.146079
0.18125,0.16475,0.1355,0.06781,0.026825001,0.0351105,1742093441.160247
0.10775,0.621,-0.03825,0.06649775,0.02622975,0.027282748,1742093441.175283
0.10275,0.77725,-0.1125,0.05336,0.017807,0.009216251,1742093441.188839
0.11125,0.84925,-0.26425,0.04237375,0.012802,0.001648,1742093441.2031438
0.1095,0.77925,-0.30325,0.0254365,0.0088805,-0.0100707505,1742093441.217628
0.10425,0.577,-0.2595,0.02070625,0.00708,-0.01525875,1742093441.2321
0.1145,0.4595,-0.20575,0.01664725,0.0046234997,-0.019638,1742093441.246442
0.1315,0.34225,-0.147,0.008941749,0.0012207499,-0.02153025,1742093441.261025
0.17375,0.144,-0.05425,0.004013,0.0014037499,-0.017395,1742093441.276572
0.1945,0.0755,-0.025,-0.00585925,0.00238025,-0.0060272496,1742093441.289932
0.225,-0.02175,-0.0055,-0.00846875,0.0017242499,-0.0028687501,1742093441.304859
0.23775,-0.05725,-0.00425,-0.00717175,-0.00160225,-0.002655,1742093441.3191612
0.263,-0.08925,0.011,-0.0051880004,-0.00296025,-0.00320425,1742093441.3344462
0.2745,-0.08625,0.02225,-0.00216675,-0.00334175,-0.00242625,1742093441.34852
0.28125,-0.055,0.01475,-0.00131225,-0.00254825,-0.0016632499,1742093441.3646898
0.27225,-0.03275,-0.0055,-0.001007,-0.00125125,-0.00065625,1742093441.377872
0.24825,0.019,-0.04025,-0.0012970001,0.00137325,0.0015105,1742093441.392245
0.23775,0.0425,-0.04975,-0.0012817499,0.00190725,0.0018005001,1742093441.406763
0.22825,0.0605,-0.056,-0.0013580001,0.0017242499,0.00090025004,1742093441.421152
0.2165,0.0745,-0.06075,-0.001953,0.0013427499,0.00062550005,1742093441.435671
0.217,0.07325,-0.05875,-0.003418,0.00019825,0.00096125,1742093441.450065
0.22625,0.06975,-0.0485,-0.00416575,-0.000122000005,0.001526,1742093441.46484
0.232,0.071,-0.04275,-0.00614925,-0.00045775,0.00305175,1742093441.479125
0.24,0.071,-0.03325,-0.0070647504,-0.00054925,0.0034637498,1742093441.494734
0.243,0.069,-0.029,-0.00798025,-0.001419,0.00317375,1742093441.5082471
0.245,0.0585,-0.02475,-0.00811775,-0.0018005001,0.0030669998,1742093441.522766
0.24375,0.052,-0.026,-0.00817875,-0.0019225,0.0033722501,1742093441.537245
0.2435,0.046,-0.0285,-0.008133001,-0.00187675,0.0046234997,1742093441.551733
0.2435,0.04875,-0.03625,-0.00798025,-0.0021515,0.0045777503,1742093441.566248
0.2435,0.05525,-0.0375,-0.008255,-0.00328075,0.0027160002,1742093441.58077
0.2485,0.05275,-0.02975,-0.0086975,-0.00378425,0.0015105,1742093441.595253
0.24825,0.042,-0.02475,-0.00947575,-0.00364675,0.000412,1742093441.609772
0.23725,0.02425,-0.02225,-0.009781,-0.0030975002,0.000885,1742093441.6259332
0.2315,0.022,-0.0255,-0.00962825,-0.00251775,0.0021972498,1742093441.6387541
0.2235,0.033,-0.0415,-0.009140001,-0.0027160002,0.00231925,1742093441.654784
0.22275,0.04275,-0.047,-0.008850001,-0.00331125,0.0021819999,1742093441.667948
0.22675,0.048,-0.04425,-0.009719751,-0.005249,0.0017395001,1742093441.682397
0.2445,0.03625,-0.01875,-0.010147001,-0.005783,0.0012207499,1742093441.697081
0.2505,0.02925,-0.0095,-0.0101775,-0.00511175,-0.00036625,1742093441.711641
0.2495,0.02575,-0.00775,-0.010238751,-0.0043335,-0.00062550005,1742093441.726149
0.24475,0.02425,-0.01125,-0.01026925,-0.0031585,-0.0002595,1742093441.740847
0.2365,0.021,-0.019,-0.00997925,-0.00292975,-0.0002135,1742093441.755435
0.2315,0.02425,-0.023,-0.009384249,-0.00334175,-0.00061025,1742093441.76992
0.23475,0.035,-0.022,-0.009948749,-0.00408925,-0.000534,1742093441.784599
0.24225,0.033,-0.0165,-0.010940501,-0.0050202496,-0.00054925,1742093441.7991529
0.246,0.02625,-0.00875,-0.010314999,-0.005066,-0.00160225,1742093441.814406
0.24575,0.0255,-0.00675,-0.00941475,-0.00517275,-0.00296025,1742093441.8285198
0.2485,0.01775,-0.006,-0.008545,-0.0053252503,-0.00535575,1742093441.844608
0.24925,0.01675,-0.0085,-0.008499251,-0.00531,-0.00543225,1742093441.857839
0.249,0.01675,-0.01125,-0.007553,-0.0052795,-0.0049895,1742093441.872451
0.2505,0.01375,-0.00825,-0.0072175004,-0.00520325,-0.0046234997,1742093441.886894
0.254,0.01075,-0.0035,-0.007019,-0.00538625,-0.0049590003,1742093441.9015198
0.2565,0.007,0.0025,-0.0066374997,-0.005249,-0.00561525,1742093441.916061
0.25525,0.00225,0.00375,-0.0059205,-0.00384525,-0.0062865,1742093441.930443
0.25075,-0.00575,0.0015,-0.0057220003,-0.002884,-0.006256,1742093441.945069
0.2465,-0.00175,-0.0035,-0.0058135,-0.00213625,-0.006073,1742093441.9597619
0.24725,0.00425,-0.006,-0.0063477503,-0.0025025,-0.0058899997,1742093441.975326
0.25025,0.001,-0.0025,-0.0070037497,-0.0029449998,-0.0056609996,1742093441.9890208
0.2525,-0.00825,0.002,-0.008133001,-0.0027312501,-0.0049742498,1742093442.0047529
0.251,-0.01225,0.00175,-0.008346501,-0.002243,-0.0049895,1742093442.0184152
0.24975,-0.0175,0.0035,-0.00846875,-0.001953,-0.0068055,1742093442.034307
0.25925,-0.04075,0.0255,-0.008667,-0.0019989999,-0.00839225,1742093442.047533
0.264,-0.06225,0.0435,-0.0093995,-0.0009765,-0.011306751,1742093442.062138
0.267,-0.14725,0.091,-0.011016751,7.625e-05,-0.0119934995,1742093442.076736
0.2665,-0.225,0.13075,-0.00976575,0.0017852499,-0.010391249,1742093442.091435
0.27525,-0.49425,0.24675,-0.01121525,0.0027160002,-0.00811775,1742093442.105848
0.299,-0.63925,0.305,-0.0089875,0.00538625,-1.5250001e-05,1742093442.120403
0.32825,-0.7405,0.39575,0.001175,0.00880425,0.009658749,1742093442.1346638
0.32925,-0.678,0.4205,0.013122501,0.014328,0.021636998,1742093442.148909
0.317,-0.573,0.41175,0.040328998,0.02589425,0.034317,1742093442.164285
0.22075,-0.2105,0.24225,0.056991503,0.029266251,0.030914249,1742093442.177762
0.164,0.06725,0.125,0.07810975,0.028183,0.020629998,1742093442.1919098
0.10825,0.62675,-0.05875,0.07861325,0.0255585,0.015075751,1742093442.206272
0.095,0.80225,-0.1485,0.06375125,0.0168915,0.00149525,1742093442.2205079
0.10025,0.84525,-0.285,0.053299,0.0112915,-0.004593,1742093442.23488
0.103,0.77675,-0.31325,0.044342,0.0061339997,-0.010299751,1742093442.249237
0.108,0.68525,-0.30125,0.02948,0.0013885,-0.01841725,1742093442.264618
0.1345,0.46175,-0.199,0.02342225,0.000122000005,-0.020813,1742093442.278121
0.14725,0.35075,-0.14575,0.01316825,-0.00077825,-0.021041749,1742093442.292747
0.179,0.16125,-0.06475,0.00738525,7.625e-05,-0.016967751,1742093442.307137
0.19525,0.0905,-0.03875,-0.00381475,0.00175475,-0.00428775,1742093442.321666
0.235,-0.005,-0.0125,-0.0073547503,0.00154125,0.00030525,1742093442.336121
0.254,-0.0425,-0.00725,-0.00794975,-0.000229,0.002365,1742093442.350731
0.2715,-0.08425,0.00375,-0.0061339997,-0.00080875,0.001709,1742093442.365222
0.27175,-0.088,0.01,-0.0039825,-0.0009155,0.00125125,1742093442.379755
0.2655,-0.0675,0.005,-0.001526,-0.00013725001,0.00157175,1742093442.3945332
0.25525,-0.04725,-0.013,-0.00157175,0.00065625,0.0026245,1742093442.40876
0.241,-0.0205,-0.03425,-0.00148,0.002121,0.0044250004,1742093442.4249752
0.22175,0.04325,-0.06575,-0.00131225,0.00181575,0.00428775,1742093442.437779
0.221,0.0675,-0.071,-0.0017395001,-9.15e-05,0.00308225,1742093442.452139
0.2295,0.08,-0.066,-0.00245675,-0.001068,0.0025025,1742093442.466725
0.23575,0.07075,-0.05725,-0.00416575,-0.00228875,0.00228875,1742093442.481233
0.25,0.05225,-0.03125,-0.0044250004,-0.0027312501,0.00242625,1742093442.4957519
0.25375,0.0525,-0.023,-0.0045165,-0.00283825,0.002472,1742093442.5103009
0.24675,0.05425,-0.0245,-0.00538625,-0.00204475,0.003296,1742093442.5256908
0.2405,0.05575,-0.031,-0.005844,-0.001587,0.004013,1742093442.5393338
0.2355,0.0585,-0.03875,-0.0069274995,-0.0017852499,0.0048065,1742093442.554901
0.2325,0.061,-0.05225,-0.0076142503,-0.00228875,0.00469975,1742093442.5684469
0.2375,0.0565,-0.05175,-0.0085602505,-0.00358575,0.0025634998,1742093442.582826
0.2455,0.0395,-0.03775,-0.008346501,-0.00413525,0.0013275,1742093442.597331
0.24575,0.03525,-0.02875,-0.00791925,-0.0044555003,0.00099175,1742093442.611851
0.24475,0.03725,-0.01475,-0.008194,-0.00390625,0.00148,1742093442.6263528
0.241,0.03625,-0.01725,-0.0088805,-0.0022277501,0.00198375,1742093442.640845
0.228,0.03475,-0.03775,-0.009262,-0.00175475,0.00231925,1742093442.6554282
0.22525,0.03875,-0.0465,-0.009887749,-0.00177,0.0029145,1742093442.669962
0.22825,0.04125,-0.048,-0.0109709995,-0.00314325,0.0028687501,1742093442.684837
0.2425,0.0345,-0.034,-0.0104674995,-0.0042267498,0.001419,1742093442.6988459
0.2465,0.03,-0.02525,-0.008712751,-0.0052642496,-0.00115975,1742093442.714737
0.25075,0.02125,-0.01175,-0.008727999,-0.005005,-0.00077825,1742093442.728257
0.2505,0.01925,-0.00925,-0.009552,-0.0036010002,0.00163275,1742093442.742641
0.24325,0.02675,-0.0175,-0.009613,-0.003006,0.0025025,1742093442.757138
0.23725,0.0355,-0.025,-0.00935375,-0.0024414998,0.0031127501,1742093442.7716448
0.227,0.0575,-0.039,-0.009719751,-0.002655,0.003006,1742093442.7861178
0.22925,0.05825,-0.03825,-0.010452249,-0.00328075,0.0026092501,1742093442.800747
0.24475,0.0365,-0.02125,-0.0104065,-0.0050355,-4.575e-05,1742093442.815331
0.2485,0.027,-0.015,-0.009552,-0.00546275,-0.00177,1742093442.8299289
0.2495,0.02275,-0.01225,-0.0089569995,-0.004547,-0.002472,1742093442.844716
0.2495,0.024,-0.0115,-0.00912475,-0.00367725,-0.00177,1742093442.859114
0.24675,0.02625,-0.0145,-0.009094249,-0.00267025,-0.00112925,1742093442.8749812
0.24025,0.033,-0.023,-0.00935375,-0.0025940002,-0.0010375,1742093442.888309
0.24,0.03075,-0.02575,-0.010818499,-0.0033570002,-0.0028535,1742093442.902944
0.24375,0.019,-0.025,-0.010147001,-0.00393675,-0.00390625,1742093442.9174871
0.24475,0.0175,-0.01975,-0.00764475,-0.00460825,-0.0050355,1742093442.932117
0.24875,0.017,-0.0105,-0.007309,-0.0047455,-0.0052337497,1742093442.94674
0.25075,0.01475,-0.00875,-0.0077667497,-0.00463875,-0.00494375,1742093442.961329
0.24975,0.00775,-0.00825,-0.00935375,-0.0033722501,-0.00296025,1742093442.975918
0.24775,0.0065,-0.00975,-0.00953675,-0.0025940002,-0.002121,1742093442.9905212
0.24575,0.0095,-0.01225,-0.008712751,-0.0021515,-0.00213625,1742093443.005125
0.242,0.026,-0.019,-0.008224499,-0.00254825,-0.0027465,1742093443.0197299
0.24375,0.03225,-0.01775,-0.008224499,-0.00358575,-0.0043335,1742093443.034627
0.25125,0.02075,-0.0055,-0.00862125,-0.00381475,-0.00491325,1742093443.048938
0.25325,0.0095,-0.00075,-0.0091095,-0.0034637498,-0.0048674997,1742093443.06449
0.2525,0.00525,0.002,-0.00903325,-0.00317375,-0.00460825,1742093443.0781388
0.254,0.00625,0.00625,-0.00830075,-0.00328075,-0.0059967497,1742093443.092751
0.2595,-0.00875,0.02075,-0.00744625,-0.0033570002,-0.0080567505,1742093443.107316
0.26025,-0.02325,0.02475,-0.007431,-0.002365,-0.011260999,1742093443.12196
0.25475,-0.0585,0.02875,-0.0089875,-0.0013580001,-0.0118407495,1742093443.136514
0.25025,-0.0795,0.0345,-0.011245751,-0.00042725,-0.012634249,1742093443.151104
0.251,-0.12275,0.052,-0.013733,0.00071725,-0.01631175,1742093443.165647
0.26525,-0.31675,0.13575,-0.00897225,0.0018005001,-0.017547501,1742093443.180107
0.2765,-0.46425,0.1995,-0.00830075,0.00334175,-0.01463325,1742093443.194527
0.29675,-0.73325,0.2965,-0.0077972496,0.0046539996,-0.007019,1742093443.209035
0.298,-0.77175,0.33425,0.009674,0.01091,0.018890498,1742093443.225295
0.31975,-0.60125,0.37875,0.022827249,0.015533499,0.02876275,1742093443.2377338
0.30875,-0.415,0.34125,0.050598253,0.02186575,0.028594999,1742093443.252068
0.23875,0.0265,0.1775,0.06204225,0.022827249,0.022705,1742093443.26633
0.2,0.241,0.09575,0.0698395,0.02275075,0.016983,1742093443.2804859
0.167,0.42825,0.02125,0.071884245,0.0211945,0.00924675,1742093443.2948322
0.13175,0.68675,-0.12225,0.067886256,0.019806,0.0049590003,1742093443.309248
0.10925,0.753,-0.19925,0.0539855,0.0134735005,-0.00531,1742093443.32598
0.084,0.716,-0.29825,0.0436095,0.00985725,-0.00717175,1742093443.3381639
0.0895,0.6585,-0.30525,0.0242005,0.004074,-0.008285499,1742093443.352747
0.13025,0.498,-0.233,0.017868,0.00083925005,-0.01091,1742093443.3670888
0.15275,0.3865,-0.1735,0.013183501,-0.0023497501,-0.0142365,1742093443.3816378
0.175,0.27375,-0.11125,0.00302125,-0.00494375,-0.0148925,1742093443.3960729
0.224,0.07375,-0.0075,-0.00343325,-0.0037995,-0.010513251,1742093443.410649
0.24375,-0.008,0.01825,-0.010879501,-0.00080875,-0.0005035,1742093443.425925
0.2635,-0.11475,0.02075,-0.01026925,-0.000473,0.0017242499,1742093443.43982
0.265,-0.1395,0.01225,-0.0048065,-0.0012665,0.0020905002,1742093443.4546602
0.258,-0.121,-0.0015,-0.0022277501,-0.0016632499,0.0026092501,1742093443.468978
0.2495,-0.0805,-0.0115,-0.00024425,-0.00181575,0.00561525,1742093443.484839
0.23425,0.01075,-0.03775,-0.00039675,-0.001419,0.00671375,1742093443.498018
0.228,0.045,-0.0495,-0.00045775,-0.000885,0.0065765,1742093443.512491
0.2195,0.089,-0.06475,-0.00077825,-0.00039675,0.0040435,1742093443.52703
0.21775,0.0995,-0.06875,-0.0017395001,-0.000534,0.0030365,1742093443.541692
0.22,0.1015,-0.0675,-0.0047150003,-0.00154125,0.0017242499,1742093443.5560992
0.23575,0.0855,-0.0535,-0.0058287503,-0.0022125002,0.001007,1742093443.570699
0.2445,0.07425,-0.04175,-0.006668,-0.00276175,-0.0005035,1742093443.585217
0.25425,0.0545,-0.0205,-0.0075377496,-0.00270075,-0.00042725,1742093443.5997171
0.25525,0.04625,-0.01725,-0.009842,-0.0023497501,0.0013580001,1742093443.614723
0.243,0.0425,-0.0295,-0.010314999,-0.0021515,0.0022735,1742093443.628644
0.2375,0.04725,-0.03925,-0.0110015,-0.00242625,0.0033570002,1742093443.64415
0.2415,0.0455,-0.04325,-0.011245751,-0.00279225,0.0031889998,1742093443.657731
0.248,0.03525,-0.03825,-0.01098625,-0.0034484998,0.00238025,1742093443.672244
0.25375,0.021,-0.03075,-0.00985725,-0.0047607496,-0.00010675,1742093443.686836
0.2555,-0.00075,-0.0205,-0.009781,-0.004837,-0.00039675,1742093443.701628
0.2525,0.002,-0.02025,-0.011306751,-0.00358575,0.00201425,1742093443.716152
0.2425,0.02275,-0.028,-0.01239025,-0.0027160002,0.003662,1742093443.7307131
0.23575,0.02975,-0.0345,-0.013503999,-0.00184625,0.004486,1742093443.745228
0.2255,0.0265,-0.04,-0.01339725,-0.0020752498,0.00358575,1742093443.7596538
0.224,0.021,-0.038,-0.0128175,-0.003296,0.001419,1742093443.775299
0.22675,0.01675,-0.02975,-0.012634249,-0.0038605002,0.0008545,1742093443.7886531
0.23125,0.01775,-0.02425,-0.01245125,-0.00437925,0.00070200005,1742093443.803113
0.23575,0.027,-0.01825,-0.0127105,-0.0046539996,0.00099175,1742093443.8176441
0.23375,0.02675,-0.02025,-0.013443,-0.0041504996,0.0015565,1742093443.832114
0.229,0.024,-0.02625,-0.01445,-0.0033264998,0.00267025,1742093443.846724
0.224,0.02625,-0.03775,-0.0144805005,-0.003662,0.002655,1742093443.861417
0.23,0.03125,-0.0345,-0.014343251,-0.0053405,0.0012207499,1742093443.8761501
0.25,0.03225,-0.01575,-0.0138855,-0.00590525,-6.1000002e-05,1742093443.890715
0.2555,0.0255,-0.00825,-0.011901749,-0.0059815003,-0.002655,1742093443.9052281
0.2595,0.01625,-0.0015,-0.0115205,-0.0055695,-0.00242625,1742093443.919713
0.2605,0.01875,-0.00325,-0.01216125,-0.004486,-0.00045775,1742093443.934674
0.25775,0.02825,-0.013,-0.012252751,-0.0041504996,-1.5250001e-05,1742093443.9486568
0.25525,0.03125,-0.01725,-0.011886501,-0.00411975,-0.0004425,1742093443.963876
0.252,0.03025,-0.02,-0.01026925,-0.004837,-0.0028535,1742093443.977806
0.2505,0.0175,-0.01525,-0.009231499,-0.0052947504,-0.0042115003,1742093443.9923909
0.25375,0.012,-0.011,-0.0070952503,-0.00541675,-0.00662225,1742093444.0069618
0.25625,0.0165,-0.0105,-0.00643925,-0.0050812503,-0.007187,1742093444.021471
0.2565,0.017,-0.0115,-0.0072937496,-0.0042267498,-0.0062865,1742093444.0360909
0.253,0.005,-0.01125,-0.00823975,-0.0038605002,-0.00546275,1742093444.05071
0.2475,0.00025,-0.012,-0.009445249,-0.00314325,-0.004242,1742093444.065228
0.23475,-0.00675,-0.017,-0.00862125,-0.0028074998,-0.00440975,1742093444.0798988
0.23175,-0.01075,-0.018,-0.0058287503,-0.0035095,-0.00593575,1742093444.09474
0.2395,-0.012,-0.00975,-0.0049895,-0.0043639997,-0.0062712496,1742093444.10938
0.2455,-0.00975,-0.0025,-0.0047150003,-0.00488275,-0.0059967497,1742093444.1245282
0.24925,-0.0105,0.0075,-0.0057677496,-0.004303,-0.004593,1742093444.138606
0.24725,-0.014,0.00975,-0.00646975,-0.0036315,-0.0041044997,1742093444.1531641
0.243,-0.0185,0.00925,-0.0062712496,-0.00317375,-0.0046234997,1742093444.167727
0.2405,-0.02875,0.014,-0.0057372497,-0.00320425,-0.00543225,1742093444.182278
0.24525,-0.03775,0.02575,-0.00511175,-0.00354,-0.00738525,1742093444.196815
0.2705,-0.08675,0.07775,-0.005005,-0.00372325,-0.0088805,1742093444.211406
0.2855,-0.1325,0.11125,-0.0047302498,-0.002121,-0.013061499,1742093444.2259479
0.293,-0.273,0.1785,-0.00305175,0.0007325,-0.01412975,1742093444.240428
0.296,-0.3805,0.216,0.0059967497,0.00270075,-0.009933501,1742093444.254838
0.306,-0.63025,0.2975,0.01339725,0.00090025004,-0.00466925,1742093444.269418
0.31025,-0.716,0.347,0.02111825,7.625e-05,0.000122000005,1742093444.284754
0.30025,-0.752,0.3855,0.03793325,0.00833125,0.00637825,1742093444.297921
0.2235,-0.6565,0.37475,0.04891975,0.013198749,0.008224499,1742093444.312223
0.19775,-0.4765,0.32925,0.070358254,0.017654499,0.014510999,1742093444.3265312
0.175,0.05425,0.18525,0.0737305,0.02153025,0.0224305,1742093444.340893
0.16875,0.33125,0.0905,0.07115175,0.0256195,0.03067025,1742093444.355125
0.1675,0.84825,-0.1265,0.068985,0.023697,0.02412425,1742093444.3694458
0.17,0.97075,-0.2125,0.06457525,0.01857,0.0135345,1742093444.384403
0.167,0.95875,-0.2605,0.04957575,0.009796251,-0.0053252503,1742093444.397999
0.14075,0.7385,-0.2545,0.038452253,0.0080415,-0.009582501,1742093444.412389
0.11925,0.61375,-0.23675,0.01690675,0.0065307496,-0.010681249,1742093444.426851
0.10325,0.421,-0.17175,0.00968925,0.00640875,-0.0125275,1742093444.4412951
0.11925,0.3275,-0.12775,-0.00086975005,-0.00102225,-0.01091,1742093444.455919
0.182,0.1355,-0.02475,-0.0058899997,-0.00511175,-0.0065765,1742093444.470481
0.21525,0.05175,0.0115,-0.01148975,-0.00697325,-0.0005645,1742093444.484979
0.2665,-0.07475,0.03325,-0.011139,-0.0055085,-0.00067150005,1742093444.4995232
0.285,-0.112,0.04175,-0.00975025,-0.004074,-0.0014495,1742093444.5144892
0.29425,-0.12575,0.04725,-0.007187,-0.00263975,0.00068675,1742093444.5285382
0.28725,-0.09625,0.027,-0.006256,-0.00157175,0.0032655,1742093444.544648
0.27875,-0.073,-0.005,-0.0052795,0.0045625,0.0061339997,1742093444.5576372
0.2505,-0.01475,-0.03625,-0.0038757501,0.005249,0.0050355,1742093444.572198
0.233,0.01375,-0.05525,-0.00175475,0.0030975002,0.001953,1742093444.586632
0.2145,0.05975,-0.075,-0.0023345,0.00204475,0.001419,1742093444.601019
0.21475,0.0745,-0.07275,-0.00517275,0.00062550005,0.00137325,1742093444.615377
0.2255,0.0735,-0.0595,-0.006302,7.625e-05,0.00115975,1742093444.629738
0.23375,0.05875,-0.051,-0.0070647504,-0.0003205,0.0007325,1742093444.644257
0.239,0.0375,-0.043,-0.00741575,-0.00045775,0.0008545,1742093444.65874
0.23425,0.00675,-0.03325,-0.0072937496,-0.00010675,0.00146475,1742093444.675127
0.2275,0.0055,-0.0325,-0.00791925,0.00030525,0.004074,1742093444.687476
0.21925,0.02325,-0.036,-0.008590749,0.0002135,0.0055847503,1742093444.701928
0.21875,0.03425,-0.0395,-0.00924675,-0.0010375,0.00694275,1742093444.7164218
0.22975,0.051,-0.0395,-0.009155249,-0.0020295,0.006775,1742093444.7308302
0.2375,0.05675,-0.03625,-0.0089875,-0.0027312501,0.00611875,1742093444.745386
0.24875,0.059,-0.03425,-0.009384249,-0.00263975,0.0042725,1742093444.759827
0.25,0.0535,-0.0335,-0.009734999,-0.0022277501,0.0035704998,1742093444.775716
0.24825,0.04775,-0.03325,-0.01042175,-0.00154125,0.0028229998,1742093444.7887921
0.24,0.044,-0.03525,-0.01095575,-0.00146475,0.0026854998,1742093444.804801
0.235,0.041,-0.0385,-0.01177975,-0.0017852499,0.002411,1742093444.817834
0.23075,0.03625,-0.04525,-0.0115815,-0.0021972498,0.00201425,1742093444.832407
0.23425,0.0345,-0.04375,-0.010589501,-0.0032347501,0.00093075,1742093444.84682
0.24125,0.0345,-0.0365,-0.0104065,-0.0033875,0.00062550005,1742093444.861303
0.24325,0.034,-0.03225,-0.01187125,-0.0030669998,0.00160225,1742093444.8757749
0.24725,0.0205,-0.026,-0.012496999,-0.00267025,0.0024414998,1742093444.890413
0.2455,0.0145,-0.028,-0.012375,-0.0022277501,0.0029449998,1742093444.9048371
0.244,0.0125,-0.02925,-0.010589501,-0.00163275,0.00270075,1742093444.919418
0.2425,0.02125,-0.0315,-0.009643501,-0.00160225,0.0020599999,1742093444.934311
0.245,0.02375,-0.03075,-0.0089569995,-0.0022125002,0.0016175,1742093444.948392
0.253,0.025,-0.02475,-0.009231499,-0.00245675,0.0020752498,1742093444.962829
0.255,0.024,-0.02175,-0.0104065,-0.00198375,0.002777,1742093444.9774039
0.24975,0.01125,-0.02325,-0.010589501,-0.0012970001,0.00270075,1742093444.9917881
0.24625,0.00425,-0.02575,-0.0088805,-3.0500001e-05,0.0018615,1742093445.006418
0.24325,0.00325,-0.0305,-0.00723275,9.15e-05,0.0008545,1742093445.0207272
0.2425,0.00725,-0.03125,-0.00546275,-0.00013725001,-0.000473,1742093445.035298
0.2415,0.0115,-0.03125,-0.00396725,-0.001175,-0.00228875,1742093445.049875
0.244,0.00925,-0.029,-0.0049285004,-0.00154125,-0.0017395001,1742093445.064578
0.24675,0.0075,-0.02725,-0.00723275,-0.001587,0.00065625,1742093445.078874
0.24875,0.013,-0.02625,-0.0075377496,-0.00143425,0.0010375,1742093445.0944068
0.24775,0.0145,-0.0265,-0.0064239996,-0.0011445,-0.00027475,1742093445.10792
0.24525,0.0085,-0.02575,-0.0053405,-0.00099175,-0.00169375,1742093445.122485
0.24275,0.002,-0.025,-0.0030669998,-0.000885,-0.0039825,1742093445.1370392
0.237,-0.00125,-0.027,-0.0028687501,-0.00096125,-0.00355525,1742093445.151731
0.23925,0.00325,-0.02525,-0.00364675,-0.00112925,-0.0021057501,1742093445.1661901
0.2485,0.0125,-0.02075,-0.00567625,-0.0012817499,0.00062550005,1742093445.180639
0.24825,0.017,-0.023,-0.00587475,-0.0010375,0.00064075,1742093445.195086
0.2455,0.01975,-0.02725,-0.0054932497,-0.000412,-0.00071725,1742093445.209593
0.242,0.0135,-0.031,-0.00511175,-0.00027475,-0.0013885,1742093445.2249222
0.242,0.00975,-0.03025,-0.004242,-0.0004425,-0.0016175,1742093445.2386749
0.24125,0.01825,-0.029,-0.0042725,-0.00090025004,-0.00119025,1742093445.254567
0.24475,0.0225,-0.0265,-0.0054475004,-0.002121,-0.0005645,1742093445.267639
0.25175,0.0165,-0.02075,-0.0055237496,-0.0023345,-0.00112925,1742093445.282188
0.2495,0.009,-0.02025,-0.00520325,-0.0022125002,-0.0020295,1742093445.2966971
0.2465,-0.0055,-0.02225,-0.0041504996,-0.001892,-0.0033875,1742093445.31126
0.2455,-0.00825,-0.0235,-0.00355525,-0.001831,-0.003662,1742093445.325897
0.24525,-0.00725,-0.0235,-0.00328075,-0.00187675,-0.00263975,1742093445.3406389
0.249,-0.003,-0.02025,-0.00354,-0.001892,-0.00154125,1742093445.355295
0.25025,-0.00325,-0.01925,-0.00354,-0.00149525,-0.00013725001,1742093445.369966
0.249,-0.005,-0.0195,-0.0030669998,-0.0012970001,-0.00027475,1742093445.384713
0.24875,-0.006,-0.0195,-0.00157175,-0.0012665,-0.0014495,1742093445.399384
0.24825,-0.00675,-0.019,-0.00096125,-0.00131225,-0.0017852499,1742093445.414449
