acc_x,acc_y,acc_z,gyro_x,gyro_y,gyro_z,timestamp
0.006,0.01325,0.2495,1.5250001e-05,-1.5250001e-05,-6.1000002e-05,1742093639.1059651
0.00525,0.01275,0.254,3.0500001e-05,0.0,-7.625e-05,1742093639.1180348
0.0055,0.01275,0.25375,-1.5250001e-05,4.575e-05,-9.15e-05,1742093639.132382
0.006,0.013,0.251,-6.1000002e-05,6.1000002e-05,-6.1000002e-05,1742093639.146712
0.006,0.013,0.24875,-3.0500001e-05,1.5250001e-05,-6.1000002e-05,1742093639.161192
0.006,0.01325,0.252,1.5250001e-05,0.0,-9.15e-05,1742093639.175356
0.006,0.0135,0.2525,0.0,3.0500001e-05,-9.15e-05,1742093639.189614
0.00575,0.01325,0.24925,0.0,6.1000002e-05,-4.575e-05,1742093639.203841
0.00575,0.01325,0.251,3.0500001e-05,3.0500001e-05,-3.0500001e-05,1742093639.218413
0.006,0.01325,0.25325,3.0500001e-05,3.0500001e-05,-4.575e-05,1742093639.23243
0.00625,0.013,0.25275,-3.0500001e-05,6.1000002e-05,-6.1000002e-05,1742093639.24689
0.00625,0.01275,0.2495,-3.0500001e-05,4.575e-05,-6.1000002e-05,1742093639.261281
0.006,0.013,0.2505,1.5250001e-05,1.5250001e-05,-7.625e-05,1742093639.275501
0.00625,0.013,0.25275,0.0,1.5250001e-05,-7.625e-05,1742093639.2897239
0.00625,0.01325,0.25125,-3.0500001e-05,1.5250001e-05,-7.625e-05,1742093639.304131
0.0055,0.0135,0.25,-1.5250001e-05,0.0,-7.625e-05,1742093639.318951
0.00525,0.01325,0.25125,0.0,-1.5250001e-05,-7.625e-05,1742093639.332721
0.00525,0.01325,0.252,-3.0500001e-05,1.5250001e-05,-9.15e-05,1742093639.347098
0.0055,0.01325,0.25025,-3.0500001e-05,3.0500001e-05,-9.15e-05,1742093639.361474
0.00575,0.01325,0.25025,0.0,3.0500001e-05,-7.625e-05,1742093639.375655
0.00575,0.013,0.252,1.5250001e-05,3.0500001e-05,-7.625e-05,1742093639.3898911
0.006,0.013,0.25175,0.0,6.1000002e-05,-9.15e-05,1742093639.404128
0.00575,0.013,0.25025,0.0,4.575e-05,-7.625e-05,1742093639.4190679
0.00575,0.013,0.25075,3.0500001e-05,3.0500001e-05,-9.15e-05,1742093639.432606
0.006,0.013,0.25175,4.575e-05,1.5250001e-05,-7.625e-05,1742093639.446789
0.006,0.0135,0.251,3.0500001e-05,1.5250001e-05,-7.625e-05,1742093639.461076
0.006,0.0135,0.25025,1.5250001e-05,1.5250001e-05,-6.1000002e-05,1742093639.4753332
0.006,0.013,0.25125,1.5250001e-05,1.5250001e-05,-6.1000002e-05,1742093639.489635
0.006,0.013,0.2515,0.0,1.5250001e-05,-6.1000002e-05,1742093639.503925
0.00575,0.013,0.251,0.0,0.0,-6.1000002e-05,1742093639.518959
0.00575,0.01275,0.25075,1.5250001e-05,0.0,-4.575e-05,1742093639.532338
0.00575,0.013,0.25125,0.0,1.5250001e-05,-6.1000002e-05,1742093639.546579
0.00575,0.01325,0.25125,0.0,1.5250001e-05,-6.1000002e-05,1742093639.560825
0.00575,0.01325,0.2505,1.5250001e-05,0.0,-7.625e-05,1742093639.574995
0.0055,0.0135,0.25125,1.5250001e-05,0.0,-7.625e-05,1742093639.5892339
0.0055,0.0135,0.2515,3.0500001e-05,1.5250001e-05,-7.625e-05,1742093639.6034298
0.0055,0.01325,0.25125,0.0,4.575e-05,-7.625e-05,1742093639.6182358
0.006,0.013,0.25075,0.0,3.0500001e-05,-7.625e-05,1742093639.63188
0.00625,0.013,0.25125,1.5250001e-05,0.0,-7.625e-05,1742093639.646268
0.006,0.013,0.25125,1.5250001e-05,1.5250001e-05,-7.625e-05,1742093639.6605499
0.006,0.013,0.251,0.0,1.5250001e-05,-7.625e-05,1742093639.674808
0.00575,0.01325,0.251,-1.5250001e-05,0.0,-9.15e-05,1742093639.6891499
0.0055,0.0135,0.25125,-1.5250001e-05,0.0,-9.15e-05,1742093639.703566
0.00575,0.01325,0.2515,0.0,1.5250001e-05,-6.1000002e-05,1742093639.7185512
0.006,0.01325,0.25075,0.0,1.5250001e-05,-6.1000002e-05,1742093639.732139
0.00575,0.01325,0.2505,0.0,-1.5250001e-05,-7.625e-05,1742093639.746458
0.0055,0.01325,0.251,-1.5250001e-05,1.5250001e-05,-0.00010675,1742093639.760834
0.0055,0.01325,0.25125,1.5250001e-05,3.0500001e-05,-0.0001525,1742093639.775132
0.006,0.01325,0.251,3.0500001e-05,1.5250001e-05,-0.00016775,1742093639.789366
0.00625,0.01325,0.25125,1.5250001e-05,1.5250001e-05,-0.00016775,1742093639.803606
0.006,0.01325,0.25125,0.0,3.0500001e-05,-0.000122000005,1742093639.8186612
0.006,0.01325,0.251,1.5250001e-05,3.0500001e-05,-0.00010675,1742093639.832129
0.00575,0.0135,0.251,1.5250001e-05,1.5250001e-05,-7.625e-05,1742093639.846347
0.0055,0.0135,0.251,3.0500001e-05,1.5250001e-05,-7.625e-05,1742093639.860609
0.0055,0.01325,0.25075,1.5250001e-05,1.5250001e-05,-7.625e-05,1742093639.874866
0.00575,0.01325,0.25075,1.5250001e-05,3.0500001e-05,-6.1000002e-05,1742093639.889059
0.00575,0.01325,0.25125,3.0500001e-05,3.0500001e-05,-6.1000002e-05,1742093639.9033442
0.00575,0.01325,0.251,3.0500001e-05,1.5250001e-05,-7.625e-05,1742093639.917669
0.00575,0.013,0.251,1.5250001e-05,1.5250001e-05,-6.1000002e-05,1742093639.931917
0.006,0.013,0.251,0.0,1.5250001e-05,-6.1000002e-05,1742093639.946265
0.006,0.013,0.25125,0.0,1.5250001e-05,-6.1000002e-05,1742093639.9605498
0.006,0.013,0.25125,0.0,1.5250001e-05,-7.625e-05,1742093639.9747462
0.0055,0.01325,0.251,0.0,0.0,-7.625e-05,1742093639.98897
0.00575,0.01325,0.25075,0.0,0.0,-6.1000002e-05,1742093640.003226
0.00575,0.01325,0.25075,0.0,1.5250001e-05,-7.625e-05,1742093640.018394
0.00625,0.01375,0.25125,0.0,1.5250001e-05,-6.1000002e-05,1742093640.031848
0.00625,0.0135,0.2515,1.5250001e-05,0.0,-6.1000002e-05,1742093640.046147
0.006,0.013,0.25125,0.0,0.0,-6.1000002e-05,1742093640.060352
0.006,0.013,0.25125,0.0,0.0,-6.1000002e-05,1742093640.074605
0.006,0.013,0.251,0.0,0.0,-6.1000002e-05,1742093640.089018
0.00575,0.01325,0.251,-1.5250001e-05,-1.5250001e-05,-6.1000002e-05,1742093640.103322
0.00575,0.013,0.251,-6.1000002e-05,-1.5250001e-05,-6.1000002e-05,1742093640.1185222
0.0055,0.01325,0.25075,-6.1000002e-05,-3.0500001e-05,-4.575e-05,1742093640.132323
0.0055,0.01325,0.251,-9.15e-05,-3.0500001e-05,-3.0500001e-05,1742093640.1468108
0.006,0.0135,0.251,-9.15e-05,-3.0500001e-05,-3.0500001e-05,1742093640.161223
0.00625,0.01325,0.251,-9.15e-05,-3.0500001e-05,-1.5250001e-05,1742093640.1758668
0.0055,0.01325,0.25125,-0.000122000005,0.0,-6.1000002e-05,1742093640.190208
0.00475,0.01325,0.25125,-0.00016775,1.5250001e-05,-0.00013725001,1742093640.2047172
0.005,0.0135,0.25125,-0.00024425,-1.5250001e-05,-0.0003205,1742093640.2191439
0.00625,0.01425,0.25125,-0.00024425,-3.0500001e-05,-0.00030525,1742093640.2336278
0.00625,0.014,0.25125,-0.00010675,0.0,-0.00010675,1742093640.248708
0.00575,0.01375,0.251,-4.575e-05,-1.5250001e-05,-6.1000002e-05,1742093640.2625139
0.0055,0.01375,0.251,1.5250001e-05,-1.5250001e-05,-4.575e-05,1742093640.276822
0.006,0.0135,0.25125,1.5250001e-05,0.0,-6.1000002e-05,1742093640.291085
0.00575,0.0135,0.25125,1.5250001e-05,0.0,-7.625e-05,1742093640.3053062
0.006,0.0135,0.25125,0.0,0.0,-4.575e-05,1742093640.31956
0.00575,0.01375,0.251,-1.5250001e-05,0.0,-4.575e-05,1742093640.333911
0.00575,0.014,0.251,-1.5250001e-05,-3.0500001e-05,-6.1000002e-05,1742093640.3486478
0.00575,0.014,0.25125,-1.5250001e-05,-3.0500001e-05,-6.1000002e-05,1742093640.3628101
0.00575,0.01375,0.25125,-0.00010675,0.0,-7.625e-05,1742093640.37713
0.006,0.0135,0.25125,-0.0001525,1.5250001e-05,-7.625e-05,1742093640.391437
0.006,0.0135,0.25125,-0.00016775,1.5250001e-05,-7.625e-05,1742093640.405906
0.00575,0.01375,0.251,-0.00024425,1.5250001e-05,-6.1000002e-05,1742093640.4202611
0.00575,0.014,0.25075,-0.000229,3.0500001e-05,-4.575e-05,1742093640.434634
0.006,0.014,0.251,-0.00016775,1.5250001e-05,-4.575e-05,1742093640.449034
0.00575,0.014,0.25125,-0.00016775,0.0,-4.575e-05,1742093640.4634292
0.00575,0.014,0.251,-0.0001525,1.5250001e-05,-6.1000002e-05,1742093640.478695
0.00575,0.01425,0.25075,-6.1000002e-05,0.0,-6.1000002e-05,1742093640.492188
0.00575,0.01425,0.251,0.0003205,-6.1000002e-05,-0.000122000005,1742093640.5067399
0.0055,0.01375,0.251,0.0005035,-0.00010675,-0.00016775,1742093640.5211
0.0055,0.0135,0.251,0.00045775,-9.15e-05,-0.00019825,1742093640.535567
0.00575,0.01375,0.251,0.0,1.5250001e-05,-0.00013725001,1742093640.549793
0.006,0.01425,0.251,-3.0500001e-05,0.0,-0.00010675,1742093640.5642219
0.006,0.014,0.25125,0.00010675,-0.00010675,-4.575e-05,1742093640.578791
0.00575,0.0135,0.25125,0.000122000005,-0.00013725001,-4.575e-05,1742093640.5932028
0.00575,0.0135,0.251,0.00013725001,-0.000122000005,-4.575e-05,1742093640.608364
0.005,0.0135,0.25075,0.00035100002,-0.00019825,-7.625e-05,1742093640.622062
0.00475,0.01325,0.2515,0.00051875,-0.000229,-0.0001525,1742093640.636399
0.00475,0.01325,0.2515,0.00033575002,-0.00013725001,-0.00039675,1742093640.65092
0.0045,0.01325,0.251,0.0002595,-0.000122000005,-0.00061025,1742093640.66523
0.00525,0.01325,0.251,0.000122000005,-4.575e-05,-0.00080875,1742093640.6798122
0.00475,0.013,0.25125,7.625e-05,0.0,-0.00074775,1742093640.694098
0.0045,0.01325,0.25125,1.5250001e-05,0.0,-0.00099175,1742093640.7086
0.0065,0.013,0.25075,-1.5250001e-05,-1.5250001e-05,-0.001068,1742093640.7227929
0.0065,0.01325,0.251,-1.5250001e-05,-1.5250001e-05,-0.00061025,1742093640.738602
0.005,0.01325,0.25125,0.0,-1.5250001e-05,-0.00048825,1742093640.751795
0.005,0.01325,0.251,0.0,0.0,-0.00062550005,1742093640.766117
0.00575,0.01375,0.251,-1.5250001e-05,-4.575e-05,-0.00070200005,1742093640.7805948
0.00625,0.014,0.2515,0.0,-3.0500001e-05,-0.00039675,1742093640.7949052
0.00575,0.0135,0.25125,0.0,1.5250001e-05,-4.575e-05,1742093640.809163
0.00575,0.013,0.25075,1.5250001e-05,3.0500001e-05,-4.575e-05,1742093640.82341
0.00575,0.01325,0.251,1.5250001e-05,4.575e-05,-9.15e-05,1742093640.838457
0.0055,0.0135,0.25125,-1.5250001e-05,4.575e-05,-9.15e-05,1742093640.8520691
0.00525,0.0135,0.251,-3.0500001e-05,3.0500001e-05,-7.625e-05,1742093640.866441
0.00525,0.01375,0.25075,-6.1000002e-05,3.0500001e-05,-9.15e-05,1742093640.880783
0.0055,0.01375,0.25125,-7.625e-05,6.1000002e-05,-0.00010675,1742093640.895224
0.00575,0.0135,0.25125,-9.15e-05,0.00010675,-0.00010675,1742093640.909589
0.00575,0.01325,0.251,-0.00010675,0.00010675,-0.000122000005,1742093640.924038
0.0055,0.0135,0.251,-0.0001525,-3.0500001e-05,-0.00010675,1742093640.939085
0.00525,0.0135,0.25125,-0.000122000005,-4.575e-05,-9.15e-05,1742093640.9528651
0.0055,0.0135,0.25125,-7.625e-05,-1.5250001e-05,-9.15e-05,1742093640.9673102
0.00575,0.0135,0.25075,-6.1000002e-05,3.0500001e-05,-9.15e-05,1742093640.9817111
0.0055,0.0135,0.25125,-0.00013725001,-1.5250001e-05,-6.1000002e-05,1742093640.9963279
0.0055,0.01375,0.2515,-0.00036625,-0.00016775,3.0500001e-05,1742093641.010758
0.00525,0.0135,0.25125,-0.000412,-0.00019825,6.1000002e-05,1742093641.025237
0.00525,0.0135,0.251,-0.00039675,-0.000183,0.00010675,1742093641.039597
0.00525,0.01425,0.25125,-0.0002595,-0.0001525,9.15e-05,1742093641.054017
0.0055,0.014,0.25125,0.0,-7.625e-05,6.1000002e-05,1742093641.068929
0.00525,0.014,0.2505,9.15e-05,-1.5250001e-05,4.575e-05,1742093641.082688
0.00525,0.01375,0.251,0.00024425,9.15e-05,4.575e-05,1742093641.0982358
0.0055,0.01375,0.25125,0.000183,0.00010675,6.1000002e-05,1742093641.1111948
0.00475,0.0145,0.25075,0.0001525,7.625e-05,0.00010675,1742093641.12528
0.00475,0.01425,0.25075,0.00033575002,0.00013725001,0.0003815,1742093641.1396859
0.005,0.01375,0.25125,0.00035100002,0.00016775,0.00045775,1742093641.153792
0.005,0.01375,0.25125,0.0003205,0.000183,0.00054925,1742093641.16864
0.005,0.01425,0.25125,0.00030525,0.0001525,0.00062550005,1742093641.1822422
0.005,0.014,0.251,0.00029,0.0001525,0.00074775,1742093641.196566
0.00525,0.01375,0.251,0.000229,0.00013725001,0.000946,1742093641.210727
0.005,0.01425,0.25125,0.0,4.575e-05,0.00105275,1742093641.2249222
0.004,0.016,0.25075,-0.00042725,-0.00016775,0.00157175,1742093641.239229
0.00475,0.01425,0.251,-0.00019825,-4.575e-05,0.001892,1742093641.253676
0.0055,0.013,0.251,0.0,9.15e-05,0.00201425,1742093641.268928
0.006,0.01275,0.251,0.000183,0.0001525,0.0017242499,1742093641.282136
0.0065,0.01275,0.25125,9.15e-05,0.00010675,0.001648,1742093641.2963562
0.0075,0.011,0.25125,-0.00024425,-6.1000002e-05,0.001175,1742093641.310878
0.00675,0.0105,0.25125,-0.0003815,-0.000183,0.00045775,1742093641.325206
0.005,0.0135,0.251,-0.00024425,-0.0001525,-0.00051875,1742093641.339683
0.00525,0.01425,0.251,-0.000183,-0.00010675,-0.000412,1742093641.354218
0.005,0.014,0.25125,-0.00013725001,-0.00013725001,-0.00027475,1742093641.369209
0.0045,0.01425,0.25125,3.0500001e-05,-0.00013725001,-0.00033575002,1742093641.383221
0.00475,0.0145,0.25175,0.000183,-0.00016775,-0.00035100002,1742093641.39855
0.005,0.0145,0.252,0.00024425,-0.00048825,-0.00027475,1742093641.412034
0.00475,0.01425,0.2515,0.000122000005,-0.00068675,-0.000183,1742093641.426409
0.004,0.01425,0.25,-0.000183,-0.00067150005,3.0500001e-05,1742093641.440779
0.00375,0.01375,0.249,-0.0002135,-0.0002595,3.0500001e-05,1742093641.455136
0.004,0.01375,0.25,-0.000229,0.000473,0.0,1742093641.469368
0.005,0.01425,0.252,-0.0002135,0.00045775,1.5250001e-05,1742093641.483613
0.005,0.01425,0.25175,-0.0002135,0.00019825,3.0500001e-05,1742093641.498718
0.00475,0.01425,0.25125,-0.0002135,-0.00010675,0.0,1742093641.512314
0.0045,0.014,0.25075,-0.0001525,0.0,-4.575e-05,1742093641.5268679
0.0045,0.014,0.25125,-1.5250001e-05,4.575e-05,-0.00010675,1742093641.5411992
0.00475,0.014,0.25125,1.5250001e-05,-6.1000002e-05,-0.00013725001,1742093641.555615
0.005,0.014,0.25125,4.575e-05,-0.000122000005,-0.00016775,1742093641.5700228
0.005,0.01425,0.2515,6.1000002e-05,-9.15e-05,-0.000183,1742093641.584388
0.005,0.01425,0.25175,3.0500001e-05,-7.625e-05,-0.00016775,1742093641.598668
0.00475,0.014,0.25175,-6.1000002e-05,-0.0003205,-0.00016775,1742093641.613177
0.00425,0.01425,0.2515,-0.00010675,-0.00042725,-0.00016775,1742093641.628837
0.0045,0.01425,0.25125,-0.0002135,-0.00051875,-0.000122000005,1742093641.6422331
0.00425,0.01425,0.251,-0.0002595,-0.00057975,-0.000122000005,1742093641.656676
0.0035,0.01375,0.25025,-9.15e-05,-0.000534,-0.000229,1742093641.671205
0.0035,0.00675,0.2505,0.00013725001,-0.00019825,-0.0008545,1742093641.685602
0.004,0.007,0.25175,-0.00033575002,0.00013725001,-0.00334175,1742093641.700031
0.004,0.0135,0.25075,-0.00064075,7.625e-05,-0.0043639997,1742093641.714348
0.00375,0.01825,0.251,-0.000824,4.575e-05,-0.0047150003,1742093641.72876
0.00425,0.021,0.251,-0.00115975,0.000122000005,-0.00305175,1742093641.7431512
0.005,0.0225,0.2505,-0.0012055,0.000122000005,-0.0016175,1742093641.75841
0.004,0.01825,0.25,-0.00048825,1.5250001e-05,0.00019825,1742093641.771803
0.00375,0.01475,0.2505,-0.00013725001,7.625e-05,0.0001525,1742093641.786127
0.004,0.01525,0.25025,0.000122000005,0.00030525,-0.0001525,1742093641.800396
0.00475,0.0155,0.25125,0.0002135,0.00036625,-0.00016775,1742093641.81468
0.0045,0.0155,0.2515,0.0002595,0.00029,-0.0001525,1742093641.8290272
0.0045,0.01525,0.25125,0.00019825,4.575e-05,-0.00010675,1742093641.8433201
0.00475,0.015,0.25075,0.00010675,0.0,-9.15e-05,1742093641.858458
0.00475,0.015,0.2515,-7.625e-05,-6.1000002e-05,-7.625e-05,1742093641.872192
0.00475,0.01525,0.2515,-0.000122000005,-0.00016775,-6.1000002e-05,1742093641.886699
0.00425,0.0155,0.2505,1.5250001e-05,-0.0001525,-9.15e-05,1742093641.901234
0.004,0.0155,0.25025,6.1000002e-05,1.5250001e-05,-0.00010675,1742093641.915476
0.00425,0.01525,0.251,-6.1000002e-05,0.00016775,-0.000122000005,1742093641.9298701
0.00425,0.0145,0.25125,-0.00013725001,4.575e-05,-0.000183,1742093641.944215
0.0045,0.0145,0.251,-0.000183,-9.15e-05,-0.00030525,1742093641.958687
0.0045,0.015,0.25075,-0.00019825,-0.000183,-0.00054925,1742093641.973171
0.0045,0.0165,0.251,-0.00016775,-0.000122000005,-0.0005645,1742093641.987722
0.0045,0.01625,0.25125,-7.625e-05,-3.0500001e-05,-0.00029,1742093642.002191
0.0045,0.01575,0.251,-6.1000002e-05,-6.1000002e-05,-0.00013725001,1742093642.0167072
0.00425,0.0155,0.25075,-1.5250001e-05,-3.0500001e-05,0.0,1742093642.031094
0.00375,0.01525,0.25075,3.0500001e-05,6.1000002e-05,-4.575e-05,1742093642.045548
0.004,0.01525,0.2505,3.0500001e-05,0.0001525,-0.00010675,1742093642.059767
0.004,0.0155,0.25075,1.5250001e-05,0.000229,-9.15e-05,1742093642.07409
0.0045,0.0155,0.25125,-1.5250001e-05,0.00016775,-6.1000002e-05,1742093642.089102
0.00475,0.0155,0.251,-0.000122000005,0.0,-6.1000002e-05,1742093642.1027908
0.0045,0.0155,0.25075,-0.00010675,-1.5250001e-05,-7.625e-05,1742093642.1171908
0.00425,0.0155,0.25075,1.5250001e-05,4.575e-05,-9.15e-05,1742093642.131489
0.00425,0.01525,0.25125,7.625e-05,9.15e-05,-0.00016775,1742093642.145782
0.0045,0.015,0.25125,7.625e-05,0.00010675,-0.0002595,1742093642.1601121
0.0045,0.01525,0.25125,6.1000002e-05,4.575e-05,-0.000412,1742093642.1745
0.00425,0.01625,0.25075,6.1000002e-05,3.0500001e-05,-0.000412,1742093642.189054
0.00425,0.01625,0.25075,0.00013725001,7.625e-05,-0.0003205,1742093642.2030542
0.00475,0.01575,0.25075,0.000183,0.000122000005,-0.0002595,1742093642.217292
0.00475,0.0155,0.251,0.00016775,0.000122000005,-0.00019825,1742093642.231533
0.005,0.01575,0.251,0.0001525,7.625e-05,-0.00019825,1742093642.245754
0.00475,0.0155,0.25075,9.15e-05,0.0,-0.000122000005,1742093642.2601988
0.0045,0.0155,0.25025,4.575e-05,0.0,-0.00010675,1742093642.274509
0.00475,0.016,0.251,4.575e-05,3.0500001e-05,-0.00010675,1742093642.288773
0.00475,0.01525,0.25125,-0.0003205,-0.0001525,3.0500001e-05,1742093642.303178
0.004,0.0155,0.25,-0.00024425,-0.00024425,-7.625e-05,1742093642.317667
0.00375,0.01575,0.24975,0.00029,0.00010675,-0.00019825,1742093642.332083
0.005,0.01575,0.25175,0.00039675,0.00027475,-0.000183,1742093642.346396
0.00475,0.0155,0.2515,0.00029,0.0002595,-0.0001525,1742093642.360779
0.0045,0.01525,0.2505,7.625e-05,4.575e-05,-0.00013725001,1742093642.375065
0.0045,0.0155,0.251,6.1000002e-05,3.0500001e-05,-0.0001525,1742093642.389536
0.00475,0.0155,0.25125,4.575e-05,9.15e-05,-0.0001525,1742093642.4037938
0.0045,0.015,0.25075,1.5250001e-05,6.1000002e-05,-0.000122000005,1742093642.4183419
0.0045,0.015,0.25075,-3.0500001e-05,3.0500001e-05,-9.15e-05,1742093642.432502
0.005,0.01475,0.25175,-9.15e-05,4.575e-05,-7.625e-05,1742093642.4468539
0.00475,0.0155,0.25075,-0.0002595,-1.5250001e-05,-9.15e-05,1742093642.4613209
0.00425,0.01575,0.2505,-0.0002135,-4.575e-05,-0.000122000005,1742093642.475832
0.00425,0.01575,0.25075,-0.0001525,-4.575e-05,-0.000122000005,1742093642.4903092
0.00425,0.01575,0.25125,1.5250001e-05,4.575e-05,-0.00010675,1742093642.504699
0.0045,0.01525,0.25075,3.0500001e-05,4.575e-05,-0.00010675,1742093642.519142
0.00475,0.01525,0.25075,4.575e-05,1.5250001e-05,-0.00013725001,1742093642.533401
0.005,0.0155,0.2515,6.1000002e-05,1.5250001e-05,-0.00013725001,1742093642.548754
0.00475,0.01575,0.25125,7.625e-05,3.0500001e-05,-6.1000002e-05,1742093642.5620549
0.00475,0.0155,0.2505,3.0500001e-05,3.0500001e-05,-6.1000002e-05,1742093642.576323
0.00475,0.0155,0.25075,-1.5250001e-05,3.0500001e-05,-7.625e-05,1742093642.590636
0.0045,0.01525,0.251,-1.5250001e-05,0.0,-0.00010675,1742093642.605195
0.00425,0.0155,0.25075,6.1000002e-05,1.5250001e-05,-0.000122000005,1742093642.619494
0.0045,0.0155,0.251,0.000122000005,3.0500001e-05,-0.00010675,1742093642.633749
0.005,0.0155,0.24825,6.1000002e-05,0.0,-0.000122000005,1742093642.6481678
