acc_x,acc_y,acc_z,gyro_x,gyro_y,gyro_z,timestamp
0.21125,0.01725,-0.06,0.00086975005,0.0002135,0.00074775,1742092557.1161332
0.2135,0.01475,-0.064,0.001007,0.0002595,0.0005645,1742092557.130427
0.213,0.012,-0.06525,0.0011445,-3.0500001e-05,0.0007935,1742092557.14485
0.2155,0.0075,-0.064,0.00109875,-0.0002595,0.0011445,1742092557.159403
0.2175,0.0085,-0.06325,0.00108325,-0.00045775,0.00143425,1742092557.1737652
0.2185,0.0125,-0.06375,0.0007325,-0.00061025,0.0017395001,1742092557.188079
0.222,0.0195,-0.067,0.00036625,-0.000534,0.00184625,1742092557.202511
0.22325,0.021,-0.069,-3.0500001e-05,-0.0005035,0.00143425,1742092557.217311
0.222,0.0205,-0.074,3.0500001e-05,-0.00080875,0.001007,1742092557.231314
0.2225,0.0195,-0.0745,0.0003815,-0.00146475,0.0003205,1742092557.246544
0.23,0.017,-0.07125,0.00061025,-0.0017852499,3.0500001e-05,1742092557.260056
0.23425,0.01775,-0.069,0.00071725,-0.0022125002,-0.00039675,1742092557.274389
0.23725,0.01775,-0.0665,0.00059500005,-0.00213625,-0.00035100002,1742092557.288906
0.237,0.01775,-0.06725,0.0003815,-0.0019225,-0.00010675,1742092557.303355
0.23725,0.018,-0.06825,-7.625e-05,-0.00160225,0.00068675,1742092557.317976
0.2385,0.018,-0.06975,-0.000122000005,-0.001526,0.00083925005,1742092557.332363
0.2385,0.01675,-0.07025,0.0002595,-0.00163275,0.0003205,1742092557.346839
0.2365,0.01475,-0.0685,0.00042725,-0.0017852499,0.0,1742092557.361257
0.2355,0.01575,-0.06625,0.000229,-0.0019685,-0.00039675,1742092557.37644
0.23175,0.0125,-0.0585,7.625e-05,-0.00187675,-0.00059500005,1742092557.390143
0.2235,0.01125,-0.04825,0.00019825,-0.0016632499,-0.00090025004,1742092557.404778
0.1565,0.02075,0.00275,0.00093075,-0.0014037499,-0.0018005001,1742092557.419074
0.07525,0.03375,0.047,0.00137325,-0.001526,-0.00204475,1742092557.433473
-0.049,0.0385,0.08175,0.0043182503,-0.003418,0.0013275,1742092557.447947
-0.4175,-0.0955,0.03625,0.00494375,-0.0063934997,0.00672925,1742092557.462351
-0.6005,-0.223,-0.0225,-0.0012207499,-0.02336125,0.024414,1742092557.4771662
-0.7395,-0.34325,-0.07725,-0.00267025,-0.040664747,0.030334499,1742092557.491828
-0.652,-0.26175,-0.04725,0.0071409997,-0.0882415,0.0246735,1742092557.506476
-0.14175,0.07175,0.206,0.01251225,-0.11050425,0.014282251,1742092557.520855
0.2465,0.15425,0.402,0.02503975,-0.140503,-0.00369275,1742092557.536584
0.90875,0.05475,0.68925,0.0266265,-0.128357,-0.018341,1742092557.549551
1.0,0.055,0.694,0.024658252,-0.0946045,-0.042633,1742092557.563825
1.0,0.07325,0.5825,0.014709501,-0.03462225,-0.05653375,1742092557.5781708
0.98,0.0965,0.30575,0.0076295,-0.017273001,-0.0436555,1742092557.592545
0.909,0.1175,0.1955,0.0011445,0.00408925,-0.027771,1742092557.606741
0.65775,0.12025,0.06375,-0.00289925,0.01324475,-0.021179251,1742092557.6210701
0.55425,0.09675,0.04375,-0.008941749,0.02548225,-0.00283825,1742092557.636544
0.39825,0.04725,0.0345,-0.00697325,0.0275115,0.00029,1742092557.649736
0.34125,0.01675,0.03575,-0.00320425,0.02731325,-0.00030525,1742092557.6640131
0.299,-0.01275,0.0435,0.00239575,0.0232085,3.0500001e-05,1742092557.678356
0.2325,-0.03825,0.0585,0.0032655,0.0220185,0.0031127501,1742092557.692661
0.20425,-0.04,0.052,0.000885,0.01893625,0.01026925,1742092557.706974
0.18075,-0.03975,0.03675,-0.00010675,0.016418502,0.01197825,1742092557.721251
0.17975,-0.0345,0.03525,0.0002595,0.01095575,0.009796251,1742092557.736746
0.1905,-0.0355,0.0385,0.00071725,0.008712751,0.0067597497,1742092557.749978
0.20225,-0.0425,0.0435,0.00112925,0.0071409997,0.00390625,1742092557.764204
0.2145,-0.0465,0.04925,0.001419,0.005844,0.00064075,1742092557.778489
0.2345,-0.0395,0.06075,0.0010375,0.005844,0.00033575002,1742092557.7927659
0.2405,-0.03525,0.0625,0.0002135,0.0068665,0.001526,1742092557.807073
0.24525,-0.03,0.0555,0.000183,0.0073547503,0.00242625,1742092557.821378
0.24675,-0.02475,0.05075,0.00036625,0.0075225,0.0036162501,1742092557.836844
0.253,-0.01075,0.0495,0.0003815,0.0073395,0.0036010002,1742092557.849947
0.2585,-0.007,0.0525,0.00019825,0.0072175004,0.0034637498,1742092557.864169
0.26425,-0.0065,0.05575,-0.00029,0.0075072497,0.003952,1742092557.878572
0.26875,-0.001,0.05825,-0.00030525,0.0080415,0.004242,1742092557.892899
0.267,0.0045,0.056,0.000183,0.009613,0.00390625,1742092557.9070468
0.25825,0.0095,0.0465,0.00045775,0.01026925,0.0035095,1742092557.92141
0.25525,0.01025,0.04125,0.0003205,0.010803251,0.0031889998,1742092557.936727
0.25125,0.0125,0.0325,-0.0002135,0.01071175,0.0034942501,1742092557.949902
0.25125,0.012,0.02825,-0.000946,0.01048275,0.004013,1742092557.964195
0.25175,0.0095,0.0245,-0.0019685,0.0101775,0.00517275,1742092557.978442
0.25475,0.0065,0.02225,-0.0020599999,0.0099945,0.0053709997,1742092557.994942
0.25725,0.00575,0.022,-0.001831,0.009506251,0.00453175,1742092558.007217
0.26125,0.0065,0.0225,-0.001648,0.009491,0.0039215,1742092558.021461
0.26125,0.00775,0.022,-0.00154125,0.009643501,0.0033722501,1742092558.0369658
0.26,0.00675,0.0195,-0.00204475,0.010437001,0.0032195,1742092558.0500941
0.255,0.002,0.00975,-0.00245675,0.01083375,0.0037537501,1742092558.064346
0.25275,0.00075,0.00475,-0.0024872501,0.011078,0.0047302498,1742092558.078676
0.25,-0.00025,-0.002,-0.0020599999,0.01086425,0.0047302498,1742092558.09316
0.25025,0.00025,-0.004,-0.00071725,0.0101775,0.0040435,1742092558.107552
0.2515,0.004,-0.00375,3.0500001e-05,0.010009751,0.0034790002,1742092558.12186
0.252,0.008,-0.00375,0.00064075,0.00985725,0.0024414998,1742092558.136757
0.25025,0.01325,-0.009,0.0004425,0.00985725,0.0023497501,1742092558.1505752
0.24775,0.013,-0.01075,9.15e-05,0.0100707505,0.0026245,1742092558.164896
0.2445,0.0115,-0.0115,-0.0005645,0.0106965,0.00352475,1742092558.179287
0.23725,0.0045,-0.01575,-0.000534,0.010742251,0.0035704998,1742092558.19365
0.23375,0.0025,-0.0185,0.00057975,0.0099945,0.0026245,1742092558.2079842
0.23475,0.011,-0.02025,0.0009155,0.009323,0.0021819999,1742092558.2222269
0.2395,0.01625,-0.01925,-0.0003815,0.008850001,0.0029755002,1742092558.2369401
0.24525,0.0175,-0.01525,-0.0012665,0.009445249,0.00399775,1742092558.2508411
0.243,0.01675,-0.01525,-0.0016632499,0.010391249,0.0046845004,1742092558.265235
0.236,0.01675,-0.018,-0.0012207499,0.0116425,0.00402825,1742092558.279537
0.2195,0.01275,-0.028,-0.00083925005,0.011612001,0.0032655,1742092558.293843
0.21425,0.008,-0.03175,-7.625e-05,0.010513251,0.00190725,1742092558.308258
0.211,0.00875,-0.03525,7.625e-05,0.009734999,0.0016632499,1742092558.322465
0.21,0.0115,-0.035,0.000183,0.00891125,0.0016632499,1742092558.336718
0.2055,0.0155,-0.036,0.00019825,0.008926501,0.001175,1742092558.3509572
0.20425,0.01825,-0.03625,0.00019825,0.009017999,0.00029,1742092558.365246
0.20175,0.0185,-0.03375,0.00048825,0.0088805,-9.15e-05,1742092558.379528
0.19625,0.00175,-0.0295,0.0005035,0.00880425,0.00016775,1742092558.393833
0.1885,-0.007,-0.0315,0.0016175,0.008850001,0.00035100002,1742092558.408452
0.15575,-0.00075,-0.02775,0.00276175,0.0085602505,-9.15e-05,1742092558.423085
0.1215,0.01075,-0.014,0.0046539996,0.0075225,-0.0028229998,1742092558.437438
0.0055,0.0245,0.02825,0.0053709997,0.00708,-0.004486,1742092558.4517398
-0.08825,0.0105,0.04,0.006363,0.0067902496,-0.0041810004,1742092558.467545
-0.206,-0.01875,0.02525,0.008346501,0.00747675,0.00791925,1742092558.480535
-0.4715,-0.13875,-0.10425,0.009643501,0.00434875,0.016098,1742092558.4949272
-0.585,-0.19575,-0.14875,0.01322925,-0.022766002,0.023224002,1742092558.509465
-0.6205,-0.1955,-0.12625,0.014587499,-0.045043997,0.02189625,1742092558.524011
-0.5305,-0.138,-0.05375,0.01747125,-0.0864715,0.0149995005,1742092558.53855
-0.13,0.059,0.23775,0.020813,-0.10305775,0.006668,1742092558.552822
0.193,0.11,0.39875,0.0326995,-0.129074,-0.011749251,1742092558.5676942
0.89,0.04375,0.71225,0.03318775,-0.119934,-0.02664175,1742092558.58165
1.0,0.02575,0.7475,0.030777,-0.09288025,-0.0442505,1742092558.5968692
1.0,0.02825,0.66925,0.018585252,-0.030746501,-0.048446752,1742092558.6103392
0.988,0.0865,0.39,0.01150525,-0.010803251,-0.0381165,1742092558.6247199
0.9325,0.14025,0.25475,0.006012,0.01148975,-0.027099501,1742092558.638939
0.613,0.16025,0.04075,0.001892,0.019455,-0.01956175,1742092558.6532412
0.4635,0.14575,0.0095,-0.004593,0.031967252,-0.0033722501,1742092558.667819
0.26825,0.104,0.001,-0.0049895,0.030609248,-0.0041810004,1742092558.682074
0.21275,0.071,0.005,-0.004486,0.026733499,-0.0076599997,1742092558.697024
0.1805,0.03275,0.01575,-0.00358575,0.017028749,-0.0044555003,1742092558.7110138
0.1655,-0.02775,0.04825,-0.00302125,0.013854999,0.00157175,1742092558.726642
0.1665,-0.0385,0.05725,-0.00201425,0.008636501,0.0101165,1742092558.739825
0.1855,-0.015,0.06475,-0.0018615,0.006546,0.01136775,1742092558.7542531
0.195,-0.00875,0.06575,-0.0015565,0.0045165,0.007431,1742092558.768553
0.207,-0.01425,0.06,-0.00093075,0.00364675,0.0039215,1742092558.78292
0.2125,-0.02125,0.05825,-0.0002595,0.002884,0.00077825,1742092558.797316
0.218,-0.02875,0.058,-0.00039675,0.003128,-0.0020295,1742092558.81179
0.23025,-0.03775,0.05725,-0.00099175,0.00354,-0.00181575,1742092558.8269298
0.2345,-0.037,0.05575,-0.001175,0.0033264998,-0.0009155,1742092558.8406038
0.243,-0.02075,0.0525,-0.00093075,0.0027160002,-0.00064075,1742092558.856658
0.24875,-0.01175,0.05225,-0.0007935,0.0016785001,-4.575e-05,1742092558.86961
0.26025,0.00275,0.05475,-0.00090025004,0.001526,-0.00010675,1742092558.8840199
0.2665,0.0075,0.05625,-0.0013885,0.00177,-0.000412,1742092558.898301
0.27775,0.00675,0.06125,-0.0016785001,0.00204475,-0.0002595,1742092558.912699
0.2815,0.0055,0.063,-0.00190725,0.0024414998,9.15e-05,1742092558.926896
0.28325,0.006,0.0635,-0.00228875,0.00369275,0.00125125,1742092558.941141
0.285,0.008,0.06475,-0.002472,0.00453175,0.0020599999,1742092558.956778
0.28325,0.00825,0.06425,-0.0027312501,0.0067902496,0.0037079998,1742092558.969863
0.2715,0.00725,0.05725,-0.0029145,0.0077667497,0.0043182503,1742092558.984135
0.2675,0.00675,0.05375,-0.00289925,0.008712751,0.0044250004,1742092558.998417
0.2625,0.00925,0.05075,-0.002884,0.008926501,0.00390625,1742092559.012712
0.26075,0.0085,0.04825,-0.00314325,0.009079001,0.003296,1742092559.026918
0.257,0.00475,0.044,-0.0036162501,0.009582501,0.0028229998,1742092559.041274
0.25025,-0.0085,0.035,-0.0037079998,0.00976575,0.00314325,1742092559.056919
0.2525,-0.01325,0.03275,-0.00372325,0.009445249,0.0044707498,1742092559.0700648
0.2635,-0.0125,0.03425,-0.0034790002,0.009323,0.0049590003,1742092559.084615
0.26625,-0.0075,0.036,-0.00292975,0.0097045,0.00453175,1742092559.099021
0.26175,-0.0065,0.031,-0.00279225,0.0103455,0.004013,1742092559.1133509
0.25625,-0.01125,0.02525,-0.0026092501,0.011123749,0.0037537501,1742092559.127841
0.2525,-0.013,0.0205,-0.0022735,0.011810251,0.0043944996,1742092559.142276
0.251,-0.003,0.01575,-0.0021819999,0.011627249,0.005005,1742092559.156939
0.251,0.00475,0.0135,-0.0012665,0.0112305,0.00488275,1742092559.1709619
0.252,0.017,0.0105,-0.00064075,0.011031999,0.0038757501,1742092559.1867251
0.2525,0.01825,0.0105,0.0,0.011306751,0.0022125002,1742092559.199296
0.251,0.012,0.0095,-7.625e-05,0.011764499,0.0021819999,1742092559.213651
0.24825,0.008,0.006,-0.0003205,0.0122375,0.0025634998,1742092559.227923
0.24475,0.0055,0.001,-0.000534,0.012634249,0.00358575,1742092559.242164
0.24,0.0055,-0.007,-0.0003205,0.012496999,0.0040587503,1742092559.256788
0.2395,0.0075,-0.00875,0.00033575002,0.01187125,0.004593,1742092559.2710578
0.24075,0.01875,-0.0085,0.00033575002,0.011673001,0.00466925,1742092559.286659
0.2405,0.02725,-0.00775,-0.000885,0.01193225,0.0047455,1742092559.2997272
0.2285,0.03825,-0.013,-0.00177,0.012420749,0.0046845004,1742092559.3140259
0.21825,0.037,-0.018,-0.0025634998,0.0129395,0.004547,1742092559.328371
0.2085,0.03,-0.0225,-0.003418,0.013092,0.00367725,1742092559.342759
0.19725,0.01875,-0.02875,-0.00343325,0.012436,0.002884,1742092559.357059
0.19675,0.0195,-0.0305,-0.0039825,0.010452249,0.001892,1742092559.3715641
0.19925,0.01475,-0.02225,-0.004242,0.009734999,0.00160225,1742092559.387054
0.202,0.00725,-0.0165,-0.0029449998,0.0089569995,-0.0004425,1742092559.400312
0.1985,-0.00225,-0.01275,-0.0017852499,0.008865249,-0.00184625,1742092559.4148679
0.188,-0.00225,-0.01475,-0.00054925,0.0088195,-0.00340275,1742092559.4294121
0.1585,-0.00375,-0.01925,-0.0005645,0.00845325,-0.00314325,1742092559.443948
0.13875,-0.00475,-0.017,-0.00048825,0.00782775,-0.002533,1742092559.458438
0.1095,-0.0065,-0.013,0.000885,0.0056,-0.0016175,1742092559.472847
0.0115,-0.01625,-0.00275,0.00193775,0.00434875,-0.00068675,1742092559.487338
-0.05425,-0.0255,0.01175,0.0035704998,0.001419,0.00367725,1742092559.5017102
-0.239,-0.0695,0.014,0.0046845004,-0.000824,0.00744625,1742092559.517204
-0.353,-0.09175,-0.024,0.00419625,-0.0079345,0.02737425,1742092559.5306518
-0.4995,-0.07775,-0.071,0.001419,-0.014572251,0.041824248,1742092559.546771
-0.46725,-0.07,-0.0305,0.00416575,-0.03942875,0.040099997,1742092559.5599291
-0.2375,-0.081,0.078,0.01324475,-0.056045502,0.01890575,1742092559.5743449
-0.07275,-0.02075,0.13475,0.0218505,-0.07266225,-0.00308225,1742092559.5889049
0.148,0.0575,0.222,0.025848499,-0.09553525,-0.016128499,1742092559.6034
0.75075,0.08275,0.42975,0.0234375,-0.090332,-0.0302735,1742092559.6178508
0.963,0.05825,0.4405,0.0186005,-0.0506135,-0.06652825,1742092559.632257
1.0,-0.02925,0.33875,0.011169501,-0.0301665,-0.06192025,1742092559.647059
1.0,-0.00425,0.25575,0.000946,-0.00334175,-0.02964775,1742092559.66115
0.8515,0.1315,0.0705,-0.00175475,0.00411975,-0.017700251,1742092559.676809
0.709,0.175,0.01,-0.005005,0.0116425,-0.00924675,1742092559.6898181
0.4595,0.18575,-0.0035,-0.008606,0.02731325,-0.0028535,1742092559.7042198
0.3525,0.15675,-0.009,-0.0077515002,0.027130252,-0.005539,1742092559.718605
0.273,0.11675,-0.00475,-0.00296025,0.020813,-0.007553,1742092559.7331011
0.188,0.02175,0.01825,-0.00149525,0.017517,-0.0030365,1742092559.747442
0.16475,-0.01025,0.03075,-0.0018615,0.01454175,0.00665275,1742092559.761763
0.14475,-0.03375,0.0425,-0.00231925,0.012054499,0.0095672505,1742092559.777104
0.149,-0.03925,0.04775,-0.0014495,0.0058899997,0.009872501,1742092559.7903402
0.16625,-0.03725,0.0455,-0.00054925,0.00317375,0.0063325,1742092559.804727
0.18175,-0.03225,0.0445,0.0002135,0.00109875,0.0028074998,1742092559.8189492
0.204,-0.03125,0.04775,0.0003815,-6.1000002e-05,-0.00160225,1742092559.833288
0.23725,-0.0355,0.048,-1.5250001e-05,0.00059500005,-0.00225825,1742092559.8477929
0.247,-0.0335,0.04425,-0.001526,0.00198375,-0.00065625,1742092559.862207
0.265,-0.0255,0.04175,-0.0018615,0.0022277501,-1.5250001e-05,1742092559.876728
0.2735,-0.02175,0.041,-0.0012665,0.00238025,-0.00045775,1742092559.891076
0.28975,-0.0145,0.03875,-0.0008545,0.00267025,-0.00067150005,1742092559.9069319
0.29925,-0.0065,0.03775,-0.0004425,0.0030365,-0.00068675,1742092559.920104
0.30775,0.0055,0.03775,0.0003205,0.00340275,-0.00061025,1742092559.934391
0.3145,0.024,0.03825,0.00045775,0.00372325,-0.0003815,1742092559.9486961
0.30975,0.0255,0.03725,0.00033575002,0.00535575,0.00064075,1742092559.962795
0.2925,0.02325,0.03075,-0.00019825,0.00614925,0.001709,1742092559.97714
0.2855,0.02275,0.02525,-0.00204475,0.0065002497,0.00413525,1742092559.991529
0.27725,0.025,0.01525,-0.00267025,0.0061950004,0.0047607496,1742092560.006349
0.27575,0.02825,0.016,-0.0029907501,0.00579825,0.00485225,1742092560.020247
0.27475,0.03025,0.0215,-0.00325,0.00596625,0.00390625,1742092560.034569
0.268,0.02375,0.0355,-0.003296,0.0067902496,0.0032347501,1742092560.0489001
0.262,0.0145,0.0385,-0.0032347501,0.00918575,0.0025940002,1742092560.063282
0.254,-0.0015,0.03,-0.00331125,0.010086001,0.00251775,1742092560.077736
0.2505,-0.00325,0.0205,-0.0041504996,0.010788,0.0026854998,1742092560.092022
0.2405,0.0045,0.01275,-0.00460825,0.011078,0.00320425,1742092560.106391
0.2365,0.0035,0.01425,-0.0048674997,0.01150525,0.0038299998,1742092560.120553
0.233,-0.002,0.01375,-0.0048979996,0.012313751,0.0042572496,1742092560.136482
0.2295,-0.00775,0.00625,-0.0046845004,0.0123595,0.00408925,1742092560.1493702
0.22925,-0.00625,0.0015,-0.003952,0.011688249,0.0041810004,1742092560.163763
0.22775,0.002,-0.006,-0.0037385002,0.011306751,0.0047607496,1742092560.17806
0.22875,0.008,-0.0075,-0.0034484998,0.010604749,0.0056609996,1742092560.192523
0.23025,0.01575,-0.01025,-0.00320425,0.01020825,0.0054932497,1742092560.206951
0.232,0.01725,-0.01175,-0.002655,0.009323,0.00453175,1742092560.221268
0.23625,0.01775,-0.01325,-0.00239575,0.009094249,0.0039215,1742092560.237011
0.23725,0.01775,-0.014,-0.002243,0.0090637505,0.0033264998,1742092560.249986
0.23825,0.01825,-0.01575,-0.0020905002,0.009277251,0.0023497501,1742092560.264312
0.24075,0.02175,-0.0175,-0.00213625,0.0093385,0.0023039998,1742092560.2786958
0.2425,0.0215,-0.0175,-0.00267025,0.009323,0.00358575,1742092560.292993
0.24675,0.01825,-0.017,-0.0029145,0.0093385,0.004547,1742092560.307338
0.24675,0.02125,-0.0175,-0.00283825,0.009842,0.00543225,1742092560.3217092
0.23925,0.03025,-0.02375,-0.0027160002,0.01013175,0.0049895,1742092560.3367438
0.23725,0.02925,-0.0275,-0.002777,0.01013175,0.0042267498,1742092560.3505468
0.239,0.02575,-0.029,-0.00296025,0.009643501,0.0028687501,1742092560.3650382
0.24275,0.01775,-0.02575,-0.0026854998,0.009597749,0.002121,1742092560.379628
0.2405,0.01525,-0.0235,-0.0019685,0.0100555,0.000534,1742092560.394063
0.234,0.01475,-0.01775,-0.00181575,0.0103455,-0.00016775,1742092560.408596
0.22925,0.0125,-0.0155,-0.00137325,0.010818499,-0.00148,1742092560.423048
0.2065,0.00425,-0.019,-0.00099175,0.0111085,-0.001953,1742092560.439084
0.18925,0.0025,-0.02125,-0.0003815,0.0112915,-0.0023039998,1742092560.4521441
0.1435,0.0005,-0.01475,-0.0002135,0.011031999,-0.00283825,1742092560.4675891
0.1115,-0.00425,-0.00275,-0.00013725001,0.01036075,-0.00384525,1742092560.481206
0.0705,-0.01625,0.02275,-0.0003815,0.00744625,-0.00352475,1742092560.49696
-0.049,-0.055,0.11475,-0.00062550005,0.0059510004,-0.000534,1742092560.510376
-0.13,-0.08,0.14375,-0.00039675,0.00437925,0.01098625,1742092560.5248132
-0.2975,-0.13775,0.05775,0.0011445,0.00390625,0.017883249,1742092560.5391948
-0.3775,-0.1455,-0.0415,0.00444025,-0.004013,0.025695749,1742092560.553714
-0.5365,-0.063,-0.20325,0.0045012496,-0.0162505,0.0263825,1742092560.568267
-0.5555,-0.00175,-0.23225,0.00637825,-0.056701753,0.02082825,1742092560.582916
-0.31375,0.059,-0.07675,0.010757499,-0.08088675,0.009506251,1742092560.597301
-0.01125,0.091,0.12225,0.018814,-0.104721,-0.005066,1742092560.611949
0.7475,-0.0045,0.5035,0.0289155,-0.1185455,-0.04533375,1742092560.6269948
1.0,-0.0675,0.58325,0.025848499,-0.098770246,-0.06404125,1742092560.6408188
1.0,-0.1055,0.569,0.0065917503,-0.04002375,-0.04953,1742092560.6564622
1.0,-0.069,0.337,0.001068,-0.017624,-0.028259251,1742092560.669603
0.96325,-0.01075,0.1975,-0.00105275,0.01062,-0.00785825,1742092560.684221
0.7285,0.112,0.02625,-0.0027312501,0.02015675,-0.00564575,1742092560.698726
0.57225,0.15175,-0.0055,-0.0053252503,0.026672252,-0.00181575,1742092560.71316
0.30525,0.164,-0.043,-0.0054932497,0.02575675,-0.00198375,1742092560.727628
0.2195,0.1415,-0.051,-0.0045165,0.024505502,-0.00317375,1742092560.742135
0.164,0.07825,-0.02675,-0.0016175,0.02098075,-0.0016785001,1742092560.756948
0.1615,0.0475,-0.009,-0.0011445,0.017654499,0.00143425,1742092560.7710772
0.16225,0.0215,0.0065,-0.00119025,0.009597749,0.007782,1742092560.786828
0.1925,-0.0055,0.04525,-0.0013275,0.0065307496,0.009094249,1742092560.799833
0.21125,-0.01075,0.05625,-0.0010375,0.00325,0.00764475,1742092560.8142478
0.24,-0.02325,0.05225,-0.00080875,0.0031889998,0.0062407497,1742092560.8285089
0.2515,-0.03175,0.04525,-0.001236,0.00491325,0.003769,1742092560.842838
0.26925,-0.03675,0.03175,-0.001831,0.0056,0.0034484998,1742092560.857106
0.276,-0.028,0.02875,-0.00225825,0.0056609996,0.00384525,1742092560.871542
0.28375,-0.01525,0.02875,-0.0023497501,0.00466925,0.004776,1742092560.887014
0.29875,0.003,0.0325,-0.0022735,0.0044707498,0.0046539996,1742092560.899895
0.3025,0.0055,0.031,-0.0021515,0.0062255003,0.00367725,1742092560.91422
0.29875,0.008,0.02675,-0.00181575,0.0080567505,0.0030975002,1742092560.9285362
0.29175,0.01325,0.026,-0.00112925,0.010818499,0.001892,1742092560.942851
0.28,0.02475,0.0235,-0.00119025,0.011535751,0.00169375,1742092560.957149
0.27175,0.029,0.01925,-0.0015105,0.01216125,0.001953,1742092560.971404
0.26225,0.032,0.014,-0.0023039998,0.013382,0.00331125,1742092560.986389
0.24825,0.0325,0.00775,-0.0025940002,0.0137635,0.00390625,1742092560.999892
0.2465,0.0325,0.00775,-0.0027160002,0.013839751,0.00408925,1742092561.014334
0.25025,0.0275,0.01075,-0.00254825,0.013793999,0.0030975002,1742092561.028655
0.2505,0.02225,0.0095,-0.00213625,0.0138855,0.001587,1742092561.042909
0.243,0.0155,-0.0005,-0.002121,0.0139465,0.001831,1742092561.057361
0.237,0.01625,-0.00675,-0.0021515,0.013931249,0.002472,1742092561.0716999
0.232,0.0185,-0.01275,-0.00231925,0.013336251,0.003662,1742092561.086796
0.23075,0.0245,-0.018,-0.0023039998,0.0128785,0.0038605002,1742092561.100265
0.2335,0.0275,-0.019,-0.0021515,0.01210025,0.00331125,1742092561.114584
0.234,0.02675,-0.024,-0.002243,0.0119934995,0.00302125,1742092561.129045
0.2335,0.02175,-0.027,-0.0024872501,0.01171875,0.00328075,1742092561.143637
0.2365,0.01575,-0.02975,-0.0023345,0.01145925,0.003418,1742092561.158026
0.23625,0.01925,-0.03225,-0.002121,0.01115425,0.00340275,1742092561.17251
0.2355,0.024,-0.03525,-0.00204475,0.01062,0.00328075,1742092561.186849
0.23025,0.02725,-0.04075,-0.001953,0.010376001,0.00305175,1742092561.201154
0.2285,0.02475,-0.04175,-0.00146475,0.009582501,0.002411,1742092561.215638
0.22975,0.0195,-0.04025,-0.00125125,0.00918575,0.00216675,1742092561.2299142
0.2305,0.01875,-0.03975,-0.00090025004,0.00891125,0.0020752498,1742092561.244225
0.23,0.02225,-0.04425,-0.00090025004,0.008926501,0.002365,1742092561.258524
0.23,0.027,-0.0465,-0.00109875,0.00897225,0.00289925,1742092561.273055
0.2295,0.03125,-0.04825,-0.0013885,0.009140001,0.0034637498,1742092561.2874072
0.2275,0.03175,-0.05275,-0.00137325,0.00918575,0.00328075,1742092561.3017359
0.22825,0.031,-0.05425,-0.00148,0.009277251,0.00279225,1742092561.31825
0.231,0.03675,-0.0525,-0.00160225,0.00930775,0.002472,1742092561.330443
0.232,0.03925,-0.05125,-0.00254825,0.009292499,0.0024872501,1742092561.344844
0.23575,0.03275,-0.05125,-0.0032655,0.0093995,0.003006,1742092561.359136
0.23775,0.0265,-0.05125,-0.0036315,0.0095672505,0.00320425,1742092561.373558
0.2385,0.022,-0.05075,-0.00267025,0.009811499,0.0015105,1742092561.388042
0.237,0.022,-0.0525,-0.00204475,0.009872501,0.00035100002,1742092561.402454
0.2335,0.02225,-0.05525,-0.00160225,0.0102235,-0.0009155,1742092561.417238
0.22575,0.022,-0.06125,-0.00184625,0.0102235,-0.00077825,1742092561.4312289
0.224,0.019,-0.0635,-0.0023345,0.01020825,0.00062550005,1742092561.446819
0.22,0.0155,-0.06675,-0.00190725,0.010376001,0.00045775,1742092561.459937
0.216,0.019,-0.07025,-0.0002135,0.01048275,-0.001175,1742092561.474325
0.2085,0.023,-0.0795,0.0005035,0.010314999,-0.001953,1742092561.488723
0.204,0.021,-0.08225,0.00086975005,0.0102235,-0.00267025,1742092561.5030348
0.19775,0.01675,-0.08175,0.00108325,0.009933501,-0.0046845004,1742092561.517893
0.1795,0.00925,-0.07425,0.0013580001,0.0090485,-0.00541675,1742092561.531688
0.17625,0.00725,-0.072,0.0026092501,0.0062255003,-0.0039215,1742092561.546793
0.17,0.00875,-0.06775,0.00340275,0.0054475004,-0.0027465,1742092561.560338
0.16075,0.01175,-0.06425,0.0041504996,0.0048217503,-0.00204475,1742092561.5747058
0.13125,0.0125,-0.05425,0.004486,0.0043335,-0.00231925,1742092561.5890439
0.10475,0.01225,-0.046,0.0050965,0.00358575,-0.0029449998,1742092561.603322
0.0725,0.0115,-0.03975,0.006012,0.0005035,-0.0023497501,1742092561.6179352
0.0025,0.0165,-0.0355,0.0056609996,-0.0020752498,-0.0004425,1742092561.6321301
-0.04775,0.0195,-0.04025,0.005249,-0.00830075,0.0029755002,1742092561.64685
-0.17525,-0.012,-0.053,0.00567625,-0.0128785,0.0034790002,1742092561.661216
-0.24975,-0.033,-0.061,0.0080567505,-0.0264435,0.00105275,1742092561.676607
-0.40875,-0.04975,-0.10225,0.009262,-0.03508,0.00061025,1742092561.690418
-0.4545,-0.0425,-0.1035,0.009796251,-0.05947875,0.0055847503,1742092561.7064672
-0.363,-0.029,-0.029,0.01013175,-0.074478246,0.00631725,1742092561.719407
-0.2295,-0.01425,0.05025,0.01272575,-0.089218244,0.00289925,1742092561.733828
-0.02825,-0.0185,0.17225,0.01911925,-0.110794,-0.008514499,1742092561.748333
0.52825,-0.04975,0.46425,0.0188445,-0.108657755,-0.01608275,1742092561.762788
0.80125,-0.0475,0.54775,0.01608275,-0.080093496,-0.02336125,1742092561.777214
1.0,-0.02075,0.51825,0.01481625,-0.06150825,-0.024993999,1742092561.791706
1.0,0.0355,0.426,0.01248175,-0.02958675,-0.02412425,1742092561.8060071
0.92075,0.116,0.19575,0.009521499,-0.0148315,-0.018402,1742092561.820286
0.79775,0.148,0.111,0.0060272496,-0.001419,-0.011795,1742092561.834728
0.536,0.183,0.03375,0.000763,0.0135955,-0.0056304997,1742092561.848869
0.43275,0.16775,0.018,-0.00048825,0.015442001,-0.00712575,1742092561.863202
0.3515,0.13425,0.01175,-0.00163275,0.015594499,-0.00912475,1742092561.877718
0.2575,0.0585,0.03825,-0.00187675,0.0162505,-0.0070495,1742092561.8920152
0.23275,0.02925,0.05675,-0.00254825,0.0157165,-0.00080875,1742092561.906993
0.19625,-0.01525,0.07325,-0.0024414998,0.01452625,0.0019989999,1742092561.920735
0.1855,-0.0305,0.0745,-0.0013275,0.012207,0.00637825,1742092561.937215
0.18925,-0.044,0.07,-0.00086975005,0.010589501,0.00767525,1742092561.949604
0.204,-0.0395,0.06875,-0.0004425,0.00912475,0.0076142503,1742092561.964035
0.22025,-0.0315,0.0665,0.0002135,0.0070647504,0.0055695,1742092561.9783318
0.24,-0.02275,0.05825,0.000412,0.00668325,0.0049285004,1742092561.992637
0.24425,-0.019,0.0545,0.00080875,0.006546,0.003418,1742092562.00695
0.2465,-0.01225,0.05075,0.00064075,0.00694275,0.0027465,1742092562.021237
0.24675,-0.01275,0.0505,-0.00027475,0.008285499,0.0028687501,1742092562.0368419
0.24825,-0.0075,0.0465,-0.00051875,0.008788999,0.0031889998,1742092562.050037
0.2465,0.00075,0.04075,-0.00059500005,0.0090485,0.0032655,1742092562.064308
0.24575,0.01175,0.0345,-0.0012055,0.009002751,0.0034942501,1742092562.078683
0.2485,0.033,0.02725,-0.001831,0.008865249,0.00393675,1742092562.093041
0.25075,0.04175,0.02575,-0.0030975002,0.008636501,0.00399775,1742092562.107332
0.25375,0.0475,0.02525,-0.00352475,0.008667,0.0036010002,1742092562.121621
0.25525,0.04475,0.02675,-0.0035704998,0.009140001,0.0021057501,1742092562.1363368
0.257,0.03075,0.02975,-0.00334175,0.0093385,0.001114,1742092562.150329
0.255,0.02325,0.029,-0.00314325,0.009384249,-4.575e-05,1742092562.1646981
0.25375,0.0145,0.02675,-0.0034790002,0.009201,-0.00148,1742092562.179085
0.25225,0.00675,0.01925,-0.0037995,0.0091705,-0.00096125,1742092562.1934001
0.2505,0.00975,0.014,-0.00408925,0.00924675,0.000473,1742092562.2076259
0.251,0.011,0.00825,-0.0038299998,0.0091705,0.00035100002,1742092562.221879
0.25275,0.00675,0.006,-0.00283825,0.00845325,-0.0013580001,1742092562.236442
0.259,0.0005,0.00225,-0.0023497501,0.00788875,-0.0019989999,1742092562.2505941
0.26275,0.002,0.0025,-0.001953,0.00738525,-0.00216675,1742092562.265221
0.266,0.004,0.005,-0.0021515,0.0072785,-0.0011445,1742092562.279565
0.2655,0.00475,0.00625,-0.002533,0.00794975,0.000122000005,1742092562.2937868
0.262,0.004,0.004,-0.0028074998,0.0100555,0.002884,1742092562.308018
0.25225,0.00425,-0.00425,-0.0024414998,0.01098625,0.0036315,1742092562.322413
0.24625,0.009,-0.0095,-0.00146475,0.0112915,0.00384525,1742092562.336734
0.244,0.02425,-0.0155,-0.0012817499,0.010742251,0.00355525,1742092562.3511071
0.24675,0.0285,-0.0155,-0.00115975,0.010101249,0.0029755002,1742092562.3655329
0.25025,0.02975,-0.01525,-0.00086975005,0.009262,0.0013427499,1742092562.379893
0.25625,0.03,-0.01575,-0.0009765,0.009155249,0.000824,1742092562.3942132
0.259,0.02725,-0.01525,-0.001419,0.00941475,0.00080875,1742092562.408766
0.261,0.02175,-0.01625,-0.00143425,0.009613,0.00096125,1742092562.423123
0.26125,0.02025,-0.0155,-0.00099175,0.0099639995,0.00067150005,1742092562.4374359
0.2605,0.01575,-0.01275,-0.0005645,0.0101165,0.0,1742092562.451715
0.25575,0.014,-0.015,-0.0001525,0.010314999,-0.001007,1742092562.4675121
0.2465,0.00575,-0.02475,-0.000122000005,0.010391249,-0.00187675,1742092562.4805288
0.243,0.005,-0.02875,-0.0004425,0.01019275,-0.00131225,1742092562.494926
0.241,0.0075,-0.03025,-0.000946,0.009430001,6.1000002e-05,1742092562.5093062
0.23825,0.011,-0.0305,-0.00077825,0.009079001,-6.1000002e-05,1742092562.5238001
0.23625,0.00675,-0.02925,0.00027475,0.0086975,-0.0018005001,1742092562.538146
0.2275,-0.00675,-0.02325,0.00070200005,0.008651749,-0.0025025,1742092562.5526881
0.2235,-0.00925,-0.01975,0.000763,0.00889575,-0.0031127501,1742092562.567751
0.215,-0.00375,-0.01575,0.00090025004,0.009323,-0.0026092501,1742092562.58178
0.20575,-0.00175,-0.018,0.00093075,0.009781,-0.00181575,1742092562.5967722
0.1925,-0.0015,-0.02275,0.00033575002,0.009842,-0.00119025,1742092562.6107368
0.156,-0.0085,-0.02675,0.00033575002,0.009201,-0.00149525,1742092562.625202
0.13125,-0.0175,-0.021,0.00108325,0.0061339997,-0.0030669998,1742092562.639901
0.0755,-0.07025,-0.0005,0.0024414998,0.0042572496,-0.004303,1742092562.654315
0.0435,-0.094,0.00175,0.0073547503,-0.000183,-0.00741575,1742092562.668797
-0.02175,-0.07525,-0.00775,0.009277251,-0.00343325,-0.0069274995,1742092562.683415
-0.057,-0.03775,-0.018,0.008484,-0.009811499,0.00109875,1742092562.697929
-0.14575,0.0295,-0.03675,0.006363,-0.011550999,0.0047150003,1742092562.7123342
-0.205,0.03025,-0.05075,0.00538625,-0.013549751,0.0054780003,1742092562.727007
-0.32025,-0.01425,-0.09325,0.008941749,-0.0237885,0.00242625,1742092562.741608
-0.367,-0.013,-0.11625,0.010894749,-0.03120425,0.0021057501,1742092562.756599
-0.39525,-0.0035,-0.11925,0.009597749,-0.05075075,0.005249,1742092562.770926
-0.28275,0.001,-0.0105,0.008255,-0.064361505,0.0061339997,1742092562.786367
-0.096,0.00525,0.097,0.0114135,-0.09249875,0.0071105,1742092562.7997131
0.428,0.0135,0.35775,0.012130749,-0.0956725,0.0028535,1742092562.8140328
0.68675,0.02375,0.4675,0.011734,-0.07000725,-0.015152001,1742092562.828407
0.99675,-0.02,0.527,0.011123749,-0.05119325,-0.02211,1742092562.8427908
1.0,-0.047,0.48825,0.0104674995,-0.022705,-0.02076725,1742092562.8572102
0.955,-0.01175,0.3095,0.009643501,-0.01289375,-0.01260375,1742092562.8717089
0.8605,0.029,0.2135,0.0073242504,0.00013725001,-0.003952,1742092562.886432
0.7235,0.0765,0.13025,0.00358575,0.021988,-0.00030525,1742092562.9003289
0.43175,0.12825,0.00425,0.00245675,0.023940999,-0.0016632499,1742092562.914603
0.327,0.126,-0.0245,0.0003205,0.023407,-0.0019225,1742092562.929007
0.21975,0.09675,-0.0215,-0.0011445,0.022369498,-0.00187675,1742092562.9434922
0.19725,0.08025,-0.00725,-0.0026092501,0.016693002,-0.00354,1742092562.957868
0.167,0.0425,0.016,-0.0019989999,0.012542751,-0.003662,1742092562.97222
0.16475,0.02475,0.02925,-0.00131225,0.008361749,-0.0022125002,1742092562.986711
0.1735,0.0135,0.04775,-0.0015105,0.0028229998,0.0021515,1742092563.001035
0.205,-0.00025,0.083,-0.001831,0.00154125,0.0036315,1742092563.015402
0.2255,-0.012,0.092,-0.00201425,0.00276175,0.00369275,1742092563.0297
0.2375,-0.02925,0.07825,-0.00201425,0.0039215,0.0030975002,1742092563.04415
0.23975,-0.0285,0.06825,-0.001953,0.0041044997,0.0027312501,1742092563.058621
0.25525,-0.012,0.062,-0.001892,0.0036162501,0.00213625,1742092563.0730062
0.26,-0.0045,0.06,-0.0019685,0.00331125,0.0012970001,1742092563.0874
0.262,-0.0,0.05725,-0.0027312501,0.003891,0.000473,1742092563.101716
0.256,0.00275,0.04475,-0.0031889998,0.00463875,0.0003205,1742092563.115865
0.25,0.00325,0.0375,-0.0036010002,0.0053252503,-0.00010675,1742092563.130178
0.25,0.00275,0.03575,-0.00343325,0.0050965,-0.00048825,1742092563.1445382
0.2535,-0.0005,0.0375,-0.0025634998,0.0042115003,-0.001007,1742092563.158985
0.263,-0.00675,0.04625,-0.0020905002,0.00393675,-0.0009155,1742092563.173391
0.26975,-0.00425,0.05075,-0.0016785001,0.004013,-0.0008545,1742092563.187798
0.27175,0.006,0.051,-0.00137325,0.0051880004,-0.000946,1742092563.202118
0.27025,0.01,0.04875,-0.00184625,0.00585925,-0.00059500005,1742092563.2175648
0.26825,0.012,0.04575,-0.003296,0.00738525,0.00102225,1742092563.230606
0.257,0.01,0.035,-0.00340275,0.008072,0.00154125,1742092563.245079
0.25225,0.0065,0.0285,-0.00251775,0.008072,0.001007,1742092563.259321
0.25375,0.00625,0.0245,-0.001953,0.007599,0.000183,1742092563.273591
0.25775,0.00825,0.02775,-0.00163275,0.007187,-0.00070200005,1742092563.2881322
0.26175,0.0095,0.033,-0.0021057501,0.00712575,-0.000946,1742092563.30252
0.259,0.00775,0.032,-0.00251775,0.00764475,-0.00013725001,1742092563.317682
0.2545,0.00525,0.02925,-0.0029145,0.008941749,0.0017242499,1742092563.331226
0.2495,0.00375,0.0235,-0.002777,0.009201,0.0022125002,1742092563.346781
0.249,0.004,0.02075,-0.0018615,0.008712751,0.00146475,1742092563.359819
0.24775,0.00725,0.01325,-0.00163275,0.0081635,0.000885,1742092563.374104
0.25025,0.00775,0.0125,-0.001953,0.00747675,0.00112925,1742092563.3883939
0.25325,0.01175,0.01475,-0.0020905002,0.0075682504,0.00149525,1742092563.402621
0.25375,0.013,0.0145,-0.0021972498,0.00788875,0.00175475,1742092563.418025
0.25325,0.01125,0.01275,-0.00193775,0.00891125,0.001648,1742092563.431285
0.2495,0.00725,0.00575,-0.00163275,0.009201,0.0012665,1742092563.446754
0.25,0.00675,0.0035,-0.0013275,0.00903325,0.000824,1742092563.459871
0.2535,0.009,0.00325,-0.00148,0.00880425,0.00090025004,1742092563.474113
0.254,0.008,0.00325,-0.00184625,0.0086975,0.00112925,1742092563.488383
0.254,0.00375,0.0025,-0.0023345,0.009094249,0.0021057501,1742092563.50262
0.25125,-0.0035,-0.001,-0.0022735,0.0094604995,0.00245675,1742092563.517494
0.2495,-0.003,-0.0025,-0.0019225,0.010147001,0.0024414998,1742092563.5316072
0.24925,-0.0025,-0.00625,-0.00143425,0.010238751,0.002472,1742092563.546755
0.25225,-0.00125,-0.008,-0.00048825,0.009597749,0.0024414998,1742092563.560926
0.25925,0.00525,-0.01325,-0.00033575002,0.00947575,0.002411,1742092563.576216
0.26125,0.00525,-0.016,-0.00105275,0.010009751,0.00325,1742092563.589601
0.26125,-0.002,-0.0175,-0.00148,0.0106355,0.0040435,1742092563.60414
0.2585,-0.00425,-0.01775,-0.001709,0.01133725,0.00469975,1742092563.6186292
0.25575,-0.004,-0.01675,-0.001587,0.01248175,0.0051269997,1742092563.6330152
0.2525,0.0015,-0.01325,-0.0013427499,0.0129700005,0.004776,1742092563.647391
0.248,0.008,-0.015,-0.0012970001,0.0139770005,0.0038299998,1742092563.661798
0.23375,0.00675,-0.02425,-0.0018615,0.01445,0.00411975,1742092563.6765099
0.22925,-0.00275,-0.025,-0.0029449998,0.015457249,0.00637825,1742092563.6905642
0.2245,-0.00625,-0.01925,-0.00283825,0.016143749,0.0070342496,1742092563.705122
0.22225,-0.00125,-0.01475,-0.001175,0.018463248,0.00352475,1742092563.719572
0.20175,-0.00125,-0.01225,0.0002595,0.019165002,1.5250001e-05,1742092563.733996
0.1805,-0.0075,-0.0155,0.001526,0.019195499,-0.00314325,1742092563.748509
0.1535,-0.0175,-0.01625,0.002533,0.01826475,-0.0048979996,1742092563.763008
0.0675,-0.03225,-0.00125,0.00251775,0.017730748,-0.0030365,1742092563.777544
0.00075,-0.03025,0.00525,0.001419,0.0157165,0.0046845004,1742092563.791771
-0.198,-0.0225,-0.00975,0.001831,0.013351499,0.007782,1742092563.8069172
-0.30675,-0.043,-0.0635,0.0103455,-0.0012055,0.008941749,1742092563.8208
-0.49125,-0.10975,-0.16525,0.013198749,-0.01425175,0.009369001,1742092563.8366878
-0.549,-0.12525,-0.15925,0.012329,-0.0484315,0.010666001,1742092563.849798
-0.492,-0.104,-0.04475,0.012741,-0.067214996,0.008926501,1742092563.86428
-0.35175,-0.045,0.0405,0.01490775,-0.083969004,0.0045165,1742092563.878887
-0.1505,0.01425,0.14,0.0201875,-0.10894775,-0.00146475,1742092563.893284
0.38675,0.04975,0.39025,0.01829525,-0.10787975,-0.008407501,1742092563.907686
0.6505,0.07125,0.4845,0.01519775,-0.084930494,-0.026535,1742092563.922186
1.0,0.0565,0.569,0.013382,-0.06988525,-0.0312195,1742092563.936759
1.0,0.0585,0.53375,0.0089875,-0.036789,-0.024947999,1742092563.951027
0.98075,0.07275,0.33025,0.005783,-0.012847999,-0.019470248,1742092563.967288
0.8845,0.10275,0.20875,0.00317375,0.00665275,-0.01708975,1742092563.9796
0.5635,0.151,0.036,-0.00051875,0.02256775,-0.016922,1742092563.994239
0.428,0.1415,-0.00175,-0.0027160002,0.024841249,-0.015457249,1742092564.0087621
0.32825,0.116,-0.01725,-0.0048979996,0.02398675,-0.0115967505,1742092564.0232809
0.216,0.049,-0.00275,-0.00453175,0.021789499,-0.0093385,1742092564.037765
0.19325,0.0205,0.019,-0.0036162501,0.01808175,-0.0027160002,1742092564.052174
0.17675,-0.01375,0.05025,-0.00314325,0.016037,0.00068675,1742092564.066619
0.16925,-0.0255,0.0505,-0.0023039998,0.0115205,0.005005,1742092564.080958
0.171,-0.02275,0.04475,-0.00198375,0.009140001,0.006302,1742092564.0952508
0.1845,-0.01475,0.04725,-0.0015565,0.0068665,0.0069885002,1742092564.10977
0.2025,-0.008,0.05275,-0.00051875,0.003952,0.0051574996,1742092564.124075
0.23825,-0.01025,0.061,-0.000183,0.00343325,0.0033875,1742092564.1384692
0.24725,-0.0185,0.06,0.000229,0.0042115003,0.0012970001,1742092564.1528268
0.25025,-0.02925,0.05225,7.625e-05,0.0052185003,0.0012817499,1742092564.1672661
0.2505,-0.028,0.0485,-0.0007935,0.00617975,0.0023039998,1742092564.1814778
0.255,-0.01525,0.04125,-0.00102225,0.0063477503,0.0024872501,1742092564.196782
0.2555,-0.006,0.03725,-0.00108325,0.0063477503,0.0016785001,1742092564.210197
0.25875,0.00725,0.03625,-0.00125125,0.0063325,0.0011445,1742092564.2244859
0.25775,0.00775,0.03675,-0.0014495,0.0063934997,0.0005035,1742092564.2387788
0.25625,0.0025,0.0375,-0.0013580001,0.006836,-0.0005035,1742092564.253091
0.25125,-0.01025,0.03675,-0.00108325,0.0072175004,-0.00039675,1742092564.268258
0.249,-0.0105,0.0355,-0.00093075,0.0075072497,0.0012970001,1742092564.28186
0.2535,0.0005,0.03525,-0.0011445,0.0075682504,0.00242625,1742092564.2969558
0.254,0.00775,0.033,-0.00148,0.0084379995,0.00390625,1742092564.310376
0.2465,0.01775,0.027,-0.001587,0.0089875,0.0038299998,1742092564.324667
0.24775,0.0185,0.02675,-0.00163275,0.009552,0.0032195,1742092564.338987
0.2515,0.0175,0.02625,-0.00154125,0.0104674995,0.00068675,1742092564.3532002
0.25025,0.00975,0.01675,-0.0013885,0.01077275,-0.0004425,1742092564.36754
0.244,0.00475,0.01025,-0.00125125,0.01071175,-0.000534,1742092564.38185
0.232,0.001,-0.00175,-0.0015565,0.0103455,0.00059500005,1742092564.396898
0.2295,0.004,-0.006,-0.002121,0.0097045,0.00193775,1742092564.410582
0.22975,0.011,-0.009,-0.003418,0.0081635,0.00378425,1742092564.42609
0.231,0.01175,-0.0075,-0.0037079998,0.0075225,0.004074,1742092564.439488
0.233,0.01025,-0.0055,-0.00325,0.006607,0.00296025,1742092564.4540071
0.24175,0.006,-0.0025,-0.00276175,0.0062712496,0.0019685,1742092564.468377
0.24625,0.00525,-0.002,-0.00198375,0.00611875,0.00039675,1742092564.482711
0.24725,0.0015,-0.003,-0.001892,0.0063477503,0.000122000005,1742092564.497089
0.24575,-0.00025,-0.00375,-0.00198375,0.0065155,0.00030525,1742092564.51162
0.24425,0.00075,-0.0085,-0.00201425,0.0062865,0.00048825,1742092564.526788
0.24475,0.002,-0.0105,-0.001892,0.0059815003,0.00070200005,1742092564.5403981
0.2465,0.00325,-0.0115,-0.0015105,0.00555425,0.00099175,1742092564.555017
0.25275,0.00275,-0.0115,-0.00137325,0.00561525,0.001114,1742092564.569519
0.255,0.00225,-0.01075,-0.0013580001,0.0062255003,0.001831,1742092564.583858
0.25725,0.002,-0.0085,-0.00137325,0.0065307496,0.00225825,1742092564.598186
0.257,0.0035,-0.0095,-0.0010375,0.00688175,0.00213625,1742092564.6125581
0.25375,0.012,-0.0165,-0.00099175,0.0067445002,0.00193775,1742092564.6270301
0.253,0.0155,-0.019,-0.00119025,0.00614925,0.0020905002,1742092564.641412
0.2525,0.02025,-0.02275,-0.00143425,0.00587475,0.0020905002,1742092564.656178
0.25375,0.019,-0.0245,-0.00163275,0.00567625,0.0018615,1742092564.67041
0.2535,0.01625,-0.0255,-0.0012817499,0.0060425,0.00070200005,1742092564.684917
0.2495,0.012,-0.026,-0.00083925005,0.006302,0.00010675,1742092564.6992068
0.2495,0.00925,-0.02425,6.1000002e-05,0.0061950004,-0.00071725,1742092564.713695
0.254,0.00625,-0.02025,0.0001525,0.006073,-0.0008545,1742092564.728132
0.25525,0.0055,-0.0185,-0.00059500005,0.0065155,0.000229,1742092564.742584
0.252,-0.00075,-0.0175,-0.00112925,0.0070495,0.001236,1742092564.757128
0.24675,-0.003,-0.01975,-0.0014037499,0.0076295,0.0021057501,1742092564.771646
0.2365,-0.0015,-0.02575,-0.000412,0.008545,0.00204475,1742092564.786248
0.233,0.00275,-0.02725,0.00045775,0.00874325,0.00137325,1742092564.800396
0.23,0.00925,-0.0285,0.0012665,0.008606,-0.00071725,1742092564.814786
0.228,0.00825,-0.0265,0.001236,0.008285499,-0.0019989999,1742092564.8291972
0.227,-0.0015,-0.025,0.00187675,0.00811775,-0.00364675,1742092564.843689
0.20875,-0.01275,-0.02625,0.0023345,0.008346501,-0.00369275,1742092564.8580952
0.19575,-0.011,-0.026,0.00340275,0.00791925,-0.00434875,1742092564.872573
0.154,-0.0035,-0.01775,0.00416575,0.00691225,-0.00593575,1742092564.887037
0.12325,-0.00825,-0.01075,0.00494375,0.0055695,-0.00788875,1742092564.9015
0.083,-0.01875,-0.0015,0.0062407497,0.00305175,-0.0102235,1742092564.917778
-0.029,-0.036,0.022,0.0065155,0.00105275,-0.010162249,1742092564.930589
-0.099,-0.03825,0.0205,0.0071105,-0.0049590003,-0.005783,1742092564.9451451
-0.258,-0.061,-0.0455,0.0070037497,-0.00801075,-0.00065625,1742092564.959751
-0.3375,-0.08025,-0.094,0.0065002497,-0.018432502,0.0104065,1742092564.974253
-0.44675,-0.101,-0.15175,0.009323,-0.028885,0.012039251,1742092564.9888
-0.44475,-0.098,-0.13,0.01921075,-0.06245425,0.0048065,1742092565.003274
-0.20425,-0.01875,0.02225,0.020584,-0.08200075,0.0047912505,1742092565.0178938
0.01725,0.03675,0.13925,0.01814275,-0.096344,0.0088195,1742092565.0320158
0.51075,0.081,0.36225,0.013000499,-0.092636004,-0.00108325,1742092565.046973
0.7465,0.04175,0.44975,0.013702501,-0.0835265,-0.01260375,1742092565.060777
0.93775,0.01925,0.51025,0.012909001,-0.0635375,-0.02079775,1742092565.0761878
1.0,0.023,0.49325,0.01042175,-0.048095748,-0.015274,1742092565.089391
1.0,0.04675,0.424,0.00596625,-0.0074615004,-0.012802,1742092565.1038039
0.81625,0.10825,0.204,0.00428775,0.00555425,-0.013549751,1742092565.1180348
0.672,0.1365,0.1265,-0.00086975005,0.020218,-0.009734999,1742092565.132361
0.403,0.146,0.043,-0.003418,0.022171,-0.0075377496,1742092565.147008
0.30575,0.12575,0.0315,-0.0052185003,0.023376498,-0.0069885002,1742092565.161397
0.238,0.0945,0.0365,-0.00697325,0.023407,-0.0058135,1742092565.176419
0.167,0.01375,0.053,-0.00688175,0.02142325,-0.0036010002,1742092565.190311
0.15825,-0.02075,0.05725,-0.0057220003,0.0160065,0.0017242499,1742092565.204624
0.1795,-0.046,0.07225,-0.00531,0.0135955,0.0039825,1742092565.219006
0.19575,-0.05025,0.0795,-0.00413525,0.01004025,0.0057372497,1742092565.233519
0.215,-0.065,0.0785,-0.00334175,0.008651749,0.00570675,1742092565.247853
0.22,-0.069,0.07175,-0.0025787498,0.00770575,0.00538625,1742092565.262208
0.222,-0.0655,0.06325,-0.0015105,0.00773625,0.00408925,1742092565.27668
0.233,-0.042,0.0525,-0.001419,0.00791925,0.0038757501,1742092565.29098
0.24125,-0.0295,0.052,-0.001068,0.008026,0.00317375,1742092565.306452
0.24625,-0.01125,0.0475,-0.000946,0.008224499,0.00254825,1742092565.3200378
0.246,-0.0065,0.046,-0.0012055,0.0091095,0.00201425,1742092565.33441
0.241,-0.00175,0.0415,-0.0013885,0.009506251,0.0017242499,1742092565.34889
0.23525,-0.00025,0.0375,-0.002121,0.0103455,0.00198375,1742092565.3631942
0.22275,0.00125,0.03275,-0.00242625,0.0105742505,0.0023039998,1742092565.377526
0.218,0.0015,0.03025,-0.0025634998,0.01042175,0.00238025,1742092565.391905
0.21525,-0.00025,0.028,-0.00216675,0.009506251,0.0024414998,1742092565.406805
0.22125,-0.00475,0.02675,-0.001648,0.008941749,0.0024872501,1742092565.420598
0.226,-0.00325,0.0255,-0.001114,0.007965,0.00251775,1742092565.434989
0.2375,0.00325,0.02225,-0.0014037499,0.0076905,0.002884,1742092565.449315
0.24275,0.00575,0.02125,-0.0022277501,0.0074920002,0.003418,1742092565.463597
0.2495,0.00925,0.02225,-0.0024414998,0.0074920002,0.0032195,1742092565.477958
0.2505,0.01,0.023,-0.0025787498,0.0075835,0.0028229998,1742092565.4921641
0.24925,0.009,0.0235,-0.00254825,0.007904,0.00169375,1742092565.5069199
0.24575,0.005,0.02375,-0.00238025,0.00788875,0.00108325,1742092565.5209532
0.245,0.00375,0.02175,-0.002365,0.0077972496,0.00070200005,1742092565.536406
0.24625,-0.0035,0.016,-0.0025025,0.00785825,0.00093075,1742092565.549597
0.246,-0.00775,0.01525,-0.002121,0.008133001,0.00102225,1742092565.5640361
0.23875,-0.00775,0.01175,-0.001709,0.008133001,0.00086975005,1742092565.578412
0.23625,-0.00475,0.009,-0.0014037499,0.008026,0.00086975005,1742092565.592947
0.23525,-0.00125,0.00525,-0.0008545,0.0076905,0.000885,1742092565.607295
0.23225,0.00925,-0.00175,-0.00070200005,0.0072937496,0.00086975005,1742092565.621699
0.234,0.0135,-0.00275,-0.0009155,0.0062255003,0.00131225,1742092565.636758
0.243,0.0115,-0.00025,-0.00096125,0.0060272496,0.0014037499,1742092565.650393
0.2435,0.008,0.00075,-0.00059500005,0.006256,0.00112925,1742092565.664779
0.241,0.00175,0.00275,-0.00027475,0.006363,0.001007,1742092565.679102
0.2395,0.00275,0.00275,4.575e-05,0.0063477503,0.0008545,1742092565.693294
0.23775,0.00475,0.001,0.00010675,0.0060272496,0.00077825,1742092565.707575
0.2355,0.008,-0.00525,4.575e-05,0.00587475,0.000824,1742092565.7220259
0.2365,0.011,-0.0075,-7.625e-05,0.0054475004,0.00065625,1742092565.7365031
0.2425,0.011,-0.00875,-0.00016775,0.0051574996,0.000412,1742092565.750886
0.24325,0.0075,-0.0085,-6.1000002e-05,0.005005,-0.0001525,1742092565.765257
0.242,0.00025,-0.006,0.0001525,0.0050965,-0.00033575002,1742092565.779606
0.24225,0.00025,-0.004,0.00071725,0.0055695,-0.00070200005,1742092565.7940118
0.241,0.003,-0.00525,0.000763,0.00567625,-0.00067150005,1742092565.8083599
0.24125,0.0055,-0.00725,0.00054925,0.00567625,-0.000229,1742092565.822894
0.24225,0.0095,-0.0095,-3.0500001e-05,0.0059205,0.0005645,1742092565.837211
0.23925,0.011,-0.0155,-6.1000002e-05,0.0059815003,0.00036625,1742092565.8515892
0.23525,0.0075,-0.018,0.000229,0.0058287503,-0.00027475,1742092565.8677309
0.2315,0.004,-0.02025,0.0005035,0.00555425,-0.0005645,1742092565.880415
0.23025,0.00475,-0.022,0.00108325,0.0049285004,-0.0013427499,1742092565.894798
0.2285,0.0025,-0.02475,0.0012055,0.004593,-0.00148,1742092565.909276
0.227,0.00175,-0.02675,0.0012817499,0.004242,-0.0014495,1742092565.9238138
0.2255,0.00225,-0.0285,0.0015105,0.0031585,-0.0013580001,1742092565.9382021
0.228,0.003,-0.02675,0.001709,0.002655,-0.0013580001,1742092565.952576
0.2305,0.00325,-0.02525,0.00225825,0.0025025,-0.0014495,1742092565.9672801
0.2295,0.0055,-0.02725,0.0025025,0.0026092501,-0.00163275,1742092565.981397
0.22825,0.0075,-0.029,0.002472,0.00254825,-0.00181575,1742092565.996746
0.22675,0.009,-0.0305,0.0021515,0.0023497501,-0.001709,1742092566.010178
0.22575,0.00925,-0.031,0.00105275,0.00169375,-0.00096125,1742092566.0245771
0.22675,0.013,-0.031,0.00062550005,0.0012817499,-0.00045775,1742092566.03899
0.2275,0.01275,-0.03075,0.00048825,0.0009765,-0.00016775,1742092566.0533462
