acc_x,acc_y,acc_z,gyro_x,gyro_y,gyro_z,timestamp
0.00925,0.00475,0.25,6.1000002e-05,0.0,-6.1000002e-05,1742092537.504221
0.00925,0.00475,0.25325,-6.1000002e-05,-1.5250001e-05,-4.575e-05,1742092537.517573
0.0095,0.005,0.25475,7.625e-05,4.575e-05,-4.575e-05,1742092537.531792
0.00925,0.00325,0.249,0.00024425,7.625e-05,-7.625e-05,1742092537.546463
0.00925,0.004,0.24925,-6.1000002e-05,0.0,-7.625e-05,1742092537.560488
0.00925,0.004,0.25275,-4.575e-05,1.5250001e-05,-6.1000002e-05,1742092537.57586
0.009,0.0045,0.255,-9.15e-05,1.5250001e-05,-4.575e-05,1742092537.589178
0.00925,0.005,0.251,7.625e-05,4.575e-05,-6.1000002e-05,1742092537.60353
0.009,0.0045,0.24775,0.00019825,6.1000002e-05,-7.625e-05,1742092537.617901
0.00925,0.0045,0.24825,-6.1000002e-05,-1.5250001e-05,-6.1000002e-05,1742092537.632389
0.0095,0.0045,0.25325,-0.00010675,-1.5250001e-05,-4.575e-05,1742092537.6468081
0.00975,0.004,0.25325,6.1000002e-05,6.1000002e-05,-6.1000002e-05,1742092537.6609778
0.01025,0.0035,0.251,6.1000002e-05,6.1000002e-05,-7.625e-05,1742092537.675931
0.01,0.00375,0.25125,-3.0500001e-05,0.0,-6.1000002e-05,1742092537.689564
0.00925,0.004,0.25125,-3.0500001e-05,0.0,-4.575e-05,1742092537.7039008
0.009,0.00425,0.25075,0.0,-1.5250001e-05,-6.1000002e-05,1742092537.7183099
0.00875,0.0045,0.251,1.5250001e-05,-1.5250001e-05,-6.1000002e-05,1742092537.7326221
0.009,0.0045,0.2515,0.0,0.0,-6.1000002e-05,1742092537.746794
0.009,0.0045,0.2515,1.5250001e-05,1.5250001e-05,-6.1000002e-05,1742092537.760962
0.0095,0.0045,0.25175,1.5250001e-05,3.0500001e-05,-7.625e-05,1742092537.775198
0.0095,0.0045,0.2515,1.5250001e-05,4.575e-05,-7.625e-05,1742092537.789508
0.009,0.0045,0.25125,1.5250001e-05,3.0500001e-05,-6.1000002e-05,1742092537.8038101
0.009,0.00425,0.25125,1.5250001e-05,1.5250001e-05,-6.1000002e-05,1742092537.817991
0.00925,0.00425,0.2515,0.0,3.0500001e-05,-6.1000002e-05,1742092537.8323252
0.0095,0.004,0.2515,1.5250001e-05,3.0500001e-05,-6.1000002e-05,1742092537.846557
0.0095,0.00375,0.25175,3.0500001e-05,1.5250001e-05,-6.1000002e-05,1742092537.860773
0.00925,0.004,0.2515,1.5250001e-05,1.5250001e-05,-4.575e-05,1742092537.874969
0.009,0.00425,0.25175,0.0,1.5250001e-05,-4.575e-05,1742092537.8893282
0.00925,0.0045,0.25175,0.0,3.0500001e-05,-7.625e-05,1742092537.9035149
0.0095,0.0045,0.2515,1.5250001e-05,3.0500001e-05,-7.625e-05,1742092537.9177752
0.00925,0.0045,0.251,4.575e-05,1.5250001e-05,-6.1000002e-05,1742092537.9320571
0.00925,0.0045,0.251,3.0500001e-05,3.0500001e-05,-6.1000002e-05,1742092537.946372
0.00925,0.0045,0.2515,3.0500001e-05,3.0500001e-05,-6.1000002e-05,1742092537.960588
0.00925,0.00425,0.2515,3.0500001e-05,3.0500001e-05,-7.625e-05,1742092537.975998
0.0095,0.0045,0.25125,3.0500001e-05,3.0500001e-05,-7.625e-05,1742092537.989009
0.0095,0.0045,0.25125,1.5250001e-05,3.0500001e-05,-6.1000002e-05,1742092538.003314
0.00925,0.0045,0.25175,1.5250001e-05,4.575e-05,-6.1000002e-05,1742092538.017468
0.009,0.0045,0.252,0.0,3.0500001e-05,-6.1000002e-05,1742092538.031817
0.009,0.0045,0.251,1.5250001e-05,1.5250001e-05,-6.1000002e-05,1742092538.046463
0.009,0.0045,0.2505,1.5250001e-05,4.575e-05,-4.575e-05,1742092538.0604858
0.009,0.0045,0.25225,-3.0500001e-05,6.1000002e-05,-4.575e-05,1742092538.074929
0.00925,0.00475,0.2525,-3.0500001e-05,6.1000002e-05,-6.1000002e-05,1742092538.08929
0.00975,0.00475,0.25175,4.575e-05,7.625e-05,-7.625e-05,1742092538.103627
0.01025,0.00375,0.25075,7.625e-05,6.1000002e-05,-6.1000002e-05,1742092538.117909
0.0105,0.0035,0.252,-7.625e-05,-3.0500001e-05,-4.575e-05,1742092538.132386
0.01025,0.0035,0.25375,-0.00010675,-6.1000002e-05,-4.575e-05,1742092538.146802
0.01,0.0035,0.2515,7.625e-05,-1.5250001e-05,-4.575e-05,1742092538.1611378
0.00975,0.00375,0.24975,0.0,-4.575e-05,-4.575e-05,1742092538.1764631
0.00975,0.00425,0.2525,-0.00010675,-7.625e-05,-4.575e-05,1742092538.189918
0.01,0.00475,0.2555,-0.00019825,-0.0001525,-4.575e-05,1742092538.204457
0.01025,0.00475,0.25325,-7.625e-05,-0.00016775,-6.1000002e-05,1742092538.218786
0.00975,0.00425,0.2515,-9.15e-05,-0.00019825,-7.625e-05,1742092538.233164
0.00875,0.00375,0.25025,-0.00010675,-0.0002135,-7.625e-05,1742092538.247587
0.00875,0.0035,0.2505,-9.15e-05,-0.000183,-4.575e-05,1742092538.261984
0.009,0.00475,0.24925,-3.0500001e-05,-0.0001525,-4.575e-05,1742092538.276451
0.0085,0.00525,0.249,-3.0500001e-05,-7.625e-05,-4.575e-05,1742092538.2907672
0.00725,0.0065,0.25125,-6.1000002e-05,-6.1000002e-05,-4.575e-05,1742092538.306176
0.00725,0.0065,0.252,-7.625e-05,-4.575e-05,-6.1000002e-05,1742092538.319629
0.0075,0.0065,0.2515,1.5250001e-05,0.0,-9.15e-05,1742092538.333882
0.00875,0.005,0.24975,0.00010675,4.575e-05,-0.00010675,1742092538.348086
0.00875,0.00375,0.2505,-0.00010675,4.575e-05,1.5250001e-05,1742092538.3623
0.00925,0.0035,0.25275,-0.0002135,0.00013725001,0.00065625,1742092538.3764338
0.0115,0.0055,0.25075,-6.1000002e-05,0.0,0.00054925,1742092538.390826
0.00975,0.00375,0.25175,-0.00019825,-0.000183,0.00013725001,1742092538.405791
0.00975,0.00425,0.25225,-0.000183,-0.0002135,0.000122000005,1742092538.4194748
0.00925,0.00425,0.25175,-0.000183,-0.000183,0.00027475,1742092538.433811
0.00875,0.006,0.2505,-0.0002135,-0.0002135,0.00042725,1742092538.44819
0.00875,0.00625,0.25025,-0.000534,-0.0003205,0.00016775,1742092538.4624581
0.0085,0.00525,0.2515,-0.00070200005,-0.00039675,6.1000002e-05,1742092538.476777
0.0085,0.005,0.25125,-0.00099175,-0.000473,6.1000002e-05,1742092538.491074
0.00825,0.00525,0.25075,-0.00090025004,-0.00054925,0.00013725001,1742092538.506418
0.0065,0.0065,0.251,-0.00074775,-0.00068675,0.00033575002,1742092538.519933
0.0055,0.012,0.25175,-0.0007935,-0.00074775,0.00033575002,1742092538.534334
0.009,0.0165,0.25125,-0.00029,-0.00061025,-0.0002595,1742092538.548691
0.009,0.0115,0.25075,-0.00024425,-0.00027475,-0.001831,1742092538.563178
0.007,0.00275,0.25125,-0.00024425,-0.000183,-0.0019225,1742092538.577543
0.0075,0.0035,0.25125,-0.000229,-0.00019825,-0.0013885,1742092538.591957
0.0085,0.00125,0.25175,-0.0002135,-0.0001525,-0.0012207499,1742092538.606488
0.00825,0.0,0.2515,-0.00016775,-7.625e-05,-0.0009765,1742092538.62095
0.0085,0.00025,0.2515,-1.5250001e-05,0.0,-0.00030525,1742092538.636256
0.0085,0.00525,0.25175,-1.5250001e-05,1.5250001e-05,-6.1000002e-05,1742092538.64957
0.008,0.0065,0.25175,-3.0500001e-05,0.0,-1.5250001e-05,1742092538.663884
0.00775,0.006,0.2515,-3.0500001e-05,1.5250001e-05,-4.575e-05,1742092538.678258
0.0075,0.00625,0.25125,-3.0500001e-05,-1.5250001e-05,-4.575e-05,1742092538.692736
0.00725,0.007,0.25125,-3.0500001e-05,-3.0500001e-05,-6.1000002e-05,1742092538.7072058
0.00725,0.007,0.25125,1.5250001e-05,-6.1000002e-05,-9.15e-05,1742092538.721611
0.007,0.00675,0.2515,1.5250001e-05,-4.575e-05,-9.15e-05,1742092538.7364821
0.00725,0.00675,0.2515,3.0500001e-05,-1.5250001e-05,-4.575e-05,1742092538.750255
0.0075,0.0065,0.25125,6.1000002e-05,-3.0500001e-05,-6.1000002e-05,1742092538.7645068
0.008,0.006,0.2515,3.0500001e-05,-3.0500001e-05,-9.15e-05,1742092538.778929
0.008,0.006,0.25175,-1.5250001e-05,0.0,-6.1000002e-05,1742092538.793283
0.00775,0.0065,0.2515,-1.5250001e-05,0.0,-6.1000002e-05,1742092538.807532
0.00775,0.0065,0.2515,3.0500001e-05,3.0500001e-05,-4.575e-05,1742092538.8219252
0.008,0.006,0.25125,4.575e-05,1.5250001e-05,-3.0500001e-05,1742092538.8361752
0.00775,0.006,0.25125,4.575e-05,0.0,-4.575e-05,1742092538.8503768
0.0075,0.00625,0.2515,3.0500001e-05,-1.5250001e-05,-6.1000002e-05,1742092538.864692
0.00725,0.0065,0.25125,0.0,0.0,-6.1000002e-05,1742092538.878901
0.00725,0.0065,0.25125,0.0,1.5250001e-05,-4.575e-05,1742092538.893219
0.0075,0.00625,0.25125,1.5250001e-05,1.5250001e-05,-4.575e-05,1742092538.907465
0.00725,0.00625,0.25125,4.575e-05,3.0500001e-05,-6.1000002e-05,1742092538.921708
0.00725,0.00625,0.25125,6.1000002e-05,1.5250001e-05,-4.575e-05,1742092538.936139
0.00725,0.006,0.2495,6.1000002e-05,1.5250001e-05,-4.575e-05,1742092538.950138
0.007,0.00575,0.2485,7.625e-05,7.625e-05,-7.625e-05,1742092538.964473
0.00725,0.00625,0.25375,6.1000002e-05,7.625e-05,-7.625e-05,1742092538.9787729
0.0075,0.0065,0.25625,1.5250001e-05,1.5250001e-05,-4.575e-05,1742092538.993001
0.0085,0.00675,0.25125,3.0500001e-05,1.5250001e-05,-4.575e-05,1742092539.007318
0.00825,0.0065,0.2485,6.1000002e-05,0.0,-6.1000002e-05,1742092539.021446
0.008,0.0065,0.2495,0.0,-3.0500001e-05,-6.1000002e-05,1742092539.036302
0.00725,0.006,0.25275,-1.5250001e-05,-1.5250001e-05,-6.1000002e-05,1742092539.0503922
0.007,0.006,0.251,6.1000002e-05,4.575e-05,-4.575e-05,1742092539.064596
0.0075,0.00625,0.25,6.1000002e-05,3.0500001e-05,-4.575e-05,1742092539.078899
0.00775,0.0065,0.25225,3.0500001e-05,3.0500001e-05,-4.575e-05,1742092539.093151
0.0075,0.0065,0.252,6.1000002e-05,6.1000002e-05,-4.575e-05,1742092539.10734
0.00725,0.0065,0.25025,7.625e-05,7.625e-05,-3.0500001e-05,1742092539.121603
0.00725,0.00675,0.25025,1.5250001e-05,1.5250001e-05,-6.1000002e-05,1742092539.136251
0.007,0.0065,0.2525,1.5250001e-05,0.0,-6.1000002e-05,1742092539.150146
0.0075,0.006,0.25175,4.575e-05,3.0500001e-05,-7.625e-05,1742092539.1644669
0.00825,0.00575,0.2505,4.575e-05,1.5250001e-05,-7.625e-05,1742092539.1789272
0.0085,0.00575,0.2515,1.5250001e-05,0.0,-6.1000002e-05,1742092539.193183
0.00825,0.00575,0.2525,1.5250001e-05,0.0,-6.1000002e-05,1742092539.207702
0.008,0.00625,0.2515,3.0500001e-05,1.5250001e-05,-6.1000002e-05,1742092539.221927
0.00775,0.0065,0.25075,0.0,1.5250001e-05,-4.575e-05,1742092539.236191
0.00775,0.0065,0.2515,1.5250001e-05,1.5250001e-05,-4.575e-05,1742092539.2503932
0.00775,0.0065,0.252,1.5250001e-05,0.0,-6.1000002e-05,1742092539.26457
0.00725,0.0065,0.25125,1.5250001e-05,1.5250001e-05,-7.625e-05,1742092539.278771
0.00725,0.00625,0.25125,3.0500001e-05,1.5250001e-05,-6.1000002e-05,1742092539.293065
0.00725,0.00625,0.2515,1.5250001e-05,3.0500001e-05,-6.1000002e-05,1742092539.3073862
0.0075,0.00625,0.25175,1.5250001e-05,4.575e-05,-6.1000002e-05,1742092539.321703
0.008,0.0065,0.25175,4.575e-05,3.0500001e-05,0.0,1742092539.3360572
0.00775,0.0065,0.2515,3.0500001e-05,0.0,-1.5250001e-05,1742092539.3501399
0.0075,0.00625,0.2515,0.0,1.5250001e-05,-6.1000002e-05,1742092539.364362
0.00725,0.00625,0.25125,0.0,3.0500001e-05,-7.625e-05,1742092539.378701
0.007,0.00625,0.25125,1.5250001e-05,0.0,-6.1000002e-05,1742092539.392873
0.0075,0.00625,0.2515,1.5250001e-05,0.0,-6.1000002e-05,1742092539.407155
0.00775,0.0065,0.252,0.0,1.5250001e-05,-6.1000002e-05,1742092539.421464
0.00775,0.0065,0.25175,3.0500001e-05,3.0500001e-05,-7.625e-05,1742092539.4362292
0.008,0.00575,0.251,3.0500001e-05,3.0500001e-05,-6.1000002e-05,1742092539.4499881
0.008,0.00575,0.25125,1.5250001e-05,1.5250001e-05,-4.575e-05,1742092539.4643898
0.0075,0.00625,0.2515,0.0,0.0,-6.1000002e-05,1742092539.478706
0.0075,0.00625,0.25125,0.0,-1.5250001e-05,-6.1000002e-05,1742092539.492994
0.00775,0.0065,0.2515,1.5250001e-05,1.5250001e-05,-4.575e-05,1742092539.5072682
0.0075,0.007,0.2515,1.5250001e-05,3.0500001e-05,-6.1000002e-05,1742092539.521491
0.00725,0.00675,0.251,3.0500001e-05,1.5250001e-05,-9.15e-05,1742092539.5361779
0.007,0.0065,0.251,1.5250001e-05,0.0,-7.625e-05,1742092539.550173
0.00725,0.00625,0.2515,3.0500001e-05,3.0500001e-05,-4.575e-05,1742092539.564367
0.0075,0.006,0.25125,4.575e-05,4.575e-05,-4.575e-05,1742092539.578583
0.00775,0.006,0.25125,3.0500001e-05,4.575e-05,-4.575e-05,1742092539.592875
0.008,0.006,0.2515,0.0,1.5250001e-05,-6.1000002e-05,1742092539.60714
0.00775,0.00625,0.25175,1.5250001e-05,1.5250001e-05,-7.625e-05,1742092539.621383
0.00775,0.00625,0.25175,3.0500001e-05,1.5250001e-05,-6.1000002e-05,1742092539.635793
0.00775,0.00675,0.25125,3.0500001e-05,1.5250001e-05,-6.1000002e-05,1742092539.649869
0.00775,0.00675,0.25125,1.5250001e-05,1.5250001e-05,-7.625e-05,1742092539.664128
0.00775,0.0065,0.25125,1.5250001e-05,1.5250001e-05,-6.1000002e-05,1742092539.678464
0.0075,0.0065,0.2515,1.5250001e-05,1.5250001e-05,-6.1000002e-05,1742092539.6928692
0.0075,0.00625,0.25175,1.5250001e-05,1.5250001e-05,-6.1000002e-05,1742092539.7071412
0.00775,0.006,0.25175,3.0500001e-05,3.0500001e-05,-6.1000002e-05,1742092539.7213619
0.00775,0.006,0.2515,1.5250001e-05,3.0500001e-05,-6.1000002e-05,1742092539.736038
0.00775,0.00625,0.25125,1.5250001e-05,3.0500001e-05,-6.1000002e-05,1742092539.749847
0.00775,0.0065,0.2515,0.0,1.5250001e-05,-6.1000002e-05,1742092539.7641442
0.00775,0.00625,0.25175,0.0,1.5250001e-05,-6.1000002e-05,1742092539.778383
0.00775,0.00625,0.2515,0.0,1.5250001e-05,-6.1000002e-05,1742092539.792577
0.00775,0.00625,0.2515,1.5250001e-05,4.575e-05,-6.1000002e-05,1742092539.806798
0.008,0.006,0.251,1.5250001e-05,3.0500001e-05,-6.1000002e-05,1742092539.82125
0.008,0.006,0.25125,1.5250001e-05,1.5250001e-05,-7.625e-05,1742092539.836254
0.00775,0.00625,0.2515,3.0500001e-05,1.5250001e-05,-7.625e-05,1742092539.849688
0.00775,0.00625,0.25125,1.5250001e-05,3.0500001e-05,-6.1000002e-05,1742092539.863859
0.00775,0.00625,0.25125,1.5250001e-05,0.0,-4.575e-05,1742092539.8781629
0.0075,0.006,0.25125,1.5250001e-05,0.0,-6.1000002e-05,1742092539.892371
0.0075,0.00625,0.25125,1.5250001e-05,1.5250001e-05,-7.625e-05,1742092539.906695
0.00775,0.00625,0.2515,0.0,1.5250001e-05,-6.1000002e-05,1742092539.920883
0.00775,0.00625,0.251,1.5250001e-05,0.0,-4.575e-05,1742092539.9362822
0.00775,0.0065,0.25125,1.5250001e-05,1.5250001e-05,-4.575e-05,1742092539.949367
0.00775,0.00675,0.25175,3.0500001e-05,1.5250001e-05,-4.575e-05,1742092539.9635699
0.00775,0.00675,0.252,3.0500001e-05,1.5250001e-05,-6.1000002e-05,1742092539.977907
0.008,0.00625,0.25125,1.5250001e-05,1.5250001e-05,-6.1000002e-05,1742092539.992159
0.0075,0.006,0.25125,1.5250001e-05,3.0500001e-05,-6.1000002e-05,1742092540.0064662
0.00725,0.00575,0.2515,0.0,3.0500001e-05,-6.1000002e-05,1742092540.020576
0.0075,0.00575,0.25125,1.5250001e-05,1.5250001e-05,-6.1000002e-05,1742092540.0348842
0.0075,0.0065,0.25125,3.0500001e-05,1.5250001e-05,-6.1000002e-05,1742092540.0491562
0.00775,0.0065,0.25125,1.5250001e-05,1.5250001e-05,-6.1000002e-05,1742092540.063379
0.008,0.0065,0.25175,0.0,1.5250001e-05,-4.575e-05,1742092540.077717
0.00775,0.006,0.2515,1.5250001e-05,0.0,-6.1000002e-05,1742092540.0918841
0.0075,0.00625,0.25125,0.0,0.0,-6.1000002e-05,1742092540.106295
0.0075,0.0065,0.2515,1.5250001e-05,1.5250001e-05,-6.1000002e-05,1742092540.120387
0.0075,0.0065,0.2515,3.0500001e-05,3.0500001e-05,-4.575e-05,1742092540.134592
0.0075,0.0065,0.2515,4.575e-05,4.575e-05,-1.5250001e-05,1742092540.1488798
0.0075,0.00625,0.25125,4.575e-05,1.5250001e-05,-1.5250001e-05,1742092540.163154
0.0075,0.00625,0.25125,1.5250001e-05,0.0,-4.575e-05,1742092540.177351
0.0075,0.00625,0.25125,1.5250001e-05,0.0,-6.1000002e-05,1742092540.1915689
0.0075,0.00625,0.25125,1.5250001e-05,0.0,-6.1000002e-05,1742092540.206374
0.00775,0.00625,0.2515,1.5250001e-05,0.0,-7.625e-05,1742092540.220153
0.00775,0.00625,0.25175,1.5250001e-05,0.0,-7.625e-05,1742092540.234338
0.00775,0.0065,0.25175,3.0500001e-05,0.0,-4.575e-05,1742092540.248513
0.00775,0.0065,0.2515,3.0500001e-05,1.5250001e-05,-4.575e-05,1742092540.262887
0.00775,0.0065,0.25125,4.575e-05,0.0,-6.1000002e-05,1742092540.277131
0.0075,0.00625,0.25125,4.575e-05,0.0,-6.1000002e-05,1742092540.2913349
0.0075,0.00625,0.25125,1.5250001e-05,1.5250001e-05,-6.1000002e-05,1742092540.306297
0.00725,0.00625,0.25125,1.5250001e-05,1.5250001e-05,-7.625e-05,1742092540.319764
0.0075,0.006,0.25125,3.0500001e-05,1.5250001e-05,-7.625e-05,1742092540.334213
0.0075,0.006,0.2515,3.0500001e-05,1.5250001e-05,-6.1000002e-05,1742092540.348439
0.0075,0.00625,0.2515,1.5250001e-05,1.5250001e-05,-6.1000002e-05,1742092540.362693
0.0075,0.0065,0.25125,1.5250001e-05,1.5250001e-05,-6.1000002e-05,1742092540.376908
0.00775,0.0065,0.25175,1.5250001e-05,0.0,-6.1000002e-05,1742092540.391158
0.008,0.0065,0.25175,1.5250001e-05,1.5250001e-05,-4.575e-05,1742092540.405764
0.00775,0.00625,0.25125,1.5250001e-05,1.5250001e-05,-6.1000002e-05,1742092540.4195762
0.00775,0.0065,0.251,1.5250001e-05,1.5250001e-05,-6.1000002e-05,1742092540.433876
0.0075,0.0065,0.25125,3.0500001e-05,1.5250001e-05,-7.625e-05,1742092540.448125
0.0075,0.00625,0.25175,3.0500001e-05,3.0500001e-05,-7.625e-05,1742092540.462361
0.00775,0.00625,0.25175,3.0500001e-05,1.5250001e-05,-6.1000002e-05,1742092540.476682
0.00775,0.00625,0.25125,1.5250001e-05,0.0,-6.1000002e-05,1742092540.490879
0.00775,0.00625,0.251,0.0,0.0,-6.1000002e-05,1742092540.5063171
0.0075,0.00625,0.251,1.5250001e-05,1.5250001e-05,-6.1000002e-05,1742092540.5193431
0.0075,0.00625,0.251,1.5250001e-05,1.5250001e-05,-6.1000002e-05,1742092540.533555
0.0075,0.00625,0.25125,1.5250001e-05,3.0500001e-05,-4.575e-05,1742092540.547754
0.008,0.00625,0.2515,1.5250001e-05,3.0500001e-05,-4.575e-05,1742092540.562064
0.00775,0.00625,0.2515,3.0500001e-05,1.5250001e-05,-6.1000002e-05,1742092540.576587
0.0075,0.00625,0.2515,3.0500001e-05,1.5250001e-05,-6.1000002e-05,1742092540.5906072
0.0075,0.0065,0.25125,3.0500001e-05,3.0500001e-05,-6.1000002e-05,1742092540.604789
0.0075,0.00625,0.25125,3.0500001e-05,0.0,-6.1000002e-05,1742092540.619029
0.008,0.006,0.2515,1.5250001e-05,0.0,-6.1000002e-05,1742092540.633298
0.008,0.00625,0.2515,0.0,1.5250001e-05,-6.1000002e-05,1742092540.6475542
0.0075,0.0065,0.2515,0.0,1.5250001e-05,-6.1000002e-05,1742092540.661782
0.0075,0.0065,0.25125,1.5250001e-05,0.0,-7.625e-05,1742092540.676484
0.0075,0.00625,0.2515,3.0500001e-05,1.5250001e-05,-7.625e-05,1742092540.6903691
0.0075,0.006,0.25125,3.0500001e-05,1.5250001e-05,-7.625e-05,1742092540.7045639
0.0075,0.00625,0.251,3.0500001e-05,1.5250001e-05,-4.575e-05,1742092540.71891
0.00675,0.007,0.251,3.0500001e-05,3.0500001e-05,-6.1000002e-05,1742092540.733234
0.00675,0.007,0.25125,4.575e-05,4.575e-05,-7.625e-05,1742092540.747355
0.00775,0.00675,0.252,3.0500001e-05,6.1000002e-05,-7.625e-05,1742092540.761816
0.008,0.0065,0.25225,1.5250001e-05,7.625e-05,-7.625e-05,1742092540.7760499
0.0085,0.00575,0.252,1.5250001e-05,3.0500001e-05,-6.1000002e-05,1742092540.790358
0.009,0.0055,0.252,1.5250001e-05,0.0,-6.1000002e-05,1742092540.804596
0.009,0.00525,0.25175,0.0,-3.0500001e-05,-6.1000002e-05,1742092540.818887
0.00725,0.00525,0.25075,0.0,-3.0500001e-05,-6.1000002e-05,1742092540.8332999
0.007,0.006,0.25125,0.0,-3.0500001e-05,-4.575e-05,1742092540.847691
0.00775,0.00725,0.25275,0.0,-3.0500001e-05,-4.575e-05,1742092540.8619661
0.00825,0.0075,0.2525,-1.5250001e-05,-4.575e-05,-4.575e-05,1742092540.8764591
0.0075,0.007,0.25075,-1.5250001e-05,-9.15e-05,-4.575e-05,1742092540.8908749
0.007,0.00675,0.2505,-1.5250001e-05,-9.15e-05,-6.1000002e-05,1742092540.905971
0.00675,0.00625,0.2505,-1.5250001e-05,-4.575e-05,-6.1000002e-05,1742092540.919714
0.007,0.00575,0.251,-1.5250001e-05,-3.0500001e-05,-4.575e-05,1742092540.9340641
0.0075,0.00575,0.25075,0.0,0.0,-4.575e-05,1742092540.948299
0.00775,0.00625,0.25175,0.0,-1.5250001e-05,-3.0500001e-05,1742092540.962673
0.00725,0.0065,0.2515,0.0,-1.5250001e-05,-6.1000002e-05,1742092540.976968
0.00675,0.00725,0.2505,0.0,0.0,-6.1000002e-05,1742092540.991285
0.007,0.00725,0.25075,1.5250001e-05,0.0,-6.1000002e-05,1742092541.006329
0.007,0.007,0.251,1.5250001e-05,1.5250001e-05,-6.1000002e-05,1742092541.0198882
0.0075,0.00675,0.25125,1.5250001e-05,3.0500001e-05,-6.1000002e-05,1742092541.034186
0.00775,0.0065,0.25125,1.5250001e-05,3.0500001e-05,-6.1000002e-05,1742092541.0484538
0.00825,0.0055,0.2515,3.0500001e-05,3.0500001e-05,-6.1000002e-05,1742092541.0628521
0.00825,0.0055,0.2515,3.0500001e-05,1.5250001e-05,-6.1000002e-05,1742092541.077183
0.0075,0.00625,0.25125,1.5250001e-05,1.5250001e-05,-4.575e-05,1742092541.0916128
0.00725,0.0065,0.25125,3.0500001e-05,3.0500001e-05,-1.5250001e-05,1742092541.106148
0.0075,0.00675,0.25125,3.0500001e-05,0.0,-3.0500001e-05,1742092541.12018
0.00725,0.007,0.25125,3.0500001e-05,-1.5250001e-05,-3.0500001e-05,1742092541.134441
0.00725,0.00675,0.251,0.0,1.5250001e-05,-6.1000002e-05,1742092541.148674
0.007,0.00675,0.25125,0.0,0.0,-6.1000002e-05,1742092541.162847
0.00725,0.0065,0.25125,1.5250001e-05,1.5250001e-05,-6.1000002e-05,1742092541.177171
0.008,0.00625,0.25175,1.5250001e-05,1.5250001e-05,-6.1000002e-05,1742092541.1913111
0.008,0.00625,0.252,1.5250001e-05,0.0,-4.575e-05,1742092541.2060952
0.00775,0.00625,0.25175,1.5250001e-05,0.0,-6.1000002e-05,1742092541.2198641
0.0075,0.006,0.2515,3.0500001e-05,1.5250001e-05,-6.1000002e-05,1742092541.234056
0.0075,0.006,0.2515,1.5250001e-05,1.5250001e-05,-6.1000002e-05,1742092541.248329
0.00725,0.0065,0.2515,1.5250001e-05,1.5250001e-05,-6.1000002e-05,1742092541.262583
0.00725,0.00675,0.2515,3.0500001e-05,3.0500001e-05,-4.575e-05,1742092541.276763
0.0075,0.007,0.2515,3.0500001e-05,1.5250001e-05,-6.1000002e-05,1742092541.29106
0.0075,0.0065,0.251,3.0500001e-05,0.0,-6.1000002e-05,1742092541.306375
0.0075,0.00625,0.251,1.5250001e-05,0.0,-4.575e-05,1742092541.3197272
0.00725,0.006,0.25125,1.5250001e-05,1.5250001e-05,-4.575e-05,1742092541.3338828
0.0075,0.00625,0.25125,0.0,3.0500001e-05,-6.1000002e-05,1742092541.3481731
0.0075,0.0065,0.25125,0.0,3.0500001e-05,-7.625e-05,1742092541.3623512
0.0075,0.0065,0.2515,0.0,3.0500001e-05,-7.625e-05,1742092541.376596
0.00725,0.0065,0.2515,1.5250001e-05,1.5250001e-05,-6.1000002e-05,1742092541.390829
0.007,0.0065,0.25125,3.0500001e-05,1.5250001e-05,-6.1000002e-05,1742092541.40632
0.00675,0.0065,0.25125,3.0500001e-05,3.0500001e-05,-4.575e-05,1742092541.4193778
0.007,0.007,0.25125,1.5250001e-05,3.0500001e-05,-4.575e-05,1742092541.433577
0.0075,0.00675,0.2515,1.5250001e-05,1.5250001e-05,-6.1000002e-05,1742092541.447833
0.00825,0.00625,0.2515,1.5250001e-05,1.5250001e-05,-7.625e-05,1742092541.462125
0.008,0.00625,0.25125,1.5250001e-05,1.5250001e-05,-7.625e-05,1742092541.476365
0.00775,0.00625,0.25125,3.0500001e-05,1.5250001e-05,-6.1000002e-05,1742092541.490554
0.0075,0.006,0.2515,3.0500001e-05,1.5250001e-05,-6.1000002e-05,1742092541.505924
0.0075,0.00625,0.2515,1.5250001e-05,0.0,-6.1000002e-05,1742092541.519089
0.0075,0.007,0.2515,1.5250001e-05,0.0,-6.1000002e-05,1742092541.5333571
0.00725,0.007,0.25125,1.5250001e-05,1.5250001e-05,-6.1000002e-05,1742092541.547549
0.00725,0.007,0.25125,1.5250001e-05,3.0500001e-05,-7.625e-05,1742092541.561768
0.0075,0.00675,0.25125,0.0,3.0500001e-05,-6.1000002e-05,1742092541.576061
0.0075,0.0065,0.25125,1.5250001e-05,1.5250001e-05,-6.1000002e-05,1742092541.590281
0.0075,0.00625,0.2515,1.5250001e-05,1.5250001e-05,-7.625e-05,1742092541.604589
0.00775,0.00625,0.25125,1.5250001e-05,1.5250001e-05,-7.625e-05,1742092541.6189098
0.008,0.00625,0.25125,1.5250001e-05,1.5250001e-05,-6.1000002e-05,1742092541.6331751
0.00775,0.00625,0.25125,1.5250001e-05,1.5250001e-05,-6.1000002e-05,1742092541.6473448
0.0075,0.0065,0.251,3.0500001e-05,1.5250001e-05,-4.575e-05,1742092541.661549
0.00725,0.00675,0.2515,3.0500001e-05,1.5250001e-05,-4.575e-05,1742092541.676179
0.00725,0.00675,0.2515,0.0,3.0500001e-05,-6.1000002e-05,1742092541.690169
0.00725,0.00675,0.25125,0.0,1.5250001e-05,-6.1000002e-05,1742092541.704473
0.00725,0.0065,0.25125,4.575e-05,1.5250001e-05,-4.575e-05,1742092541.718668
0.00775,0.00625,0.251,6.1000002e-05,4.575e-05,-1.5250001e-05,1742092541.732851
0.00775,0.00625,0.25125,4.575e-05,3.0500001e-05,-1.5250001e-05,1742092541.747164
0.00775,0.0065,0.2515,1.5250001e-05,1.5250001e-05,-6.1000002e-05,1742092541.761355
0.0075,0.0065,0.2515,0.0,0.0,-6.1000002e-05,1742092541.775692
0.00725,0.0065,0.25125,1.5250001e-05,0.0,-6.1000002e-05,1742092541.789736
0.00725,0.0065,0.25125,1.5250001e-05,0.0,-6.1000002e-05,1742092541.8040938
0.00725,0.00675,0.25125,3.0500001e-05,0.0,-6.1000002e-05,1742092541.818327
0.00725,0.00675,0.25125,1.5250001e-05,1.5250001e-05,-4.575e-05,1742092541.832536
0.0075,0.0065,0.25125,3.0500001e-05,1.5250001e-05,-4.575e-05,1742092541.846837
0.0075,0.00625,0.25125,3.0500001e-05,0.0,-6.1000002e-05,1742092541.8611698
0.0075,0.00575,0.25125,3.0500001e-05,1.5250001e-05,-6.1000002e-05,1742092541.87532
0.0075,0.006,0.25125,1.5250001e-05,1.5250001e-05,-4.575e-05,1742092541.889584
0.00725,0.0065,0.25125,3.0500001e-05,1.5250001e-05,-6.1000002e-05,1742092541.903845
0.00725,0.00675,0.2515,1.5250001e-05,1.5250001e-05,-6.1000002e-05,1742092541.9183931
0.00725,0.00675,0.2515,1.5250001e-05,3.0500001e-05,-6.1000002e-05,1742092541.932564
0.00725,0.00675,0.2515,1.5250001e-05,1.5250001e-05,-4.575e-05,1742092541.946849
0.00725,0.0065,0.2515,1.5250001e-05,0.0,-4.575e-05,1742092541.961163
0.00725,0.0065,0.25125,1.5250001e-05,0.0,-6.1000002e-05,1742092541.975662
0.0075,0.0065,0.25125,3.0500001e-05,1.5250001e-05,-6.1000002e-05,1742092541.989548
0.00775,0.00625,0.25125,1.5250001e-05,1.5250001e-05,-6.1000002e-05,1742092542.003843
0.00775,0.00625,0.25125,0.0,1.5250001e-05,-6.1000002e-05,1742092542.018155
0.00775,0.00625,0.2515,1.5250001e-05,1.5250001e-05,-6.1000002e-05,1742092542.032358
0.0075,0.00625,0.2515,1.5250001e-05,1.5250001e-05,-6.1000002e-05,1742092542.046535
0.00725,0.00625,0.2515,1.5250001e-05,0.0,-6.1000002e-05,1742092542.060859
0.007,0.00675,0.25125,1.5250001e-05,1.5250001e-05,-6.1000002e-05,1742092542.0750349
0.00725,0.00675,0.25125,1.5250001e-05,1.5250001e-05,-4.575e-05,1742092542.089329
0.0075,0.00675,0.25125,1.5250001e-05,1.5250001e-05,-6.1000002e-05,1742092542.103542
0.0075,0.0065,0.25125,3.0500001e-05,1.5250001e-05,-6.1000002e-05,1742092542.11788
0.0075,0.00625,0.25125,1.5250001e-05,1.5250001e-05,-6.1000002e-05,1742092542.1321468
0.0075,0.0065,0.2515,1.5250001e-05,1.5250001e-05,-6.1000002e-05,1742092542.146394
0.0075,0.00625,0.25125,1.5250001e-05,0.0,-7.625e-05,1742092542.160522
0.0075,0.0065,0.2515,1.5250001e-05,0.0,-7.625e-05,1742092542.174742
0.0075,0.00675,0.25125,1.5250001e-05,1.5250001e-05,-6.1000002e-05,1742092542.1891708
0.0075,0.00675,0.25125,1.5250001e-05,1.5250001e-05,-6.1000002e-05,1742092542.203341
0.00775,0.0065,0.2515,1.5250001e-05,1.5250001e-05,-6.1000002e-05,1742092542.218112
0.00775,0.0065,0.2515,3.0500001e-05,1.5250001e-05,-9.15e-05,1742092542.231839
0.0075,0.00625,0.2515,3.0500001e-05,3.0500001e-05,-7.625e-05,1742092542.2463412
0.0075,0.006,0.2515,3.0500001e-05,1.5250001e-05,-6.1000002e-05,1742092542.2603781
0.00775,0.00625,0.25125,4.575e-05,1.5250001e-05,-6.1000002e-05,1742092542.274542
0.008,0.00625,0.2515,4.575e-05,3.0500001e-05,-6.1000002e-05,1742092542.288817
0.00775,0.0065,0.2515,1.5250001e-05,1.5250001e-05,-4.575e-05,1742092542.303025
0.00725,0.0065,0.25125,0.0,0.0,-4.575e-05,1742092542.317641
0.00725,0.0065,0.251,3.0500001e-05,1.5250001e-05,-6.1000002e-05,1742092542.331546
0.007,0.00675,0.25125,3.0500001e-05,1.5250001e-05,-6.1000002e-05,1742092542.346356
0.007,0.00675,0.2515,3.0500001e-05,3.0500001e-05,-6.1000002e-05,1742092542.3601658
0.00725,0.00625,0.25125,1.5250001e-05,3.0500001e-05,-6.1000002e-05,1742092542.3744938
0.00725,0.00625,0.25125,1.5250001e-05,3.0500001e-05,-6.1000002e-05,1742092542.388919
0.0075,0.00625,0.25125,0.0,3.0500001e-05,-4.575e-05,1742092542.4030359
0.0075,0.0065,0.2515,0.0,3.0500001e-05,-6.1000002e-05,1742092542.417949
0.0075,0.0065,0.2515,1.5250001e-05,3.0500001e-05,-6.1000002e-05,1742092542.43184
0.00775,0.00625,0.2515,3.0500001e-05,3.0500001e-05,-4.575e-05,1742092542.446315
0.0075,0.00625,0.25175,3.0500001e-05,1.5250001e-05,-6.1000002e-05,1742092542.4603362
0.00725,0.00625,0.2515,1.5250001e-05,0.0,-7.625e-05,1742092542.474538
0.007,0.00625,0.25125,1.5250001e-05,0.0,-6.1000002e-05,1742092542.4888818
0.007,0.0065,0.251,3.0500001e-05,1.5250001e-05,-6.1000002e-05,1742092542.50318
0.0075,0.0065,0.25125,3.0500001e-05,1.5250001e-05,-6.1000002e-05,1742092542.517952
0.0075,0.0065,0.2515,1.5250001e-05,1.5250001e-05,-6.1000002e-05,1742092542.531554
0.00775,0.00625,0.25125,1.5250001e-05,1.5250001e-05,-6.1000002e-05,1742092542.5465658
0.0075,0.0065,0.25125,1.5250001e-05,1.5250001e-05,-6.1000002e-05,1742092542.560085
0.0075,0.0065,0.2515,0.0,1.5250001e-05,-6.1000002e-05,1742092542.5743418
0.0075,0.006,0.25125,0.0,1.5250001e-05,-6.1000002e-05,1742092542.588525
0.0075,0.00625,0.25125,1.5250001e-05,1.5250001e-05,-4.575e-05,1742092542.6028411
0.00725,0.00675,0.2515,1.5250001e-05,1.5250001e-05,-4.575e-05,1742092542.618363
0.00725,0.0065,0.2515,1.5250001e-05,1.5250001e-05,-6.1000002e-05,1742092542.6314251
0.0075,0.0065,0.251,3.0500001e-05,1.5250001e-05,-6.1000002e-05,1742092542.6463869
0.0075,0.0065,0.251,3.0500001e-05,1.5250001e-05,-6.1000002e-05,1742092542.6600661
0.0075,0.0065,0.25125,3.0500001e-05,0.0,-7.625e-05,1742092542.674365
0.00725,0.00625,0.25175,1.5250001e-05,1.5250001e-05,-7.625e-05,1742092542.6886709
0.00725,0.00625,0.2515,1.5250001e-05,3.0500001e-05,-6.1000002e-05,1742092542.70283
0.00725,0.0065,0.25125,1.5250001e-05,4.575e-05,-6.1000002e-05,1742092542.7183502
0.00725,0.00675,0.25125,1.5250001e-05,4.575e-05,-7.625e-05,1742092542.731317
0.00725,0.00675,0.2515,0.0,3.0500001e-05,-7.625e-05,1742092542.746498
0.00725,0.0065,0.2515,0.0,3.0500001e-05,-7.625e-05,1742092542.759861
0.0075,0.0065,0.25175,3.0500001e-05,1.5250001e-05,-6.1000002e-05,1742092542.774146
0.00775,0.00625,0.25125,3.0500001e-05,1.5250001e-05,-4.575e-05,1742092542.788321
0.0075,0.00625,0.25125,3.0500001e-05,1.5250001e-05,-4.575e-05,1742092542.8025658
0.0075,0.00625,0.25125,1.5250001e-05,1.5250001e-05,-6.1000002e-05,1742092542.81733
0.00775,0.00625,0.2515,1.5250001e-05,3.0500001e-05,-6.1000002e-05,1742092542.8310442
0.00775,0.0065,0.25125,1.5250001e-05,1.5250001e-05,-6.1000002e-05,1742092542.846171
0.00775,0.0065,0.25125,3.0500001e-05,1.5250001e-05,-6.1000002e-05,1742092542.8599129
0.0075,0.0065,0.25125,3.0500001e-05,3.0500001e-05,-6.1000002e-05,1742092542.874076
0.00725,0.0065,0.25125,3.0500001e-05,3.0500001e-05,-6.1000002e-05,1742092542.888324
0.0075,0.0065,0.25125,3.0500001e-05,1.5250001e-05,-6.1000002e-05,1742092542.902577
0.0075,0.007,0.251,1.5250001e-05,1.5250001e-05,-7.625e-05,1742092542.917572
0.0075,0.00675,0.25125,0.0,0.0,-6.1000002e-05,1742092542.931061
0.0075,0.0065,0.25175,0.0,0.0,-4.575e-05,1742092542.946302
0.0075,0.0065,0.2515,0.0,0.0,-3.0500001e-05,1742092542.9595141
0.0075,0.0065,0.25125,1.5250001e-05,0.0,-4.575e-05,1742092542.9738681
0.0075,0.0065,0.2515,3.0500001e-05,0.0,-4.575e-05,1742092542.988044
0.00725,0.0065,0.2515,1.5250001e-05,1.5250001e-05,-6.1000002e-05,1742092543.002431
0.007,0.0065,0.25125,1.5250001e-05,1.5250001e-05,-7.625e-05,1742092543.0177379
0.00725,0.0065,0.25125,3.0500001e-05,1.5250001e-05,-7.625e-05,1742092543.0310469
0.0075,0.0065,0.25125,1.5250001e-05,3.0500001e-05,-7.625e-05,1742092543.0465002
0.0075,0.0065,0.2515,1.5250001e-05,3.0500001e-05,-7.625e-05,1742092543.059576
0.0075,0.0065,0.2515,1.5250001e-05,1.5250001e-05,-3.0500001e-05,1742092543.073934
0.00725,0.0065,0.25125,4.575e-05,1.5250001e-05,0.0,1742092543.0881531
0.00725,0.00625,0.25125,1.5250001e-05,1.5250001e-05,-3.0500001e-05,1742092543.1024551
0.0075,0.00625,0.25125,1.5250001e-05,1.5250001e-05,-6.1000002e-05,1742092543.1179898
0.00725,0.0065,0.25125,1.5250001e-05,1.5250001e-05,-7.625e-05,1742092543.1310048
0.00725,0.0065,0.2515,0.0,1.5250001e-05,-7.625e-05,1742092543.146562
0.0075,0.0065,0.25175,0.0,1.5250001e-05,-6.1000002e-05,1742092543.159429
0.0075,0.0065,0.2515,1.5250001e-05,1.5250001e-05,-4.575e-05,1742092543.173764
0.00725,0.0065,0.25125,3.0500001e-05,3.0500001e-05,-4.575e-05,1742092543.188083
0.00725,0.0065,0.25125,3.0500001e-05,1.5250001e-05,-7.625e-05,1742092543.2024891
0.0075,0.00625,0.25125,3.0500001e-05,1.5250001e-05,-7.625e-05,1742092543.218124
0.0075,0.00625,0.2515,3.0500001e-05,1.5250001e-05,-6.1000002e-05,1742092543.2310379
0.0075,0.00625,0.2515,0.0,0.0,-6.1000002e-05,1742092543.2465549
0.00725,0.00675,0.25125,0.0,0.0,-6.1000002e-05,1742092543.259535
0.007,0.00675,0.25125,1.5250001e-05,1.5250001e-05,-7.625e-05,1742092543.2736661
0.00725,0.0065,0.25125,3.0500001e-05,1.5250001e-05,-6.1000002e-05,1742092543.287872
0.00725,0.0065,0.25125,1.5250001e-05,1.5250001e-05,-6.1000002e-05,1742092543.302047
0.0075,0.0065,0.2515,1.5250001e-05,3.0500001e-05,-4.575e-05,1742092543.317893
0.0075,0.0065,0.25175,3.0500001e-05,1.5250001e-05,-4.575e-05,1742092543.330821
0.0075,0.0065,0.2515,3.0500001e-05,0.0,-6.1000002e-05,1742092543.345058
0.0075,0.0065,0.2515,3.0500001e-05,0.0,-6.1000002e-05,1742092543.359466
0.0075,0.0065,0.25125,3.0500001e-05,1.5250001e-05,-6.1000002e-05,1742092543.373755
0.00725,0.00625,0.2515,3.0500001e-05,1.5250001e-05,-7.625e-05,1742092543.388075
0.0075,0.006,0.2515,1.5250001e-05,1.5250001e-05,-7.625e-05,1742092543.402336
0.00775,0.0065,0.2515,0.0,1.5250001e-05,-6.1000002e-05,1742092543.4170518
0.0075,0.00625,0.2515,0.0,1.5250001e-05,-4.575e-05,1742092543.430746
0.0075,0.00625,0.2515,0.0,1.5250001e-05,-4.575e-05,1742092543.4450471
0.00775,0.0065,0.251,1.5250001e-05,1.5250001e-05,-4.575e-05,1742092543.45932
0.0075,0.0065,0.25125,3.0500001e-05,1.5250001e-05,-6.1000002e-05,1742092543.473525
0.007,0.0065,0.2515,3.0500001e-05,1.5250001e-05,-4.575e-05,1742092543.4879239
0.007,0.00625,0.25125,3.0500001e-05,3.0500001e-05,-4.575e-05,1742092543.5023282
0.0075,0.006,0.25125,1.5250001e-05,3.0500001e-05,-6.1000002e-05,1742092543.517783
0.0075,0.00625,0.2515,1.5250001e-05,3.0500001e-05,-6.1000002e-05,1742092543.530839
0.0075,0.00625,0.2515,1.5250001e-05,3.0500001e-05,-3.0500001e-05,1742092543.545107
0.00775,0.0065,0.2515,3.0500001e-05,1.5250001e-05,-4.575e-05,1742092543.559354
0.00775,0.0065,0.2515,4.575e-05,1.5250001e-05,-6.1000002e-05,1742092543.573667
0.0075,0.0065,0.2515,3.0500001e-05,1.5250001e-05,-6.1000002e-05,1742092543.587899
0.00725,0.0065,0.25125,1.5250001e-05,1.5250001e-05,-6.1000002e-05,1742092543.602079
0.00725,0.0065,0.251,1.5250001e-05,1.5250001e-05,-4.575e-05,1742092543.617493
0.00725,0.0065,0.25125,3.0500001e-05,1.5250001e-05,-4.575e-05,1742092543.6304698
0.0075,0.0065,0.2515,3.0500001e-05,1.5250001e-05,-6.1000002e-05,1742092543.64475
0.00725,0.0065,0.25125,3.0500001e-05,1.5250001e-05,-6.1000002e-05,1742092543.659054
0.00725,0.0065,0.25125,3.0500001e-05,1.5250001e-05,-6.1000002e-05,1742092543.673339
0.00725,0.006,0.2515,1.5250001e-05,1.5250001e-05,-4.575e-05,1742092543.687538
0.0075,0.00625,0.2515,1.5250001e-05,0.0,-4.575e-05,1742092543.701731
0.00725,0.0065,0.25125,1.5250001e-05,1.5250001e-05,-6.1000002e-05,1742092543.71678
0.0075,0.0065,0.2515,1.5250001e-05,0.0,-7.625e-05,1742092543.730359
0.0075,0.0065,0.2515,1.5250001e-05,0.0,-6.1000002e-05,1742092543.744689
0.0075,0.0065,0.25125,3.0500001e-05,1.5250001e-05,-6.1000002e-05,1742092543.758952
0.0075,0.0065,0.25125,1.5250001e-05,1.5250001e-05,-4.575e-05,1742092543.773342
0.00725,0.0065,0.25125,1.5250001e-05,1.5250001e-05,-6.1000002e-05,1742092543.7875578
0.00725,0.0065,0.2515,1.5250001e-05,3.0500001e-05,-6.1000002e-05,1742092543.8018692
0.007,0.0065,0.25125,0.0,3.0500001e-05,-7.625e-05,1742092543.817229
0.00725,0.0065,0.251,1.5250001e-05,1.5250001e-05,-7.625e-05,1742092543.8304389
0.0075,0.00625,0.25125,3.0500001e-05,1.5250001e-05,-4.575e-05,1742092543.844764
0.00775,0.00625,0.2515,3.0500001e-05,0.0,-6.1000002e-05,1742092543.85902
0.008,0.0065,0.25125,1.5250001e-05,1.5250001e-05,-7.625e-05,1742092543.873437
0.0075,0.0065,0.2515,3.0500001e-05,1.5250001e-05,-6.1000002e-05,1742092543.8878322
0.00725,0.0065,0.2515,3.0500001e-05,1.5250001e-05,-4.575e-05,1742092543.9021819
0.0075,0.0065,0.2515,3.0500001e-05,1.5250001e-05,-6.1000002e-05,1742092543.9173691
0.0075,0.00675,0.25125,1.5250001e-05,0.0,-6.1000002e-05,1742092543.930551
0.00725,0.0065,0.25125,3.0500001e-05,0.0,-6.1000002e-05,1742092543.9448671
0.00725,0.00625,0.25125,3.0500001e-05,0.0,-6.1000002e-05,1742092543.959035
0.007,0.00625,0.25125,3.0500001e-05,0.0,-6.1000002e-05,1742092543.9733372
0.00725,0.0065,0.25125,1.5250001e-05,3.0500001e-05,-4.575e-05,1742092543.987869
0.007,0.00675,0.25125,1.5250001e-05,1.5250001e-05,-6.1000002e-05,1742092544.002044
0.007,0.007,0.25125,1.5250001e-05,1.5250001e-05,-6.1000002e-05,1742092544.01733
0.007,0.00675,0.25125,3.0500001e-05,1.5250001e-05,-6.1000002e-05,1742092544.030561
0.00725,0.0065,0.25125,3.0500001e-05,3.0500001e-05,-6.1000002e-05,1742092544.0449762
0.00775,0.0065,0.2515,3.0500001e-05,1.5250001e-05,-6.1000002e-05,1742092544.059149
0.00775,0.00625,0.2515,3.0500001e-05,1.5250001e-05,-6.1000002e-05,1742092544.07331
0.00775,0.00625,0.2515,1.5250001e-05,3.0500001e-05,-6.1000002e-05,1742092544.0875342
0.00775,0.006,0.2515,3.0500001e-05,3.0500001e-05,-6.1000002e-05,1742092544.1017642
0.00775,0.006,0.2515,1.5250001e-05,1.5250001e-05,-7.625e-05,1742092544.117322
0.0075,0.0065,0.2515,1.5250001e-05,3.0500001e-05,-7.625e-05,1742092544.130336
0.00725,0.0065,0.25125,1.5250001e-05,1.5250001e-05,-6.1000002e-05,1742092544.1446788
0.00725,0.0065,0.2515,1.5250001e-05,0.0,-6.1000002e-05,1742092544.158924
0.0075,0.00675,0.2515,1.5250001e-05,0.0,-6.1000002e-05,1742092544.173207
0.0075,0.0065,0.25175,3.0500001e-05,1.5250001e-05,-4.575e-05,1742092544.1874938
0.00725,0.00625,0.25125,3.0500001e-05,1.5250001e-05,-4.575e-05,1742092544.20173
0.0075,0.006,0.25125,1.5250001e-05,1.5250001e-05,-6.1000002e-05,1742092544.2159932
0.007,0.0065,0.2515,1.5250001e-05,1.5250001e-05,-6.1000002e-05,1742092544.230248
0.00725,0.0065,0.25125,1.5250001e-05,1.5250001e-05,-6.1000002e-05,1742092544.244551
0.00725,0.00625,0.251,1.5250001e-05,3.0500001e-05,-6.1000002e-05,1742092544.258889
0.00725,0.00625,0.2515,1.5250001e-05,3.0500001e-05,-6.1000002e-05,1742092544.273054
0.00725,0.00625,0.252,3.0500001e-05,3.0500001e-05,-6.1000002e-05,1742092544.287355
0.0085,0.00725,0.2505,-0.00010675,-9.15e-05,-0.00024425,1742092544.301854
0.00675,0.00525,0.25125,-0.00016775,-0.00042725,0.0028229998,1742092544.316111
0.01475,0.03675,0.25025,0.001114,-0.00013725001,0.00738525,1742092544.330325
0.01275,0.03725,0.2485,-0.00016775,-0.0002135,0.00064075,1742092544.344702
0.02025,0.0285,0.251,-0.00039675,-0.00048825,-0.0003815,1742092544.3591738
0.0245,0.0335,0.25075,7.625e-05,-0.0004425,0.00119025,1742092544.373452
0.028,0.04125,0.2505,0.00036625,-0.000412,0.0038605002,1742092544.3877661
0.02725,0.051,0.24975,0.0002595,-0.00059500005,0.0025940002,1742092544.4020438
0.0225,0.04625,0.2495,-9.15e-05,-0.00115975,-0.00334175,1742092544.417282
0.00575,0.0195,0.25175,4.575e-05,-0.0012665,-0.00587475,1742092544.430872
-0.00775,0.00475,0.25125,-0.00027475,-0.00125125,-0.008926501,1742092544.446165
-0.031,-0.02525,0.2525,-0.00033575002,-0.001068,-0.00975025,1742092544.459896
-0.036,-0.03625,0.25125,-9.15e-05,-0.00083925005,-0.0097045,1742092544.47452
-0.02825,-0.04225,0.25175,-0.00033575002,-0.000412,-0.00720225,1742092544.489264
0.00175,-0.037,0.2525,-0.0003205,-0.00027475,-0.0052337497,1742092544.503842
0.009,-0.03475,0.252,0.00010675,-1.5250001e-05,-0.00198375,1742092544.518233
0.01075,-0.01475,0.252,0.000229,7.625e-05,0.00099175,1742092544.5324109
0.009,0.00225,0.25175,6.1000002e-05,0.000122000005,0.0037079998,1742092544.546701
0.0105,0.01925,0.251,-3.0500001e-05,9.15e-05,0.00331125,1742092544.560941
0.015,0.02325,0.251,0.0005645,7.625e-05,0.00317375,1742092544.575257
0.025,0.0335,0.252,0.00057975,-6.1000002e-05,0.00328075,1742092544.5895622
0.02825,0.03775,0.25075,0.00051875,-0.000183,0.0031585,1742092544.6039019
0.0295,0.03725,0.24875,0.0005035,-0.00029,0.00109875,1742092544.618171
0.026,0.03025,0.252,0.00048825,-0.00016775,0.00065625,1742092544.632373
0.028,0.03075,0.2515,0.00048825,-0.000473,0.00027475,1742092544.646781
-0.015,-0.011,0.2545,0.00029,-0.00062550005,-0.0009765,1742092544.661251
-0.0705,-0.05775,0.253,0.0012970001,-4.575e-05,0.008133001,1742092544.67584
-0.03075,-0.0445,0.25175,0.0014495,0.000824,0.00941475,1742092544.6902568
