acc_x,acc_y,acc_z,gyro_x,gyro_y,gyro_z,timestamp
0.24575,0.00125,-0.00075,0.00090025004,0.00035100002,-0.00169375,1742092547.402752
0.24825,-0.00075,0.00125,0.00016775,0.00074775,9.15e-05,1742092547.416424
0.24775,0.00075,0.00175,3.0500001e-05,0.00070200005,0.0001525,1742092547.4296262
0.2445,0.00175,-0.00075,1.5250001e-05,0.00059500005,-0.00067150005,1742092547.444009
0.241,0.0005,-0.00325,0.00013725001,0.0003815,-0.00109875,1742092547.459892
0.242,0.00175,-0.00175,0.000412,1.5250001e-05,-0.0016175,1742092547.4726331
0.24175,0.00325,0.001,0.0003815,0.00010675,-0.0018005001,1742092547.4869728
0.2405,0.001,0.00075,0.00016775,0.00019825,-0.00184625,1742092547.5011861
0.23925,-0.0015,-0.00075,-0.00016775,-7.625e-05,-0.0012970001,1742092547.517175
0.24025,-0.0065,-0.0005,-9.15e-05,-0.00024425,-0.001007,1742092547.53052
0.24,-0.00725,0.00075,0.0005645,-0.0003205,-0.0012970001,1742092547.5449479
0.23675,-0.00325,0.001,0.00083925005,-0.00039675,-0.0016785001,1742092547.5594509
0.23525,-0.00325,0.00025,0.000885,-0.0004425,-0.00216675,1742092547.573921
0.23475,-0.004,-0.0,0.0007935,-0.000473,-0.0022277501,1742092547.588494
0.23525,-0.00375,0.0,0.00057975,-0.00074775,-0.0017852499,1742092547.602893
0.23725,-0.0015,0.0015,0.00051875,-0.00093075,-0.0016785001,1742092547.618222
0.238,-0.00075,0.003,0.000534,-0.0009765,-0.00190725,1742092547.6319098
0.23875,0.00275,0.00275,0.0003815,-0.000824,-0.0027160002,1742092547.646774
0.238,0.004,0.00025,-7.625e-05,-0.0007935,-0.0027465,1742092547.660827
0.24075,0.003,-0.00425,-0.0016785001,-0.001007,-0.00239575,1742092547.6764889
0.27475,-0.0035,-0.022,-0.0025025,-0.00115975,-0.0027312501,1742092547.690086
0.3185,-0.00125,-0.03175,-0.00369275,-0.00062550005,-0.00491325,1742092547.705997
0.508,0.0315,-0.049,-0.0033570002,3.0500001e-05,-0.00788875,1742092547.7191942
0.66675,0.0335,-0.06975,-0.00057975,0.0032655,-0.019439751,1742092547.7336488
0.9495,-0.1205,-0.08825,0.0041504996,0.00817875,-0.020934999,1742092547.74814
1.0,-0.1905,-0.055,0.016570998,0.0273895,0.00143425,1742092547.7625542
0.86275,-0.103,0.06125,0.018615749,0.03996275,0.019638,1742092547.776832
0.719,-0.02775,0.09975,0.015854,0.05296325,0.035293497,1742092547.7911081
0.54075,-0.00025,0.1,0.009292499,0.07743825,0.045761,1742092547.806637
0.0955,-0.01225,0.02075,0.009948749,0.08380125,0.043258753,1742092547.819815
-0.108,-0.0025,-0.01125,0.009842,0.07519525,0.037201,1742092547.834338
-0.30225,-0.06275,0.01075,0.010513251,0.0620575,0.028411752,1742092547.848618
-0.32225,-0.11625,0.04125,0.01805125,0.032669,0.00354,1742092547.862907
-0.2965,-0.12425,0.0895,0.018737748,0.021286,-0.0024414998,1742092547.87742
-0.269,-0.07575,0.08125,0.0168305,0.01324475,-0.0046539996,1742092547.8921149
-0.244,-0.009,0.05175,0.011383001,-0.00231925,-0.00833125,1742092547.907007
-0.15225,0.10525,-0.02825,0.008194,-0.0099639995,-0.0072937496,1742092547.9212742
-0.07775,0.13625,-0.0405,0.0033570002,-0.014785751,-0.0026854998,1742092547.936734
0.086,0.14175,-0.03,0.00148,-0.016296498,-0.0051269997,1742092547.95022
0.1525,0.123,-0.0275,0.00024425,-0.02009575,-0.015396,1742092547.964629
0.24025,0.075,-0.03325,-0.00033575002,-0.0196075,-0.0173645,1742092547.979083
0.2715,0.04325,-0.03775,-0.0021819999,-0.014267,-0.014510999,1742092547.99373
0.3125,-0.0145,-0.055,-0.0023497501,-0.012176501,-0.0129395,1742092548.008416
0.31725,-0.02875,-0.06175,-0.00228875,-0.01095575,-0.01216125,1742092548.023005
0.3085,-0.03275,-0.06175,-0.00302125,-0.008941749,-0.010879501,1742092548.037666
0.29475,-0.02775,-0.06175,-0.0035095,-0.0078735,-0.009613,1742092548.052248
0.278,-0.02325,-0.06275,-0.00411975,-0.0060577504,-0.0076905,1742092548.067756
0.23825,-0.02075,-0.06825,-0.00416575,-0.00535575,-0.00737,1742092548.0816362
0.21675,-0.018,-0.07275,-0.00411975,-0.0046234997,-0.0070647504,1742092548.0967581
0.17825,-0.016,-0.086,-0.00419625,-0.0050812503,-0.0063325,1742092548.110923
0.1675,-0.0195,-0.09375,-0.0040587503,-0.008026,-0.0034637498,1742092548.1266692
0.168,-0.015,-0.095,-0.0033570002,-0.0100707505,-0.002121,1742092548.1402822
0.17825,-0.0045,-0.0835,-0.00148,-0.0139465,-0.0017852499,1742092548.154897
0.20525,0.011,-0.05475,-0.00112925,-0.015396,-0.00239575,1742092548.169518
0.215,0.011,-0.045,-0.00137325,-0.01670825,-0.00411975,1742092548.184034
0.2245,-0.00275,-0.039,-0.0013885,-0.016693002,-0.004837,1742092548.198661
0.226,-0.01125,-0.04125,-0.00115975,-0.01640325,-0.0051269997,1742092548.213284
0.229,-0.01475,-0.04925,-0.00045775,-0.0158385,-0.0041810004,1742092548.227933
0.2335,-0.00825,-0.048,-0.00065625,-0.016143749,-0.0028687501,1742092548.2426162
0.24025,0.0015,-0.04275,-0.0015565,-0.01678475,-0.00035100002,1742092548.257153
0.24575,0.01125,-0.03675,-0.001526,-0.016327,-9.15e-05,1742092548.271687
0.24375,0.008,-0.035,-0.00062550005,-0.014923001,-0.00071725,1742092548.286185
0.24625,-0.007,-0.03025,-0.00010675,-0.01475525,-0.0012055,1742092548.30081
0.247,-0.012,-0.0285,0.00093075,-0.0153502505,-0.0014495,1742092548.3169222
0.24525,-0.00775,-0.02325,0.001114,-0.015625,-0.0009155,1742092548.32998
0.24775,0.00025,-0.01625,0.001236,-0.014419501,-0.0004425,1742092548.344403
0.24825,0.0085,-0.0065,0.001175,-0.013503999,-0.0007935,1742092548.358825
0.24225,0.00525,-0.00725,0.00099175,-0.012909001,-0.00119025,1742092548.3732831
0.236,-0.00025,-0.00925,0.000534,-0.012909001,-0.00125125,1742092548.387806
0.23225,-0.012,-0.00725,0.000534,-0.013336251,-0.001007,1742092548.4023712
0.236,-0.01275,-0.002,0.00163275,-0.0141145,-0.00102225,1742092548.41783
0.246,0.00675,0.01775,0.0022125002,-0.014800999,-0.00074775,1742092548.431096
0.246,0.01575,0.01825,0.00119025,-0.015090999,0.001419,1742092548.446605
0.24825,0.01775,0.02275,0.00019825,-0.013839751,0.00108325,1742092548.4595299
0.2455,0.014,0.01975,-0.00013725001,-0.013153,-0.00071725,1742092548.4739141
0.24525,0.00475,0.01825,0.000763,-0.01351925,-0.005844,1742092548.488427
0.24825,-0.002,0.02075,0.0015105,-0.01361075,-0.0077515002,1742092548.502944
0.2515,-0.0115,0.02225,0.002655,-0.01316825,-0.009552,1742092548.517602
0.253,-0.02625,0.02325,0.0029145,-0.013000499,-0.009002751,1742092548.5319319
0.2505,-0.02325,0.02375,0.00201425,-0.013183501,-0.00561525,1742092548.546787
0.25475,-0.00975,0.03125,0.00086975005,-0.01316825,-0.00355525,1742092548.560849
0.25725,-0.005,0.034,-0.0003815,-0.01197825,-0.0015105,1742092548.576323
0.24925,-0.00325,0.029,-0.000534,-0.0114440005,-0.0014495,1742092548.5899909
0.24375,-0.00625,0.0255,-0.00051875,-0.01136775,-0.0012817499,1742092548.604563
0.243,-0.01225,0.02325,-0.00035100002,-0.011673001,-0.0012055,1742092548.619093
0.25425,-0.0135,0.02375,-0.00016775,-0.012085,-0.00115975,1742092548.633483
0.279,-0.00925,0.0265,0.00057975,-0.01136775,-0.00051875,1742092548.6478982
0.3665,0.012,0.036,0.001175,-0.00883475,-0.0003815,1742092548.662264
0.43625,0.0245,0.03175,0.0020905002,-0.00070200005,-0.00201425,1742092548.6770492
0.6375,0.027,0.03525,0.0020905002,0.0036315,-0.00411975,1742092548.691005
0.789,-0.017,0.032,0.002411,0.010162249,-0.0039215,1742092548.7067242
1.0,-0.10775,0.08775,0.006363,0.0128632495,0.001648,1742092548.719651
1.0,-0.083,0.1555,0.012130749,0.0184785,0.00717175,1742092548.7340438
1.0,-0.0345,0.22275,0.01380925,0.039199747,0.015625,1742092548.74819
0.78475,0.05875,0.27875,0.0075072497,0.05104075,0.023346001,1742092548.7623198
0.573,0.06525,0.2475,-0.0019225,0.074005246,0.040283248,1742092548.776547
0.0795,-0.03025,0.09125,0.0005645,0.0823365,0.042419497,1742092548.790915
-0.1505,-0.05475,0.0325,0.00817875,0.0766145,0.03182975,1742092548.8066308
-0.4235,-0.03575,0.005,0.0058287503,0.06359875,0.02250675,1742092548.819784
-0.44175,-0.0585,0.0115,0.00112925,0.049743753,0.0150605,1742092548.834236
-0.421,-0.11175,0.0365,-0.00077825,0.02864075,0.00340275,1742092548.848608
-0.3565,-0.19325,0.0385,0.002533,0.019699,-0.00239575,1742092548.8631291
-0.3125,-0.17025,0.0215,0.00531,0.00016775,-0.006073,1742092548.8775501
-0.1705,-0.045,-0.0085,0.00440975,-0.0089875,-0.006073,1742092548.89208
-0.08075,0.01475,-0.024,0.00115975,-0.02064525,-0.008926501,1742092548.906842
0.094,0.086,-0.026,-0.00057975,-0.023040751,-0.00997925,1742092548.921227
0.172,0.09975,-0.015,-0.0032195,-0.0246125,-0.01165775,1742092548.936636
0.30275,0.0795,-0.006,-0.0038757501,-0.023956249,-0.011825499,1742092548.9502988
0.3485,0.0545,-0.00125,-0.00372325,-0.021881001,-0.011306751,1742092548.964771
0.378,0.03025,0.00775,-0.002365,-0.01412975,-0.0093385,1742092548.9792051
0.3855,-0.00675,0.019,-0.00228875,-0.009597749,-0.0078125,1742092548.993769
0.3655,-0.021,0.0105,-0.0029907501,-0.002365,-0.00466925,1742092549.008273
0.30325,-0.02475,-0.02825,-0.00352475,-0.00010675,-0.003128,1742092549.022926
0.27125,-0.01575,-0.0445,-0.0040435,0.0011445,-0.00090025004,1742092549.037472
0.227,0.00025,-0.05525,-0.00396725,0.00061025,-0.000763,1742092549.05181
0.21425,0.001,-0.05575,-0.00328075,-0.0013427499,-0.002121,1742092549.0678232
0.2,-0.009,-0.05475,-0.0025940002,-0.0025634998,-0.002884,1742092549.080917
0.19825,-0.01625,-0.05275,-0.0019225,-0.00381475,-0.003128,1742092549.0969222
0.20125,-0.01,-0.04725,-0.00137325,-0.006012,-0.00157175,1742092549.11008
0.20725,0.00325,-0.041,-0.0013275,-0.0067902496,-0.00068675,1742092549.124618
0.214,0.0145,-0.03575,-0.0020599999,-0.00845325,0.00019825,1742092549.13891
0.22125,0.0195,-0.028,-0.0022277501,-0.008788999,-0.0001525,1742092549.153505
0.22375,0.01275,-0.026,-0.0028074998,-0.008209251,-0.00062550005,1742092549.16797
0.21825,-0.0085,-0.028,-0.00225825,-0.007553,-0.000885,1742092549.182631
0.2135,-0.0145,-0.03,-4.575e-05,-0.00798025,-0.0017242499,1742092549.197262
0.21475,-0.00725,-0.02975,0.0008545,-0.0088805,-0.002243,1742092549.2117918
0.21925,0.004,-0.02675,0.0013580001,-0.010147001,-0.00355525,1742092549.226311
0.22775,0.0125,-0.022,0.00102225,-0.01048275,-0.00413525,1742092549.2406259
0.2325,0.00175,-0.01925,0.00070200005,-0.010727,-0.0043944996,1742092549.256563
0.23475,-0.0125,-0.01725,0.0012665,-0.01019275,-0.00434875,1742092549.269537
0.2315,-0.025,-0.017,0.001892,-0.009613,-0.004013,1742092549.284114
0.227,-0.021,-0.0165,0.0019225,-0.009552,-0.0023345,1742092549.298639
0.2315,-0.001,-0.0065,0.0013885,-0.00982675,-0.001526,1742092549.313189
0.23625,0.008,-0.004,0.00016775,-0.00997925,-0.00061025,1742092549.327631
0.237,0.014,-0.01,-0.00062550005,-0.009903,-4.575e-05,1742092549.34219
0.23625,0.013,-0.0115,-0.0013275,-0.009719751,0.000473,1742092549.3568268
0.241,0.011,0.0,-0.00057975,-0.0104065,0.0005035,1742092549.3710122
0.24175,0.00525,0.005,0.0002135,-0.012741,0.0016632499,1742092549.3865879
0.2455,-0.00375,0.006,0.000763,-0.01496875,0.001068,1742092549.3995142
0.259,-0.013,0.01625,0.0018615,-0.01361075,-0.00146475,1742092549.414094
0.2645,-0.00975,0.024,0.0045012496,-0.01098625,-0.00561525,1742092549.42851
0.271,-0.00325,0.033,0.0056915004,-0.009521499,-0.006836,1742092549.442892
0.26875,-0.003,0.03125,0.0074004997,-0.0065612504,-0.0091705,1742092549.4574971
0.25675,-0.009,0.0215,0.0075072497,-0.0057677496,-0.00918575,1742092549.4719281
0.25025,-0.01425,0.018,0.0062255003,-0.0054780003,-0.0055237496,1742092549.486549
0.24175,-0.025,0.0185,0.00517275,-0.0057220003,-0.0031127501,1742092549.5008278
0.2435,-0.029,0.02275,0.0042267498,-0.0060577504,-0.00102225,1742092549.515188
0.2485,-0.0295,0.02825,0.00408925,-0.00567625,0.00048825,1742092549.529554
0.249,-0.0205,0.03075,0.0049895,-0.0050202496,-0.0002595,1742092549.5440042
0.24375,-0.01375,0.02775,0.00585925,-0.0049742498,-0.00216675,1742092549.558441
0.233,-0.006,0.01975,0.00517275,-0.0057677496,-0.00228875,1742092549.572951
0.22725,-0.00525,0.01675,0.0024414998,-0.007965,-0.00102225,1742092549.587418
0.232,-0.00025,0.02175,0.00131225,-0.00935375,-0.00024425,1742092549.601913
0.24175,0.007,0.02675,0.00080875,-0.01077275,0.000183,1742092549.6178508
0.251,0.01675,0.02875,0.000229,-0.013153,7.625e-05,1742092549.630486
0.27925,0.03375,0.03275,-0.00137325,-0.014724749,0.000183,1742092549.64504
0.313,0.0355,0.04475,-0.007309,-0.017028749,-6.1000002e-05,1742092549.6594071
0.41775,0.00325,0.06475,-0.00874325,-0.016693002,-0.00154125,1742092549.673811
0.48575,-0.02475,0.0655,-0.00469975,-0.01501475,-0.00570675,1742092549.688312
0.685,-0.04375,0.074,-0.0010375,-0.01380925,-0.00617975,1742092549.702778
0.81475,-0.038,0.102,0.0037995,-0.008514499,-0.0056304997,1742092549.717403
1.0,-0.05475,0.22825,0.0065307496,-0.002472,-0.006012,1742092549.731839
1.0,-0.07525,0.28775,0.009643501,0.007599,-0.0058899997,1742092549.7468312
1.0,-0.0705,0.32125,0.0080567505,0.0382995,0.00897225,1742092549.760322
0.829,0.03675,0.331,0.0031585,0.05476375,0.0229645,1742092549.774608
0.64125,0.082,0.31525,-0.0048217503,0.08341975,0.036789,1742092549.7890089
0.1495,0.01025,0.1945,-0.00646975,0.092636004,0.034851003,1742092549.80322
-0.11625,-0.05725,0.1265,-0.008773751,0.093216,0.0306245,1742092549.818322
-0.493,-0.147,0.0555,-0.009658749,0.08418275,0.02636725,1742092549.832078
-0.58825,-0.18125,0.013,-0.007782,0.072403,0.0185395,1742092549.8469398
-0.62075,-0.21975,-0.03575,0.0028229998,0.04492175,0.001419,1742092549.861038
-0.52375,-0.2295,-0.058,0.00801075,0.028854249,-0.0022125002,1742092549.8764539
-0.427,-0.16675,-0.03625,0.010818499,3.0500001e-05,-1.5250001e-05,1742092549.890434
-0.19025,0.0415,-0.02125,0.009201,-0.01054375,0.0003205,1742092549.905015
-0.0665,0.132,-0.0275,0.00494375,-0.021789499,-0.00662225,1742092549.919531
0.15825,0.1945,-0.0125,0.002777,-0.023117,-0.011550999,1742092549.9341388
0.243,0.17525,0.00475,-0.0016175,-0.019592252,-0.017517,1742092549.9484868
0.3425,0.0875,0.01175,-0.00296025,-0.01596075,-0.01744075,1742092549.962937
0.3645,0.04175,0.00175,-0.0031889998,-0.012085,-0.01570125,1742092549.977437
0.361,-0.006,-0.017,-0.0025634998,-0.0045777503,-0.0091705,1742092549.991959
0.3455,-0.009,-0.0205,-0.00279225,-0.00163275,-0.00596625,1742092550.006925
0.3235,-0.0075,-0.025,-0.00390625,0.002472,-0.00343325,1742092550.021198
0.26025,-0.009,-0.05,-0.0044555003,0.00390625,-0.00331125,1742092550.0371299
0.2265,-0.012,-0.06425,-0.0048979996,0.0041810004,-0.00372325,1742092550.0505211
0.1765,-0.02125,-0.0785,-0.00463875,0.00263975,-0.0043335,1742092550.065055
0.1635,-0.02725,-0.07625,-0.0035704998,-0.001953,-0.0054932497,1742092550.079696
0.1515,-0.03525,-0.06625,-0.00325,-0.00393675,-0.00505075,1742092550.094327
0.1525,-0.03275,-0.06625,-0.0033264998,-0.0068207504,-0.002121,1742092550.1088939
0.16325,-0.0065,-0.07,-0.0034637498,-0.008270251,-0.00059500005,1742092550.123595
0.175,0.0105,-0.0645,-0.0045165,-0.011383001,0.0012665,1742092550.1381052
0.20025,0.0205,-0.0445,-0.0047455,-0.012267999,0.00083925005,1742092550.152489
0.2055,0.01275,-0.0365,-0.0045777503,-0.012634249,-0.0004425,1742092550.167828
0.205,0.00025,-0.03225,-0.0039215,-0.012924249,-0.00317375,1742092550.181473
0.2,-0.02725,-0.0305,-0.00352475,-0.01310725,-0.004013,1742092550.196969
0.19675,-0.037,-0.031,-0.003006,-0.014145001,-0.004242,1742092550.210717
0.19925,-0.03525,-0.03475,-0.0034484998,-0.015228249,-0.00369275,1742092550.226847
0.2125,-0.03075,-0.0335,-0.0038757501,-0.01744075,-0.00263975,1742092550.239895
0.23875,-0.01775,-0.022,-0.00302125,-0.01794425,-0.00276175,1742092550.2561731
0.24975,-0.01175,-0.012,-0.00137325,-0.01794425,-0.0042725,1742092550.269349
0.2665,-0.009,0.00375,-0.001068,-0.017501751,-0.0054475004,1742092550.283787
0.2695,-0.01225,0.0055,-0.001114,-0.016861,-0.00631725,1742092550.2982662
0.269,-0.0205,0.006,-0.00193775,-0.0152435,-0.0054932497,1742092550.3129249
0.26525,-0.02375,0.00475,-0.0020905002,-0.014434749,-0.0044555003,1742092550.3273978
0.26375,-0.024,0.005,-0.00119025,-0.0135955,-0.00267025,1742092550.341874
0.261,-0.009,0.005,-0.000534,-0.014053251,-0.001007,1742092550.3564951
0.26075,0.00275,0.00975,-0.0024872501,-0.013046251,0.0013275,1742092550.370742
0.2695,0.022,0.024,-0.003891,-0.01133725,0.00061025,1742092550.386724
0.2665,0.0175,0.02475,-0.0049742498,-0.009430001,-0.0031585,1742092550.399478
0.2635,-0.00925,0.026,-0.0048065,-0.008926501,-0.0050355,1742092550.4140182
0.26525,-0.0255,0.0295,-0.00396725,-0.008377,-0.006073,1742092550.428544
0.26,-0.04975,0.03075,-0.00062550005,-0.0068665,-0.0066374997,1742092550.44311
0.251,-0.04975,0.028,0.00064075,-0.006363,-0.006302,1742092550.4576042
0.24725,-0.04525,0.0255,-0.0014037499,-0.0072175004,-0.003296,1742092550.4721751
0.2555,-0.043,0.026,-0.0027465,-0.0075377496,-0.00148,1742092550.486743
0.2535,-0.04425,0.0265,-0.0016632499,-0.0070952503,-0.00071725,1742092550.501301
0.2455,-0.04675,0.0245,-0.00064075,-0.0070037497,-0.00108325,1742092550.517728
0.244,-0.04925,0.02525,0.00125125,-0.0070037497,-0.00157175,1742092550.530324
0.24625,-0.05075,0.029,0.00239575,-0.0068665,-0.0017395001,1742092550.54472
0.2455,-0.048,0.02975,0.003891,-0.0065765,-0.00148,1742092550.559094
0.24,-0.0425,0.02775,0.0036162501,-0.006668,-0.00083925005,1742092550.573615
0.2405,-0.04325,0.029,0.00283825,-0.0068512503,0.00016775,1742092550.588094
0.2425,-0.04325,0.031,0.0015105,-0.0068512503,0.0027312501,1742092550.6025221
0.24475,-0.0395,0.03175,0.0015105,-0.0065002497,0.00328075,1742092550.618117
0.24625,-0.03825,0.028,0.0025634998,-0.0060272496,0.0031585,1742092550.6311831
0.25225,-0.032,0.01975,0.0031889998,-0.00617975,0.0033875,1742092550.646664
0.2575,-0.02975,0.014,0.0041504996,-0.0070037497,0.0046234997,1742092550.6600351
0.2945,-0.017,0.01075,0.0046234997,-0.0076599997,0.0042725,1742092550.674322
0.33525,-0.00125,0.01525,0.00538625,-0.0081025,0.0023497501,1742092550.688617
0.3925,0.0215,0.021,0.0066374997,-0.00239575,-0.00488275,1742092550.7029812
0.60575,0.0565,0.01975,0.0047912505,0.00245675,-0.00817875,1742092550.71782
0.7635,0.054,0.026,-0.00267025,0.00029,-0.008606,1742092550.731669
0.99675,-0.02675,0.0785,-0.0031585,-0.00175475,-0.0079345,1742092550.746825
1.0,-0.09,0.10925,0.0013275,0.0143737495,-0.005539,1742092550.760747
0.9645,-0.13975,0.1755,0.00283825,0.02948,0.0012665,1742092550.776198
0.87,-0.1175,0.1985,0.0015105,0.05641175,0.02301025,1742092550.789226
0.59425,-0.0415,0.2085,0.0009765,0.065307505,0.029449498,1742092550.803495
0.43975,-0.01925,0.1955,0.00119025,0.0716095,0.03125,1742092550.8178198
0.27225,-0.0265,0.1715,3.0500001e-05,0.0791015,0.03237925,1742092550.832126
-0.0685,-0.08375,0.13425,-0.00096125,0.079422,0.03117375,1742092550.846976
-0.206,-0.10525,0.13725,0.002121,0.068344004,0.0190735,1742092550.8610291
-0.38775,-0.109,0.17325,0.0033875,0.05998225,0.01368725,1742092550.876561
-0.4215,-0.10575,0.16775,0.00154125,0.044616748,0.0052337497,1742092550.889708
-0.44125,-0.149,0.0625,0.0025025,0.037475497,-0.000122000005,1742092550.90406
-0.43775,-0.1565,-0.0125,0.0056609996,0.02876275,-0.0050965,1742092550.918595
-0.408,-0.09975,-0.07625,0.008941749,0.00328075,-0.0057372497,1742092550.933203
-0.21025,0.10875,-0.105,0.0063325,-0.01077275,-0.0047455,1742092550.947764
-0.06975,0.17325,-0.08925,0.00019825,-0.028,-0.012115501,1742092550.962206
0.157,0.16875,-0.0645,-0.00143425,-0.02832025,-0.01573175,1742092550.977247
0.23925,0.132,-0.0515,-0.0047455,-0.02082825,-0.01206975,1742092550.991304
0.3605,0.044,-0.0255,-0.00593575,-0.017120251,-0.0091705,1742092551.006827
0.3945,-0.0025,-0.0225,-0.0045625,-0.0102845,-0.00646975,1742092551.020864
0.3875,-0.05575,-0.03475,-0.0032347501,-0.00611875,-0.0044707498,1742092551.036839
0.362,-0.05525,-0.045,-0.0032655,-0.0021057501,-0.00177,1742092551.0502021
0.3,-0.04875,-0.07225,-0.0045625,0.00378425,0.0012207499,1742092551.064718
0.2635,-0.04975,-0.0875,-0.00390625,0.005249,0.00070200005,1742092551.079081
0.23075,-0.0495,-0.1,-0.00270075,0.00488275,0.000229,1742092551.093594
0.19475,-0.038,-0.11125,-0.002243,0.0034484998,0.0004425,1742092551.1080372
0.186,-0.02575,-0.10925,-0.001175,-0.0002595,0.0005645,1742092551.1225731
0.18375,-0.00475,-0.09275,-0.001007,-0.00198375,0.00071725,1742092551.137216
0.1835,-0.00225,-0.08475,-0.00059500005,-0.004013,0.0011445,1742092551.151696
0.17925,-0.002,-0.0745,-0.00064075,-0.0046539996,0.001709,1742092551.167109
0.181,0.00125,-0.071,-0.00149525,-0.0060425,0.0029449998,1742092551.1806872
0.195,0.00875,-0.065,-0.00190725,-0.00662225,0.0030669998,1742092551.195061
0.1995,0.012,-0.06475,-0.0022125002,-0.0070647504,0.00263975,1742092551.209514
0.2015,0.011,-0.06625,-0.00213625,-0.008072,-0.00010675,1742092551.224032
0.19975,-0.00425,-0.06575,-0.0013885,-0.008850001,-0.0020905002,1742092551.238673
0.19725,-0.0125,-0.064,-0.00051875,-0.010788,-0.004486,1742092551.253282
0.20125,-0.02175,-0.0625,-0.00099175,-0.0116425,-0.00437925,1742092551.2678242
0.207,-0.024,-0.0615,-0.0025940002,-0.012557999,-0.0017395001,1742092551.2824671
0.21175,-0.02325,-0.05675,-0.0030365,-0.01310725,-3.0500001e-05,1742092551.2972999
0.216,-0.01975,-0.052,-0.0018615,-0.01498425,0.00048825,1742092551.311689
0.22775,-0.00725,-0.03975,-0.00030525,-0.01525875,-0.00065625,1742092551.327004
0.229,-0.00225,-0.03475,0.00119025,-0.014267,-0.00242625,1742092551.3407738
0.22225,-0.01075,-0.029,0.00090025004,-0.01367175,-0.00225825,1742092551.356807
0.2205,-0.02025,-0.0265,0.00045775,-0.013336251,-0.001648,1742092551.369802
0.2215,-0.02575,-0.0245,0.00070200005,-0.01322925,-0.00083925005,1742092551.384361
0.22425,-0.017,-0.025,0.00102225,-0.013443,-0.00065625,1742092551.398858
0.2285,-0.0035,-0.02425,0.0007325,-0.0143737495,0.0,1742092551.413263
0.239,0.014,-0.016,0.0005035,-0.0148315,-0.00051875,1742092551.4277189
0.2465,0.01525,-0.0025,0.00024425,-0.0157775,-0.0016785001,1742092551.4421551
0.247,-0.003,-0.00575,-3.0500001e-05,-0.016540501,-0.000122000005,1742092551.456873
0.25,-0.01725,-0.00275,-0.0012665,-0.0139465,0.00048825,1742092551.471285
0.25475,-0.02075,-0.002,-0.00059500005,-0.012741,-0.0012207499,1742092551.4866638
0.25175,-0.01225,-0.006,0.000122000005,-0.01260375,-0.0032347501,1742092551.5005069
0.24975,-0.0045,-0.00875,0.000229,-0.013626001,-0.0047607496,1742092551.515158
0.25725,0.0015,0.0,0.00010675,-0.013916001,-0.00453175,1742092551.529464
0.26275,-0.0025,0.007,-9.15e-05,-0.01358025,-0.00358575,1742092551.54402
0.264,-0.022,0.01225,-6.1000002e-05,-0.01295475,-0.00289925,1742092551.558462
0.26175,-0.03,0.01075,0.00051875,-0.012039251,-0.00096125,1742092551.573088
0.2605,-0.027,0.01025,0.00065625,-0.01187125,0.00048825,1742092551.5875142
0.26175,-0.01875,0.01075,3.0500001e-05,-0.01142875,0.00378425,1742092551.602015
0.2645,-0.005,0.01225,-3.0500001e-05,-0.0110932505,0.0046234997,1742092551.617908
0.26875,0.00175,0.01675,0.00033575002,-0.01091,0.00440975,1742092551.630601
0.27375,0.00725,0.022,0.0020599999,-0.011321999,0.00108325,1742092551.644879
0.28425,0.006,0.0295,0.0029907501,-0.0115967505,-0.001175,1742092551.65932
0.29125,-0.00025,0.03,0.00437925,-0.010894749,-0.00413525,1742092551.673662
0.31025,-0.0055,0.02825,0.0045165,-0.00985725,-0.0039825,1742092551.688096
0.3225,0.00075,0.02875,0.003296,-0.0069885002,-0.00083925005,1742092551.7024488
0.3485,0.02425,0.0395,0.0029449998,-0.00543225,-1.5250001e-05,1742092551.7174678
0.35675,0.03325,0.03825,0.00355525,-0.0040435,-0.00054925,1742092551.731158
0.369,0.034,0.031,0.0061339997,-0.0020599999,-0.00175475,1742092551.747147
0.42125,0.0195,0.01725,0.0062255003,-0.000412,-0.0012817499,1742092551.759864
0.464,0.0175,0.01525,0.0033875,0.0032655,0.000229,1742092551.7741
0.56125,0.04375,0.013,0.002121,0.0048065,-0.00027475,1742092551.788367
0.61725,0.05675,0.01075,1.5250001e-05,0.00846875,-0.00543225,1742092551.80261
0.7175,0.01275,0.0185,-0.00035100002,0.012420749,-0.01004025,1742092551.817054
0.74925,-0.05675,0.035,-7.625e-05,0.017807,-0.013443,1742092551.831487
0.759,-0.12325,0.0585,0.0017242499,0.03158575,-0.003006,1742092551.846637
0.70825,-0.095,0.11625,0.00190725,0.03891,0.00788875,1742092551.86013
0.66125,-0.02775,0.15275,-0.00036625,0.05369575,0.0204925,1742092551.874631
0.439,0.01575,0.18725,-0.000824,0.061966,0.019455,1742092551.8889978
0.24675,0.00225,0.1665,-0.004013,0.0742035,0.01841725,1742092551.903263
-0.12175,-0.02025,0.10725,-0.0071409997,0.07510375,0.021164,1742092551.917683
-0.249,-0.0485,0.0775,-0.00671375,0.0646515,0.01879875,1742092551.93209
-0.35625,-0.21975,0.01375,-0.00131225,0.054443248,0.010604749,1742092551.946823
-0.35775,-0.287,-0.01525,0.0055695,0.042648252,0.0039825,1742092551.961129
-0.32775,-0.264,-0.022,0.01148975,0.0206605,0.00903325,1742092551.976366
-0.215,-0.029,-0.02525,0.011016751,0.01251225,0.012405501,1742092551.9900959
-0.15825,0.07275,-0.05375,0.0109709995,-0.00077825,0.0028687501,1742092552.004607
-0.032,0.14075,-0.1025,0.009582501,-0.0075682504,-0.0037537501,1742092552.019205
0.04225,0.13875,-0.09775,0.003891,-0.015442001,-0.0077667497,1742092552.0338151
0.17575,0.1045,-0.06175,0.001175,-0.015090999,-0.00668325,1742092552.048296
0.229,0.08025,-0.04525,-0.0029145,-0.011245751,-0.00396725,1742092552.0629041
0.2985,0.02225,-0.038,-0.004013,-0.0089569995,-0.0031127501,1742092552.077408
0.31625,-0.00475,-0.04725,-0.00416575,-0.006607,-0.0025634998,1742092552.092119
0.30975,-0.027,-0.07025,-0.0025634998,-0.0026092501,-0.0015565,1742092552.1067882
0.293,-0.02225,-0.079,-0.0019685,-0.00109875,-0.0015565,1742092552.121403
0.2735,-0.0105,-0.08525,-0.001526,0.00036625,-0.0021515,1742092552.13691
0.23875,0.0085,-0.09625,-0.00154125,0.00067150005,-0.0028535,1742092552.150325
0.21975,0.0065,-0.103,-0.00137325,0.00071725,-0.0034637498,1742092552.164821
0.19025,0.00225,-0.10725,-0.0014495,0.000122000005,-0.00283825,1742092552.179273
0.186,0.001,-0.103,-0.00213625,-0.0019225,-9.15e-05,1742092552.193813
0.1855,0.00375,-0.092,-0.00228875,-0.00292975,0.001068,1742092552.208268
0.18725,0.009,-0.085,-0.002472,-0.00466925,0.0022735,1742092552.22278
0.19425,0.00325,-0.06975,-0.00238025,-0.0052185003,0.0022277501,1742092552.237204
0.194,-0.00075,-0.06475,-0.00204475,-0.00543225,0.00181575,1742092552.251733
0.18825,-0.00025,-0.064,-0.00109875,-0.0054475004,0.000229,1742092552.266321
0.17175,0.0125,-0.07125,-0.0012817499,-0.0059967497,-0.00074775,1742092552.2808802
0.17125,0.0135,-0.074,-0.00231925,-0.008346501,-0.00238025,1742092552.296983
0.1725,0.00325,-0.0805,-0.002243,-0.009597749,-0.0035095,1742092552.309848
0.17475,-0.005,-0.0815,-0.0014495,-0.0119630005,-0.00543225,1742092552.324468
0.1885,-0.0305,-0.07175,-0.000885,-0.0128175,-0.0055085,1742092552.339176
0.19525,-0.03475,-0.06475,-0.0002595,-0.013793999,-0.004242,1742092552.3538718
0.2035,-0.01925,-0.05725,-0.00096125,-0.014510999,-0.00305175,1742092552.368614
0.2085,-0.011,-0.05675,-0.00177,-0.01531975,-0.00175475,1742092552.383135
0.21025,-0.00725,-0.055,-0.0012817499,-0.0157775,-0.0007935,1742092552.3977401
0.2095,-0.0085,-0.05425,-0.00054925,-0.01596075,-0.00099175,1742092552.4124758
0.211,-0.0095,-0.05125,0.001068,-0.016845752,-0.0023497501,1742092552.427091
0.226,-0.00125,-0.03875,0.00163275,-0.01708975,-0.00331125,1742092552.4415941
0.234,0.00325,-0.0335,0.00115975,-0.01675425,-0.0034942501,1742092552.4565482
0.2435,0.0015,-0.028,0.0005035,-0.0163575,-0.00231925,1742092552.4704819
0.2485,0.00025,-0.025,0.000183,-0.015518251,-0.00077825,1742092552.484991
0.25875,0.002,-0.021,0.00051875,-0.0151215,-0.00096125,1742092552.499542
0.26225,0.00225,-0.02025,0.00077825,-0.014510999,-0.0016632499,1742092552.5139399
0.26075,0.00075,-0.0105,0.000885,-0.015090999,-0.0003815,1742092552.528397
0.257,-0.013,-0.01475,0.0007325,-0.01589975,0.001953,1742092552.542791
0.25925,-0.0225,-0.01225,0.00051875,-0.012909001,0.00296025,1742092552.557288
0.25025,-0.008,-0.0065,0.00181575,-0.012085,0.0012970001,1742092552.571699
0.2445,0.01125,-0.00475,0.0028229998,-0.013153,-0.00320425,1742092552.586617
0.244,0.0145,-0.00325,0.00267025,-0.013626001,-0.0048979996,1742092552.600587
0.24325,-0.00025,-0.00425,0.0031127501,-0.013839751,-0.0067902496,1742092552.615042
0.246,-0.02975,-0.00175,0.0036162501,-0.014099,-0.0065612504,1742092552.6295838
0.2505,-0.035,0.0025,0.0044555003,-0.014938249,-0.00317375,1742092552.644091
0.258,-0.01625,0.01275,0.00453175,-0.0151215,-0.00102225,1742092552.6584802
0.25925,0.00025,0.0165,0.00428775,-0.015075751,0.00045775,1742092552.6729631
0.2605,0.01225,0.01725,0.0031127501,-0.014587499,0.0012055,1742092552.6873212
0.2635,0.01125,0.0155,0.0028687501,-0.014297499,0.00102225,1742092552.701613
0.2665,0.00725,0.016,0.00358575,-0.01419075,0.0003815,1742092552.717605
0.2735,0.00375,0.02275,0.004074,-0.014343251,0.00036625,1742092552.730264
0.27625,0.00475,0.027,0.0045012496,-0.014328,0.0008545,1742092552.7446132
0.29575,0.0145,0.0325,0.0043639997,-0.014389,0.00119025,1742092552.758982
0.31375,0.0195,0.034,0.00402825,-0.01431275,0.0014037499,1742092552.773293
0.3345,0.02075,0.0345,0.00390625,-0.01260375,0.00024425,1742092552.787606
0.377,0.02375,0.0415,0.0039215,-0.00997925,-0.001114,1742092552.8020868
0.4165,0.03,0.035,0.00238025,-0.00059500005,-0.0031889998,1742092552.817665
0.562,0.031,0.03725,0.00109875,0.00267025,-0.00279225,1742092552.830814
0.665,0.02725,0.0495,0.001709,-0.00296025,-0.0019225,1742092552.845172
0.83925,0.02975,0.10075,0.0030975002,-0.00511175,-0.0025787498,1742092552.859465
0.89725,0.04125,0.14075,0.00325,-0.00042725,-0.0027465,1742092552.873881
0.92125,0.0605,0.179,-0.00070200005,0.02398675,-0.0018005001,1742092552.888182
0.8415,0.06875,0.2315,-0.00216675,0.03714,-0.0023497501,1742092552.902606
0.7305,0.04525,0.24475,-0.00061025,0.0606995,-0.00080875,1742092552.917661
0.4275,-0.0335,0.24325,-0.00119025,0.070098996,0.004013,1742092552.9311922
0.26425,-0.07,0.23775,-0.00717175,0.084015,0.017624,1742092552.946787
-0.1025,-0.09925,0.1635,-0.0100707505,0.08828725,0.02153025,1742092552.9602299
-0.2865,-0.12825,0.081,-0.00817875,0.0831605,0.01953125,1742092552.9746518
-0.461,-0.242,-0.058,-0.00242625,0.070755,0.01419075,1742092552.989323
-0.4535,-0.2425,-0.072,0.00364675,0.0538025,0.0081635,1742092553.0038981
-0.40525,-0.1935,-0.05925,0.0077210004,0.020111,0.0054015,1742092553.018292
-0.25325,-0.06275,-0.048,0.00791925,0.00845325,0.00514225,1742092553.03274
-0.18375,0.00375,-0.0745,0.008026,-0.006836,-0.0024414998,1742092553.047232
-0.0505,0.13175,-0.112,0.00614925,-0.01272575,-0.00614925,1742092553.061759
0.025,0.1645,-0.09725,0.00086975005,-0.02105725,-0.0113525,1742092553.0769238
0.1645,0.13575,-0.03975,-0.0004425,-0.02165225,-0.013549751,1742092553.09085
0.217,0.09275,-0.01925,-0.001953,-0.01693725,-0.013351499,1742092553.1069021
0.2785,0.00375,-0.01175,-0.00305175,-0.013351499,-0.010238751,1742092553.119982
0.28725,-0.02425,-0.01925,-0.0038757501,-0.010024999,-0.0061339997,1742092553.1346009
0.2805,-0.03375,-0.04375,-0.0044250004,-0.0054475004,0.00024425,1742092553.149025
0.271,-0.02475,-0.05275,-0.0047912505,-0.00413525,0.00175475,1742092553.16358
0.26025,-0.01525,-0.059,-0.0053405,-0.00355525,0.0016785001,1742092553.178114
0.24125,-0.01175,-0.07375,-0.00520325,-0.0040435,0.0003815,1742092553.19268
0.22925,-0.01475,-0.0795,-0.0045777503,-0.0058135,-0.0021057501,1742092553.207318
0.21725,-0.017,-0.0755,-0.0047150003,-0.0070495,-0.0024414998,1742092553.221966
0.21775,-0.0125,-0.06725,-0.005539,-0.00903325,-0.0025634998,1742092553.237026
0.2135,-0.0045,-0.062,-0.0056609996,-0.009384249,-0.0028687501,1742092553.251144
0.21025,-0.00625,-0.06025,-0.00520325,-0.008224499,-0.00305175,1742092553.26774
0.203,-0.01475,-0.06125,-0.0053709997,-0.00773625,-0.0023345,1742092553.2804632
0.2035,-0.01625,-0.0625,-0.00587475,-0.00785825,-0.0012207499,1742092553.2951438
0.2055,-0.011,-0.0625,-0.0061339997,-0.00903325,0.00033575002,1742092553.309664
0.2095,-0.008,-0.06,-0.0054932497,-0.009506251,0.000122000005,1742092553.3241441
0.21625,-0.00475,-0.05525,-0.0042572496,-0.0100707505,-0.001953,1742092553.3389099
0.2275,-0.00775,-0.049,-0.00399775,-0.010253999,-0.0031585,1742092553.353479
0.2275,-0.01725,-0.0475,-0.0036162501,-0.010147001,-0.004242,1742092553.3680608
0.21875,-0.0385,-0.04525,-0.0034637498,-0.010147001,-0.0038299998,1742092553.3827589
0.2175,-0.044,-0.04425,-0.00292975,-0.011016751,-0.00198375,1742092553.397395
0.2285,-0.0275,-0.03875,-0.0023039998,-0.011901749,-0.00160225,1742092553.4121568
0.23525,-0.01225,-0.03625,-0.0016175,-0.01326,-0.002121,1742092553.42726
0.244,-0.00325,-0.0305,-0.0015565,-0.01322925,-0.0026854998,1742092553.441429
0.2465,-0.00975,-0.0265,-0.0018615,-0.012313751,-0.0033875,1742092553.457542
0.246,-0.0265,-0.02225,-0.0020599999,-0.011795,-0.00292975,1742092553.4707541
0.24475,-0.03,-0.02175,-0.0020905002,-0.0114440005,-0.00216675,1742092553.486748
0.242,-0.02225,-0.01925,-0.001831,-0.0114744995,-0.00062550005,1742092553.499956
0.2425,-0.01925,-0.0165,-0.00157175,-0.011810251,-0.00045775,1742092553.514575
0.2445,-0.02075,-0.014,-0.00042725,-0.01266475,-0.0015565,1742092553.529129
0.2505,-0.02225,-0.00175,0.00065625,-0.0133667495,-0.0014037499,1742092553.543775
0.25075,-0.03025,-0.00725,0.001648,-0.0139770005,0.00068675,1742092553.558295
0.2515,-0.03525,0.00175,0.0017395001,-0.0128785,0.00030525,1742092553.572672
0.24675,-0.02775,0.005,0.00163275,-0.012634249,-0.00267025,1742092553.587101
0.243,-0.01175,0.01,0.00083925005,-0.013046251,-0.00390625,1742092553.601609
0.24175,-0.01375,0.0115,-0.00064075,-0.012847999,-0.003662,1742092553.618061
0.241,-0.037,0.01075,-0.00099175,-0.012634249,-0.0026245,1742092553.630778
0.2435,-0.04525,0.01075,-0.0009155,-0.01251225,-0.0013885,1742092553.6469078
0.24625,-0.04275,0.01175,-0.000534,-0.012619001,0.00175475,1742092553.659986
0.25025,-0.01525,0.017,-0.00099175,-0.012496999,0.00334175,1742092553.674353
0.251,-0.00525,0.019,-0.0026092501,-0.01156625,0.0048979996,1742092553.6887932
0.24575,-0.0025,0.01975,-0.0028535,-0.01127625,0.00411975,1742092553.703299
0.24075,-0.0065,0.0185,-0.0020905002,-0.011917,0.00096125,1742092553.717758
0.2365,-0.02175,0.02175,-0.00160225,-0.012436,-0.000122000005,1742092553.7323039
0.2365,-0.03075,0.02575,-0.00105275,-0.01257325,0.0004425,1742092553.746975
0.24125,-0.03725,0.0335,-0.0012207499,-0.01210025,0.0021819999,1742092553.7612858
0.24525,-0.032,0.03625,-0.0016175,-0.0115205,0.00411975,1742092553.776665
0.24525,-0.02325,0.036,-0.0020752498,-0.01091,0.0072937496,1742092553.790358
0.2355,-0.0075,0.02925,-0.001831,-0.01092525,0.0079345,1742092553.804785
0.2305,-0.00175,0.0255,-0.00099175,-0.01216125,0.0065155,1742092553.819312
0.2275,0.001,0.02075,-0.00042725,-0.01345825,0.0042725,1742092553.833641
0.23225,-0.00275,0.021,0.00109875,-0.01678475,-0.0012055,1742092553.848213
0.2625,-0.003,0.0365,0.0017395001,-0.018127501,-0.0033264998,1742092553.8628
0.291,0.004,0.05375,0.001419,-0.01826475,-0.005005,1742092553.877132
0.3755,0.019,0.0925,0.000183,-0.0166015,-0.0049895,1742092553.8914292
0.436,0.01775,0.10725,-0.001709,-0.01412975,-0.0048065,1742092553.9068758
0.51075,0.017,0.12025,-0.002472,-0.0081635,-0.007019,1742092553.920351
0.70225,0.02275,0.16625,-0.00071725,-0.0059967497,-0.0094604995,1742092553.934766
0.84425,0.01375,0.22875,-0.00109875,-0.000534,-0.011688249,1742092553.949155
1.0,-0.05925,0.3985,-0.00070200005,0.0081635,-0.0139770005,1742092553.963574
1.0,-0.10925,0.44075,0.0068512503,0.04216,-0.010589501,1742092553.977887
0.88775,-0.11575,0.435,0.008499251,0.061325002,-0.0012055,1742092553.9922292
0.71775,-0.0495,0.4215,0.0058135,0.07658375,0.008651749,1742092554.006583
0.24225,0.038,0.34975,-0.00399775,0.0963745,0.0172425,1742092554.020899
-0.03125,0.00125,0.241,-0.0075225,0.103775,0.019348249,1742092554.0366971
-0.28125,-0.05175,0.10675,-0.009262,0.1049195,0.02224725,1742092554.049651
-0.60225,-0.0805,-0.09325,-0.00817875,0.09375,0.020019501,1742092554.0642838
-0.6545,-0.10675,-0.14825,-0.0020599999,0.059784,0.01133725,1742092554.078903
-0.58475,-0.2065,-0.17975,0.00251775,0.041137747,0.00770575,1742092554.093293
-0.481,-0.21125,-0.15575,0.01004025,0.0030669998,0.0089569995,1742092554.1077461
-0.1655,-0.063,-0.0355,0.01121525,-0.011139,0.009521499,1742092554.12241
-0.0315,0.03225,-0.00675,0.0114440005,-0.0187835,0.0064239996,1742092554.1368861
0.14575,0.12275,-0.01475,0.0076142503,-0.019317752,-0.002365,1742092554.151254
0.218,0.12775,-0.01525,0.00434875,-0.0172425,-0.0043944996,1742092554.165777
0.277,0.119,-0.01375,0.0001525,-0.012436,-0.00764475,1742092554.180268
0.3305,0.068,-0.02775,-0.00083925005,-0.009216251,-0.009079001,1742092554.194867
0.3265,0.03925,-0.0385,-0.00064075,-0.0022277501,-0.00897225,1742092554.2093592
0.2945,0.004,-0.0585,-4.575e-05,0.00010675,-0.0073242504,1742092554.223723
0.2775,-0.01025,-0.067,0.00039675,0.00231925,-0.0043944996,1742092554.238383
0.24725,-0.03025,-0.07775,0.0002595,0.00254825,-0.0031889998,1742092554.2529879
0.23525,-0.03,-0.08,-0.00057975,0.00184625,0.000473,1742092554.267974
0.21625,-0.009,-0.08075,-0.00065625,0.001175,0.00169375,1742092554.281975
0.2075,0.0065,-0.08,-0.00059500005,0.00019825,0.0017395001,1742092554.2969248
0.201,0.01975,-0.07875,-0.0021819999,-0.00225825,0.00068675,1742092554.3108008
0.20025,0.0135,-0.072,-0.0033875,-0.0029755002,0.00071725,1742092554.326557
0.196,0.002,-0.06825,-0.0037385002,-0.0031585,0.00093075,1742092554.339817
0.1855,-0.0105,-0.065,-0.003662,-0.0033875,0.00096125,1742092554.354357
0.18375,-0.01,-0.066,-0.0034484998,-0.00372325,0.00080875,1742092554.368895
0.1765,-0.0015,-0.07525,-0.0030669998,-0.0040587503,0.000412,1742092554.383349
0.17625,0.003,-0.0795,-0.0028074998,-0.00668325,-0.00068675,1742092554.3978581
0.1925,-0.00075,-0.07925,-0.0027465,-0.008667,-0.001587,1742092554.41248
0.20075,-0.006,-0.07575,-0.00231925,-0.010391249,-0.00276175,1742092554.427221
0.20925,-0.0095,-0.06975,-0.00102225,-0.0123442495,-0.00485225,1742092554.441875
0.22325,-0.014,-0.05775,-0.00074775,-0.012375,-0.00535575,1742092554.456498
0.226,-0.0155,-0.056,-0.00125125,-0.0115205,-0.004776,1742092554.4710941
0.2295,-0.01125,-0.05525,-0.00187675,-0.011245751,-0.003662,1742092554.4867892
0.234,-0.00875,-0.05375,-0.0030975002,-0.011245751,-0.00157175,1742092554.500402
0.2445,-0.01575,-0.04525,-0.00292975,-0.011139,-0.0013580001,1742092554.515059
0.24575,-0.02225,-0.0425,-0.00137325,-0.010559,-0.00254825,1742092554.529632
0.2405,-0.02225,-0.042,-0.001068,-0.01042175,-0.00302125,1742092554.5442991
0.23875,-0.0205,-0.04225,-0.00216675,-0.010376001,-0.0019989999,1742092554.558857
0.2345,-0.027,-0.04075,-0.0026092501,-0.0100707505,-0.00065625,1742092554.573445
0.23175,-0.027,-0.0395,-0.00263975,-0.00975025,0.00077825,1742092554.587971
0.22825,-0.01875,-0.03675,-0.00160225,-0.009658749,0.002365,1742092554.602462
0.2295,-0.0095,-0.03525,-0.0007935,-0.009903,0.00225825,1742092554.6175842
0.23125,0.00025,-0.03325,-0.0002135,-0.0106965,0.0010375,1742092554.631435
0.23275,0.0045,-0.028,-0.000824,-0.011031999,0.0007935,1742092554.646817
0.23275,-0.001,-0.02525,-0.0024872501,-0.01127625,0.00108325,1742092554.6606169
0.23625,-0.013,-0.02125,-0.0026245,-0.011383001,0.000946,1742092554.675016
0.23625,-0.01675,-0.0195,-0.000946,-0.01289375,0.0025787498,1742092554.6897779
0.24375,-0.023,-0.01,-0.00027475,-0.012924249,0.0029755002,1742092554.7043462
0.25,-0.01675,-0.00275,0.0003815,-0.0115205,-0.00061025,1742092554.718793
0.247,-0.00325,0.002,-7.625e-05,-0.01156625,-0.002243,1742092554.7333791
0.24125,-0.00475,-0.001,-0.00093075,-0.011612001,-0.0030975002,1742092554.747969
0.237,-0.0105,-0.003,-0.001419,-0.0109709995,-0.0034790002,1742092554.76257
0.2365,-0.02725,0.0,-0.000473,-0.01098625,-0.0038299998,1742092554.7770271
0.237,-0.034,0.00275,0.00201425,-0.012024,-0.0043335,1742092554.791442
0.24025,-0.0305,0.008,0.0024414998,-0.01266475,-0.0037385002,1742092554.806656
0.24525,-0.0225,0.01175,0.00099175,-0.0129395,-0.00024425,1742092554.8203268
0.24975,-0.012,0.0195,7.625e-05,-0.0122985,0.0013275,1742092554.834659
0.24475,-0.014,0.01875,-0.00074775,-0.0109709995,0.0016785001,1742092554.849042
0.241,-0.02825,0.0175,-0.00036625,-0.010940501,0.001648,1742092554.863459
0.2435,-0.03275,0.019,0.00080875,-0.0114440005,0.00146475,1742092554.8777869
0.24725,-0.03225,0.02125,0.0041504996,-0.01330575,-0.00045775,1742092554.892268
0.25675,-0.0215,0.02875,0.005066,-0.014297499,-0.000824,1742092554.906773
0.26775,-0.01775,0.03475,0.00434875,-0.01504525,0.0011445,1742092554.9212108
0.29625,-0.0215,0.04975,0.0038299998,-0.0139770005,0.00254825,1742092554.9363809
0.30275,-0.02075,0.0465,0.0042572496,-0.011123749,0.003769,1742092554.9499578
0.309,0.00125,0.0295,0.0047912505,-0.010803251,0.003662,1742092554.9642801
0.32725,0.01525,0.0275,0.00517275,-0.011612001,0.0028074998,1742092554.9785962
0.36275,0.022,0.0325,0.0057372497,-0.014038,-0.0021515,1742092554.992855
0.47825,0.016,0.05775,0.0060882503,-0.01446525,-0.00611875,1742092555.007179
0.54875,0.0115,0.075,0.00466925,-0.012496999,-0.01289375,1742092555.021577
0.716,0.0095,0.125,0.0029449998,-0.010498,-0.01608275,1742092555.036789
0.81675,-0.02225,0.156,0.0014037499,-0.00289925,-0.022216748,1742092555.050297
0.95575,-0.169,0.2255,0.003128,0.0062407497,-0.0204925,1742092555.064595
0.96725,-0.19925,0.26375,0.0054932497,0.018707251,-0.012985251,1742092555.0788732
0.92675,-0.14375,0.299,0.0055237496,0.045715246,0.009734999,1742092555.093052
0.66775,0.06925,0.31575,0.0026854998,0.05970775,0.0179595,1742092555.1072588
0.467,0.0705,0.30125,0.00108325,0.0854645,0.021484248,1742092555.1215758
-0.0335,-0.09725,0.17925,0.0036010002,0.09332275,0.02165225,1742092555.136731
-0.25925,-0.136,0.0895,0.0060425,0.0890655,0.025833251,1742092555.150191
-0.49925,-0.10675,-0.0395,0.00514225,0.077316254,0.02601625,1742092555.164767
-0.512,-0.12725,-0.074,0.00611875,0.06260675,0.020752002,1742092555.179272
-0.44475,-0.17825,-0.1135,0.01380925,0.031952,0.0074004997,1742092555.1936672
-0.374,-0.13275,-0.10525,0.015335,0.018585252,0.0078735,1742092555.208183
-0.28525,-0.041,-0.09225,0.013214,-0.00251775,0.010681249,1742092555.222665
-0.09,0.1515,-0.081,0.010604749,-0.010314999,0.0076295,1742092555.237227
0.01975,0.19375,-0.063,0.0037385002,-0.0199585,-0.00177,1742092555.251563
0.202,0.1605,-0.01425,0.00190725,-0.0206145,-0.0065002497,1742092555.265944
0.25675,0.11675,-0.00025,-0.0002135,-0.01412975,-0.0103455,1742092555.280428
0.31825,0.04025,0.02,-0.00146475,-0.00991825,-0.0094604995,1742092555.2949371
0.3175,0.012,0.00925,-0.0022735,-0.006668,-0.008606,1742092555.309356
0.298,-0.00675,-0.0135,-0.0030975002,-0.0008545,-0.006073,1742092555.324053
0.25475,-0.02775,-0.05175,-0.004013,0.00119025,-0.00416575,1742092555.338599
0.23875,-0.02775,-0.064,-0.00416575,0.00096125,-0.0024414998,1742092555.3529978
0.215,-0.005,-0.0805,-0.0033722501,-0.00062550005,-0.00334175,1742092555.367908
0.21425,0.0045,-0.07975,-0.003418,-0.0037537501,-0.005005,1742092555.382285
0.216,0.0035,-0.069,-0.00381475,-0.0044707498,-0.0052795,1742092555.3977332
0.21125,-0.00925,-0.06375,-0.003952,-0.005005,-0.0054015,1742092555.411402
0.20525,-0.0445,-0.05325,-0.0036162501,-0.00514225,-0.00488275,1742092555.42721
0.201,-0.05075,-0.05075,-0.00254825,-0.00538625,-0.0027160002,1742092555.440702
0.18925,-0.0245,-0.05325,-0.00267025,-0.00585925,-0.001526,1742092555.456243
0.18975,-0.011,-0.055,-0.00343325,-0.00662225,-0.00061025,1742092555.470054
0.195,-0.01275,-0.0535,-0.0038605002,-0.008255,-0.0012055,1742092555.484745
0.1945,-0.018,-0.05375,-0.00334175,-0.0089569995,-0.002365,1742092555.499336
0.19575,-0.02175,-0.0525,-0.00279225,-0.0100555,-0.00343325,1742092555.5140202
0.20675,-0.0235,-0.0485,-0.0024414998,-0.010498,-0.00331125,1742092555.528627
0.214,-0.0205,-0.046,-0.0009765,-0.011016751,-0.0028687501,1742092555.543376
0.22475,-0.00625,-0.03875,-0.00065625,-0.011169501,-0.00283825,1742092555.558013
0.22825,-0.00425,-0.038,-0.0020295,-0.010940501,-0.0020599999,1742092555.572642
0.23,-0.0165,-0.037,-0.0027160002,-0.01048275,-0.00115975,1742092555.5873358
0.23175,-0.0205,-0.0355,-0.002655,-0.01026925,4.575e-05,1742092555.601759
0.24825,-0.01625,-0.031,-0.001953,-0.010681249,-1.5250001e-05,1742092555.6182668
0.2545,-0.00775,-0.0295,-0.00080875,-0.011612001,-0.00054925,1742092555.631039
0.26375,0.00675,-0.02375,-0.0012970001,-0.011734,-0.00057975,1742092555.647031
0.2685,0.0025,-0.0185,-0.0020752498,-0.011398249,-0.00062550005,1742092555.6599889
0.2705,-0.0095,-0.01375,-0.00228875,-0.0097045,-0.00163275,1742092555.674617
0.26675,-0.035,-0.00975,-0.001419,-0.008788999,-0.002533,1742092555.6893399
0.26225,-0.0435,-0.0105,0.00093075,-0.00741575,-0.0033875,1742092555.7039628
0.25625,-0.05075,-0.0075,0.0018005001,-0.00688175,-0.00251775,1742092555.718476
0.25125,-0.03775,-0.00525,0.000763,-0.006546,0.00143425,1742092555.7330408
0.2575,0.00675,-0.00475,-0.00184625,-0.0070342496,0.0042115003,1742092555.74757
0.25975,0.01225,-0.008,-0.0054780003,-0.007019,0.008941749,1742092555.761913
0.25425,0.0075,-0.0055,-0.0053252503,-0.0060272496,0.0072937496,1742092555.776853
0.2495,0.0045,-0.00325,-0.004074,-0.0059205,0.003769,1742092555.79075
0.2415,-0.01275,-0.00225,-0.00119025,-0.008865249,-0.0025940002,1742092555.806823
0.2425,-0.0225,-0.00025,-3.0500001e-05,-0.0089569995,-0.00402825,1742092555.819944
0.2455,-0.03225,0.00375,0.00190725,-0.0064850003,-0.0029907501,1742092555.83444
0.2445,-0.0425,0.0085,0.00245675,-0.0062407497,-0.0014495,1742092555.848918
0.24125,-0.03925,0.006,0.00242625,-0.0064850003,0.0026854998,1742092555.863227
0.241,-0.02475,0.00175,0.0020599999,-0.006363,0.004837,1742092555.877552
0.2455,-0.01925,0.005,0.0022125002,-0.0060577504,0.0065612504,1742092555.8918378
0.25525,-0.01325,0.0145,0.0029449998,-0.0062865,0.0053252503,1742092555.906813
0.256,-0.01025,0.01575,0.00364675,-0.0068055,0.00334175,1742092555.920574
0.25475,-0.008,0.01525,0.00364675,-0.0077210004,0.00064075,1742092555.934877
0.2525,-0.0075,0.0125,0.00292975,-0.0076142503,0.00070200005,1742092555.949164
0.251,-0.0085,0.0125,0.0014495,-0.0075072497,0.00242625,1742092555.963557
0.25075,-0.0105,0.01525,0.00115975,-0.0077667497,0.0033264998,1742092555.977885
0.25125,-0.011,0.01625,0.0016175,-0.00817875,0.0041044997,1742092555.992167
0.25725,-0.0055,0.02025,0.0020295,-0.0080872495,0.0037995,1742092556.006597
0.2565,-0.00075,0.02075,0.0023039998,-0.00785825,0.0035704998,1742092556.0210052
0.256,-0.0005,0.022,0.0017852499,-0.0064239996,0.0040435,1742092556.036583
0.25875,-0.00775,0.0235,0.0015105,-0.00646975,0.0039825,1742092556.049699
0.2615,-0.009,0.0235,0.00213625,-0.0064239996,0.003891,1742092556.064061
0.272,-0.0035,0.0275,0.00267025,-0.0059510004,0.004242,1742092556.0785
0.27975,0.00525,0.03075,0.0025634998,-0.0047150003,0.00453175,1742092556.092743
