acc_x,acc_y,acc_z,gyro_x,gyro_y,gyro_z,timestamp
-0.2545,-0.0335,-0.008,0.000122000005,-0.00204475,-0.00030525,1741885033.6560562
-0.25125,-0.021,-0.0,0.00090025004,-0.00190725,0.00027475,1741885033.67043
-0.24975,-0.01425,0.00125,0.001114,-0.00112925,0.00042725,1741885033.6848042
-0.247,-0.01,0.0015,0.00080875,-0.00057975,-4.575e-05,1741885033.6992772
-0.24625,-0.01175,0.00125,3.0500001e-05,0.000824,-0.001114,1741885033.7137861
-0.24925,-0.0165,-0.00675,-0.0002135,0.00149525,-0.0014495,1741885033.7284591
-0.2515,-0.0175,-0.01275,-0.00042725,0.00187675,-0.00163275,1741885033.74316
-0.25225,-0.02175,-0.0155,-0.00061025,0.0017852499,-0.00177,1741885033.758898
-0.25175,-0.0225,-0.01525,-0.00068675,0.00157175,-0.0015105,1741885033.772706
-0.25325,-0.021,-0.01725,-0.000412,0.00090025004,-0.00080875,1741885033.788706
-0.25275,-0.01875,-0.01875,0.0001525,0.00036625,-0.001068,1741885033.801953
-0.2505,-0.02175,-0.01625,0.00068675,-0.00057975,-0.0013885,1741885033.817877
-0.24825,-0.026,-0.0115,0.0007325,-0.00086975005,-0.0012055,1741885033.831273
-0.24725,-0.02675,-0.00925,0.0007935,-0.0009155,-0.00093075,1741885033.845976
-0.246,-0.027,-0.005,0.00065625,-0.00067150005,-0.00080875,1741885033.860712
-0.2465,-0.0265,-0.005,0.00051875,6.1000002e-05,-0.00039675,1741885033.875318
-0.249,-0.024,-0.0095,0.00045775,0.0003205,-9.15e-05,1741885033.8898828
-0.25075,-0.022,-0.01175,0.00039675,0.00030525,0.0003205,1741885033.9043121
-0.252,-0.021,-0.015,0.00024425,9.15e-05,0.00035100002,1741885033.918748
-0.2515,-0.02,-0.016,0.00016775,-0.000183,0.00030525,1741885033.933321
-0.25075,-0.01925,-0.0155,0.00048825,-0.0008545,-7.625e-05,1741885033.948528
-0.2475,-0.0215,-0.00925,0.000473,-0.00102225,-0.00027475,1741885033.962692
-0.246,-0.02375,-0.00575,6.1000002e-05,-0.0007935,-0.0003815,1741885033.97891
-0.246,-0.027,-0.0045,3.0500001e-05,-0.00048825,-0.0002595,1741885033.991967
-0.2465,-0.02625,-0.00625,0.0002135,-1.5250001e-05,0.000229,1741885034.006582
-0.248,-0.0205,-0.01025,0.0003815,7.625e-05,0.000412,1741885034.0210292
-0.24875,-0.01825,-0.01125,0.00036625,0.00013725001,0.00036625,1741885034.035511
-0.2485,-0.0185,-0.0115,0.00019825,0.0001525,0.0002135,1741885034.050015
-0.24775,-0.0195,-0.011,-0.00013725001,0.00019825,-7.625e-05,1741885034.064708
-0.248,-0.0195,-0.01275,-0.00030525,0.000229,-0.00010675,1741885034.079375
-0.24825,-0.01925,-0.01325,-0.000473,0.0002135,-9.15e-05,1741885034.0939672
-0.24825,-0.02,-0.013,-0.00033575002,-4.575e-05,-0.00019825,1741885034.1088672
-0.249,-0.01975,-0.014,-0.00013725001,-0.000229,-0.00024425,1741885034.123494
-0.249,-0.01925,-0.01325,0.00016775,-0.00059500005,-0.0004425,1741885034.138602
-0.24775,-0.021,-0.008,0.00013725001,-0.00061025,-0.00054925,1741885034.1529322
-0.248,-0.0225,-0.00725,-0.000229,-0.00013725001,-0.00042725,1741885034.1680708
-0.24875,-0.025,-0.00825,-0.00030525,0.000122000005,-0.00030525,1741885034.182389
-0.24875,-0.02525,-0.00925,-0.00019825,0.00051875,9.15e-05,1741885034.196956
-0.25375,-0.01925,-0.0185,-0.000122000005,0.00045775,0.00030525,1741885034.2115982
-0.25425,-0.01675,-0.021,-6.1000002e-05,-0.000412,0.00024425,1741885034.22627
-0.251,-0.019,-0.0145,0.0,-0.00090025004,4.575e-05,1741885034.240858
-0.2485,-0.02225,-0.0085,0.00016775,-0.00115975,-0.00013725001,1741885034.255448
-0.24475,-0.026,0.00025,0.000183,-0.000824,1.5250001e-05,1741885034.269886
-0.2445,-0.025,0.00025,0.00010675,-0.00024425,0.0002595,1741885034.2843351
-0.246,-0.0225,-0.00375,3.0500001e-05,0.000885,0.00071725,1741885034.298996
-0.24875,-0.0185,-0.014,3.0500001e-05,0.001007,0.0007935,1741885034.313271
-0.2485,-0.01825,-0.0155,0.00030525,0.00057975,0.00070200005,1741885034.3289862
-0.247,-0.01875,-0.015,0.000412,0.0003205,0.00064075,1741885034.342253
-0.24725,-0.018,-0.0155,0.000412,-6.1000002e-05,0.00054925,1741885034.356868
-0.248,-0.01575,-0.01575,0.000412,-0.00027475,0.00035100002,1741885034.371336
-0.2475,-0.0165,-0.01425,0.000122000005,-0.000534,-0.000183,1741885034.3859499
-0.247,-0.022,-0.0105,-4.575e-05,-0.0005035,-0.0003815,1741885034.4008079
-0.2475,-0.0245,-0.01025,4.575e-05,-0.00030525,-0.000412,1741885034.415442
-0.24975,-0.02425,-0.01275,0.00016775,-0.00027475,-0.0003205,1741885034.430047
-0.2505,-0.023,-0.0135,0.00019825,-0.0003205,-0.000229,1741885034.44472
-0.25125,-0.023,-0.01375,3.0500001e-05,-0.00048825,-0.00027475,1741885034.45933
-0.25225,-0.02475,-0.013,-4.575e-05,-0.00054925,-0.00029,1741885034.4740329
-0.2515,-0.02475,-0.01175,-0.00013725001,-0.0005645,1.5250001e-05,1741885034.489695
-0.2505,-0.024,-0.0095,-0.0001525,-0.000473,0.00010675,1741885034.503407
-0.25025,-0.0235,-0.01,-9.15e-05,-0.000229,4.575e-05,1741885034.518241
-0.25,-0.02225,-0.01175,-0.00013725001,-0.0001525,-1.5250001e-05,1741885034.5327842
-0.24975,-0.022,-0.012,-0.00039675,-4.575e-05,-9.15e-05,1741885034.548936
-0.24875,-0.024,-0.011,-0.00045775,1.5250001e-05,-0.0001525,1741885034.562248
-0.248,-0.0255,-0.0105,-0.0005645,0.0003205,-3.0500001e-05,1741885034.578318
-0.2495,-0.02425,-0.013,-0.000534,0.000473,0.00016775,1741885034.591605
-0.25075,-0.02225,-0.01525,-0.000534,0.00051875,0.0003815,1741885034.606179
-0.25125,-0.02025,-0.017,-0.00048825,0.00035100002,0.00033575002,1741885034.6205802
-0.25,-0.02025,-0.015,-0.00039675,0.00016775,0.0002135,1741885034.635135
-0.24875,-0.0205,-0.013,-0.000229,-4.575e-05,6.1000002e-05,1741885034.649887
-0.24675,-0.0195,-0.01025,-0.00013725001,-4.575e-05,1.5250001e-05,1741885034.664685
-0.247,-0.01875,-0.01025,0.0,9.15e-05,-7.625e-05,1741885034.679188
-0.24675,-0.02,-0.00925,-0.00010675,0.00016775,-0.00016775,1741885034.6939368
-0.2465,-0.0235,-0.00775,-0.00070200005,0.0005035,-6.1000002e-05,1741885034.7086809
-0.24775,-0.0285,-0.00825,-0.00096125,0.0007325,0.000229,1741885034.72316
-0.24875,-0.02825,-0.00975,-0.0008545,0.0009765,0.000824,1741885034.738977
-0.2505,-0.02225,-0.01225,-0.00064075,0.00096125,0.00093075,1741885034.7522728
-0.25025,-0.02025,-0.01275,-0.0005645,0.00090025004,0.00083925005,1741885034.768181
-0.24975,-0.022,-0.014,-0.00071725,0.00083925005,0.0007935,1741885034.7813509
-0.249,-0.024,-0.013,-0.000885,0.0007325,0.00077825,1741885034.795866
-0.247,-0.027,-0.00775,-0.00096125,0.00062550005,0.00083925005,1741885034.81041
-0.24675,-0.02775,-0.0055,-0.00105275,0.000763,0.00096125,1741885034.824903
-0.2475,-0.02825,-0.00425,-0.0015565,0.0014037499,0.0014495,1741885034.839585
-0.25175,-0.026,-0.00775,-0.001648,0.0017852499,0.0016175,1741885034.854136
-0.25275,-0.02525,-0.00975,-0.00169375,0.00204475,0.0014495,1741885034.8686578
-0.25325,-0.02525,-0.01325,-0.0018005001,0.0020295,0.0013885,1741885034.8831391
-0.253,-0.025,-0.01475,-0.0015565,0.00177,0.001236,1741885034.898156
-0.251,-0.02175,-0.0165,-0.0012207499,0.00146475,0.0010375,1741885034.9123352
-0.24875,-0.02,-0.01525,-0.0007935,0.0007935,0.0005035,1741885034.926888
-0.245,-0.0225,-0.008,-0.001007,0.00067150005,0.00035100002,1741885034.9414
-0.2445,-0.02525,-0.00425,-0.0013427499,0.00071725,0.00024425,1741885034.956038
-0.247,-0.028,0.00075,-0.0012817499,0.00131225,0.00013725001,1741885034.97052
-0.25175,-0.02475,0.00725,-0.00108325,0.0020905002,0.000122000005,1741885034.985012
-0.25025,-0.02125,0.01275,0.00054925,0.00643925,-0.000122000005,1741885034.9994838
-0.24575,-0.025,-0.0005,0.0016175,0.00798025,-0.000122000005,1741885035.0140889
-0.24875,-0.02525,-0.00675,0.001831,0.0070037497,-0.00030525,1741885035.0285802
-0.2405,-0.024,-0.0095,0.001526,0.0056609996,-0.00035100002,1741885035.0431051
-0.23675,-0.02375,-0.0065,-0.002243,0.000885,0.00198375,1741885035.057963
-0.255,-0.0255,-0.006,-0.00494375,-0.00054925,0.00289925,1741885035.0722392
-0.2525,-0.0265,-0.00375,-0.005844,-0.000412,0.00213625,1741885035.088901
-0.24325,-0.03275,-0.003,-0.0047150003,-0.00042725,0.00177,1741885035.101645
-0.24075,-0.0355,-0.00275,-0.00434875,-0.00068675,0.00201425,1741885035.116262
-0.24025,-0.0365,-0.00175,-0.00546275,-0.0013427499,0.0034790002,1741885035.13088
-0.2435,-0.03175,-0.0005,-0.00520325,-0.0012665,0.00334175,1741885035.145658
-0.24475,-0.02825,-0.00075,-0.00238025,-0.0009765,0.0016175,1741885035.16023
-0.24625,-0.02675,0.005,-0.0017242499,-0.00086975005,0.00090025004,1741885035.174813
-0.24375,-0.027,0.00825,-0.003128,-9.15e-05,0.0007325,1741885035.1893299
-0.24975,-0.03825,0.0065,-0.0037995,-0.00013725001,0.001236,1741885035.203836
-0.2535,-0.0445,0.005,-0.0042267498,0.000183,0.00163275,1741885035.218443
-0.2535,-0.04425,0.005,-0.0037995,0.00090025004,0.00157175,1741885035.232883
-0.2525,-0.03975,0.00725,-0.00119025,0.0022277501,0.0013885,1741885035.248665
-0.2525,-0.02975,0.007,0.000534,0.0025787498,0.0014037499,1741885035.261857
-0.25275,-0.02675,0.0025,0.0017852499,0.0025940002,0.00146475,1741885035.2762399
-0.2525,-0.0235,-0.0005,0.002121,0.00099175,0.0014495,1741885035.290766
-0.25175,-0.017,0.00075,0.00238025,-7.625e-05,0.001236,1741885035.305216
-0.2515,-0.01525,0.00375,0.00372325,-0.0017242499,0.000122000005,1741885035.319725
-0.246,-0.01875,0.01525,0.00367725,-0.00201425,-0.00045775,1741885035.334288
-0.2455,-0.022,0.01775,0.0020905002,-0.00177,-0.00057975,1741885035.348814
-0.248,-0.0325,0.023,0.00154125,-0.001236,-0.00033575002,1741885035.363347
-0.24875,-0.0395,0.022,0.00065625,0.0010375,0.000229,1741885035.378152
-0.246,-0.0505,0.01975,-3.0500001e-05,0.00251775,0.00062550005,1741885035.392235
-0.248,-0.05,0.017,-0.0009155,0.0038605002,0.0011445,1741885035.4067352
-0.253,-0.04625,0.01125,-0.00157175,0.00579825,0.00148,1741885035.421217
-0.25575,-0.03975,0.00175,-0.0007935,0.00643925,0.00086975005,1741885035.43576
-0.25525,-0.03675,-0.00475,0.0013427499,0.00697325,-0.0008545,1741885035.450374
-0.2525,-0.035,-0.01425,0.00143425,0.0065155,-0.0016175,1741885035.464941
-0.25275,-0.03475,-0.01475,3.0500001e-05,0.00469975,-0.00289925,1741885035.479558
-0.25275,-0.0325,-0.00625,-0.00029,0.0038757501,-0.0034637498,1741885035.494247
-0.24875,-0.03425,0.00025,0.0001525,0.0019989999,-0.0038299998,1741885035.5087922
-0.242,-0.04,0.00925,0.0003815,0.0012207499,-0.0035095,1741885035.523264
-0.2405,-0.04175,0.01275,0.00077825,0.0011445,-0.002655,1741885035.5399392
-0.2395,-0.0385,0.01425,0.000824,0.00163275,-0.002411,1741885035.552209
-0.242,-0.03425,0.009,0.00083925005,0.0020295,-0.0023345,1741885035.568296
-0.24525,-0.029,0.00175,0.00163275,0.0021057501,-0.0025940002,1741885035.581244
-0.2465,-0.02325,-0.00625,0.0020599999,0.001587,-0.0029907501,1741885035.595826
-0.24425,-0.024,-0.004,0.00175475,0.00010675,-0.004013,1741885035.610322
-0.24225,-0.02575,0.00425,0.001587,-0.00042725,-0.0044555003,1741885035.6248388
-0.242,-0.026,0.007,0.0016175,-0.00119025,-0.0053252503,1741885035.639332
-0.2425,-0.024,0.01175,0.00163275,-0.00146475,-0.00555425,1741885035.653953
-0.24425,-0.02175,0.00975,0.00201425,-0.0019989999,-0.0055847503,1741885035.668669
-0.24825,-0.02375,0.0055,0.00228875,-0.0021057501,-0.00564575,1741885035.683101
-0.24875,-0.0255,0.0055,0.0017242499,-0.0021057501,-0.0057525,1741885035.698329
-0.24725,-0.0225,0.0075,0.001892,-0.00231925,-0.0057220003,1741885035.712351
-0.248,-0.018,0.0125,0.0035095,-0.0026245,-0.0052337497,1741885035.728745
-0.24875,-0.015,0.0175,0.0047607496,-0.00317375,-0.00396725,1741885035.74161
-0.2485,-0.01675,0.023,0.0042725,-0.0029449998,-0.00352475,1741885035.756118
-0.2485,-0.0185,0.02475,0.0032347501,-0.001419,-0.0027312501,1741885035.7708852
-0.24775,-0.02225,0.024,0.0028229998,-0.00054925,-0.002121,1741885035.785372
-0.24625,-0.02275,0.02175,0.0019989999,0.00070200005,-0.0002135,1741885035.79987
-0.248,-0.013,0.014,0.00181575,0.001114,0.0007325,1741885035.814371
-0.2505,-0.0065,0.011,0.0020905002,0.0016785001,0.0012055,1741885035.828743
-0.25425,0.005,0.01075,0.001953,0.0018615,0.0005645,1741885035.8430688
-0.2545,0.0025,0.0115,0.00177,0.0023039998,-0.00042725,1741885035.858186
-0.25525,-0.00425,0.012,0.0012970001,0.00352475,-0.0022277501,1741885035.871902
-0.25425,-0.01675,0.012,0.001068,0.00381475,-0.0027465,1741885035.886422
-0.2535,-0.02025,0.0105,0.000885,0.003952,-0.0022735,1741885035.900961
-0.253,-0.02175,0.00575,0.0007935,0.00393675,-0.0014495,1741885035.915478
-0.25475,-0.019,0.0035,0.000946,0.00343325,-6.1000002e-05,1741885035.929963
-0.2575,-0.01075,-0.001,0.0012665,0.0028535,0.00019825,1741885035.944447
-0.25775,-0.0055,-0.00125,0.001953,0.0012055,-0.000183,1741885035.959001
-0.25475,-0.0025,0.0035,0.00213625,0.0003205,-0.00070200005,1741885035.973494
-0.2505,-0.0055,0.00925,0.00193775,-0.0005035,-0.00131225,1741885035.9900842
-0.245,-0.01025,0.0165,0.00108325,-0.001007,-0.00198375,1741885036.00267
-0.23975,-0.01725,0.02575,0.000946,-0.000412,-0.0018005001,1741885036.0184598
-0.24175,-0.01625,0.02475,0.0012207499,0.0013275,-0.001236,1741885036.031722
-0.253,-0.00725,0.0125,0.0015105,0.0020752498,-0.0012665,1741885036.046186
-0.2555,-0.0035,0.00425,0.0020752498,0.0017852499,-0.0029907501,1741885036.0607412
-0.25375,-0.0015,0.00275,0.0018005001,0.0005035,-0.00413525,1741885036.075197
-0.2505,-0.00225,0.00725,0.0003815,-0.0021819999,-0.0053405,1741885036.089764
-0.24275,-0.01,0.018,-1.5250001e-05,-0.0028074998,-0.0052947504,1741885036.1043892
-0.2425,-0.013,0.02,-1.5250001e-05,-0.002533,-0.0038299998,1741885036.119089
-0.24475,-0.0125,0.0185,-7.625e-05,-0.0021972498,-0.0029449998,1741885036.13362
-0.2445,-0.0115,0.019,-0.0001525,-0.00190725,-0.002243,1741885036.148671
-0.24525,-0.01,0.019,3.0500001e-05,-0.00131225,-0.00125125,1741885036.162817
-0.24825,-0.0045,0.0155,0.000183,-0.001068,-0.001007,1741885036.1779468
-0.25,-0.00025,0.014,0.0009765,-0.000763,-0.001236,1741885036.191749
-0.25125,0.0045,0.0145,0.00149525,-0.0007935,-0.0016175,1741885036.206249
-0.249,0.00275,0.01625,0.001587,-0.000885,-0.0018005001,1741885036.22068
-0.2465,0.00025,0.01925,0.001236,-0.0007325,-0.0013885,1741885036.235174
-0.24725,-0.00125,0.02,0.0010375,3.0500001e-05,-0.000229,1741885036.24969
-0.249,-0.0035,0.02075,0.0012055,0.00036625,0.00029,1741885036.2640839
-0.24775,-0.003,0.0225,0.00146475,0.00070200005,0.00065625,1741885036.278903
-0.24725,-0.002,0.0235,0.00184625,0.0017852499,0.001114,1741885036.2928529
-0.25225,0.00325,0.01525,0.0018615,0.00238025,0.00105275,1741885036.30856
-0.25475,0.0055,0.01075,0.00198375,0.0026854998,0.0003205,1741885036.3215601
-0.255,0.0035,0.00575,0.001953,0.00225825,-0.0001525,1741885036.3359108
-0.255,0.00125,0.0045,0.0019225,0.001068,-0.00108325,1741885036.350364
-0.25025,-0.00675,0.00925,0.00213625,0.0008545,-0.0012970001,1741885036.364865
-0.2475,-0.011,0.012,0.0020752498,0.001236,-0.00045775,1741885036.379415
-0.2485,-0.01075,0.015,0.00169375,0.00148,0.00039675,1741885036.393811
-0.24925,-0.0055,0.0195,0.00143425,0.0016175,0.00102225,1741885036.408216
-0.24975,0.001,0.02225,0.0013885,0.0018005001,0.0009155,1741885036.4224582
-0.2525,0.01025,0.0165,0.0012665,0.001892,0.000229,1741885036.436745
-0.253,0.01125,0.01425,0.000122000005,0.0017242499,-0.00146475,1741885036.451133
-0.25225,0.00475,0.01325,-0.00062550005,0.001587,-0.0021972498,1741885036.4656541
-0.252,-0.00075,0.012,-0.0013275,0.0013427499,-0.0029907501,1741885036.480203
-0.25125,-0.01,0.012,-0.00102225,0.00108325,-0.00302125,1741885036.4947782
-0.25,-0.0115,0.01425,-0.00051875,0.00068675,-0.00276175,1741885036.509324
-0.249,-0.0105,0.016,0.00061025,-0.0001525,-0.00169375,1741885036.523851
-0.25,-0.0035,0.01625,0.00102225,-0.00048825,-0.00137325,1741885036.539059
-0.25,0.0,0.01675,0.001175,-0.00086975005,-0.00131225,1741885036.552943
-0.25075,0.00175,0.01625,0.00096125,-0.00090025004,-0.00137325,1741885036.567908
-0.251,0.00025,0.016,0.00036625,-0.00112925,-0.00146475,1741885036.58185
-0.24975,-0.0,0.02,0.00027475,-0.0012665,-0.00143425,1741885036.5965261
-0.2495,0.00125,0.022,0.00051875,-0.00109875,-0.00169375,1741885036.610961
-0.2475,0.0015,0.02525,0.00062550005,-0.00074775,-0.00204475,1741885036.625452
-0.2455,-0.00025,0.027,0.00071725,-0.0003205,-0.00231925,1741885036.639999
-0.24325,0.0005,0.0265,0.0009155,0.00042725,-0.0021819999,1741885036.654331
-0.24275,0.00375,0.02525,0.0010375,0.00064075,-0.00198375,1741885036.6686668
-0.24225,0.00675,0.0245,0.00108325,0.00099175,-0.00198375,1741885036.683072
-0.2425,0.00625,0.021,0.00090025004,0.00125125,-0.00201425,1741885036.698616
-0.24325,0.005,0.019,0.00074775,0.00175475,-0.0020295,1741885036.711909
-0.247,0.00325,0.01475,0.001114,0.00184625,-0.00216675,1741885036.726329
-0.24875,0.0025,0.01325,0.00239575,0.00143425,-0.00245675,1741885036.740782
-0.248,0.00325,0.01475,0.002884,0.00112925,-0.002411,1741885036.7551732
-0.24775,0.00475,0.01525,0.0029449998,0.00083925005,-0.00216675,1741885036.769616
-0.24825,0.00575,0.016,0.00177,0.00057975,-0.00125125,1741885036.7840672
-0.25075,0.00775,0.01875,0.00119025,0.00062550005,-0.0007935,1741885036.798738
-0.2525,0.00825,0.01975,0.00093075,0.00067150005,-0.0004425,1741885036.812809
-0.252,0.00725,0.0245,0.000763,0.00074775,-0.00036625,1741885036.828414
-0.2515,0.0055,0.02575,0.00035100002,0.00109875,0.0001525,1741885036.841641
-0.25175,0.00275,0.02675,0.0004425,0.0013427499,0.000473,1741885036.855895
-0.25175,0.0035,0.02625,0.00061025,0.0015565,0.00080875,1741885036.870234
-0.252,0.00975,0.02175,0.00090025004,0.0017852499,0.0012970001,1741885036.884505
-0.2525,0.014,0.01825,0.001068,0.00169375,0.0012207499,1741885036.8988001
-0.252,0.01625,0.0155,0.0005035,0.0010375,0.0005645,1741885036.913054
-0.2485,0.014,0.0165,-0.00045775,0.00070200005,0.00033575002,1741885036.928671
-0.2485,0.01325,0.0185,-0.0018005001,0.00036625,-0.0001525,1741885036.9418082
-0.24925,0.0115,0.02175,-0.0018615,0.00030525,-0.00067150005,1741885036.956207
-0.24875,0.00925,0.0245,-0.0016632499,0.00045775,-0.0014037499,1741885036.970706
-0.247,0.00525,0.02875,-0.00148,0.00071725,-0.00146475,1741885036.985193
-0.24825,0.00475,0.02725,-0.00125125,0.00112925,-0.00137325,1741885036.999659
-0.2505,0.005,0.02375,-0.000534,0.0015565,-0.001068,1741885037.01414
-0.25225,0.004,0.02125,-0.00024425,0.0014495,-0.000885,1741885037.028683
-0.25125,0.0035,0.0225,1.5250001e-05,0.0009765,-0.00029,1741885037.043054
-0.24775,0.00275,0.02575,0.0002135,0.00083925005,0.0,1741885037.057962
-0.24625,0.00375,0.02625,0.00074775,0.00083925005,0.00057975,1741885037.071687
-0.24475,0.0055,0.024,0.00099175,0.00090025004,0.00067150005,1741885037.086036
-0.24425,0.00625,0.0235,0.0011445,0.001007,0.00065625,1741885037.100245
-0.2445,0.008,0.02225,0.0013580001,0.0012055,0.000534,1741885037.114531
-0.24575,0.011,0.01925,0.0015105,0.00108325,0.0004425,1741885037.128832
-0.24575,0.0115,0.019,0.001953,0.000534,0.00027475,1741885037.143177
-0.245,0.00925,0.02275,0.0020752498,0.0002595,0.000183,1741885037.1582432
-0.24425,0.007,0.0265,0.00160225,0.00016775,0.00035100002,1741885037.1718059
-0.24525,0.0045,0.03075,0.0012817499,0.00039675,0.00062550005,1741885037.186112
-0.2465,0.0045,0.03025,0.00105275,0.00064075,0.00093075,1741885037.200413
-0.248,0.00475,0.0285,0.00064075,0.0010375,0.00154125,1741885037.21474
-0.25225,0.0065,0.02175,0.00048825,0.00102225,0.0017242499,1741885037.229015
-0.253,0.00575,0.01975,0.0005035,0.0003815,0.00177,1741885037.243253
-0.24925,0.00225,0.02275,0.00064075,-0.000183,0.0018615,1741885037.258629
-0.24875,-0.0005,0.0245,0.00057975,-0.00074775,0.0024872501,1741885037.27211
-0.2455,-0.003,0.0295,0.000534,-0.00057975,0.00283825,1741885037.286623
-0.2455,-0.00275,0.03025,0.00054925,-0.00030525,0.00325,1741885037.30112
-0.246,-0.002,0.03075,0.00036625,0.000122000005,0.00416575,1741885037.3156521
-0.24925,0.001,0.0295,0.000122000005,0.0002595,0.004547,1741885037.329831
-0.252,0.00275,0.02675,-0.00068675,0.00062550005,0.00419625,1741885037.344267
-0.2505,0.0025,0.0255,-0.00112925,0.0007325,0.003662,1741885037.358649
-0.2495,-0.0,0.02525,-0.0016632499,0.00071725,0.003128,1741885037.3731341
-0.2485,-0.007,0.02525,-0.00187675,0.00057975,0.0032347501,1741885037.388472
-0.24725,-0.009,0.027,-0.0019225,0.0002595,0.003769,1741885037.402112
-0.245,-0.0095,0.03075,-0.0017852499,0.0002135,0.0040587503,1741885037.4177449
-0.24525,-0.008,0.031,-0.001709,0.0002135,0.00437925,1741885037.431128
-0.246,-0.0065,0.02925,-0.00193775,0.00033575002,0.00488275,1741885037.4456809
-0.24775,-0.0055,0.026,-0.0022125002,0.00035100002,0.0049590003,1741885037.460161
-0.248,-0.0065,0.0255,-0.00251775,0.00030525,0.00460825,1741885037.474655
-0.24675,-0.0085,0.0265,-0.00254825,0.00030525,0.0042572496,1741885037.4891431
-0.246,-0.00875,0.02675,-0.0025025,0.00030525,0.00364675,1741885037.503638
-0.24625,-0.01,0.0265,-0.00242625,0.00030525,0.00340275,1741885037.518121
-0.2465,-0.01125,0.026,-0.0021515,0.00013725001,0.00296025,1741885037.5326452
-0.248,-0.01075,0.0245,-0.0020599999,0.0,0.00279225,1741885037.548286
-0.24775,-0.01,0.024,-0.0020752498,-0.00016775,0.00267025,1741885037.561703
-0.247,-0.0105,0.02425,-0.002243,-0.00071725,0.0026245,1741885037.576206
-0.24625,-0.0135,0.02475,-0.002472,-0.00096125,0.0027465,1741885037.5907872
-0.24575,-0.015,0.025,-0.00302125,-0.001236,0.0031585,1741885037.605311
-0.24675,-0.0165,0.02575,-0.0030365,-0.0014037499,0.003296,1741885037.619904
-0.24775,-0.01525,0.025,-0.0025940002,-0.001831,0.0028687501,1741885037.6344981
-0.248,-0.0135,0.0255,-0.002533,-0.0019685,0.0024872501,1741885037.64908
-0.24775,-0.0145,0.02625,-0.002884,-0.0019225,0.00213625,1741885037.663647
-0.248,-0.0155,0.024,-0.0030365,-0.001831,0.00216675,1741885037.678538
-0.24825,-0.01625,0.02175,-0.0031127501,-0.001953,0.0020599999,1741885037.692814
-0.24825,-0.02025,0.0215,-0.003006,-0.0021515,0.0019989999,1741885037.707962
-0.248,-0.021,0.0225,-0.0027465,-0.002243,0.0020295,1741885037.721934
-0.248,-0.0205,0.0225,-0.00190725,-0.0023497501,0.0019225,1741885037.7365131
-0.24925,-0.01925,0.0215,-0.001526,-0.0022735,0.00169375,1741885037.751095
-0.24975,-0.0185,0.022,-0.00125125,-0.00187675,0.00090025004,1741885037.7657049
-0.25025,-0.021,0.02325,-0.0013427499,-0.0016785001,0.00048825,1741885037.7802932
-0.24975,-0.0225,0.02325,-0.0016175,-0.0013580001,0.0004425,1741885037.7947981
-0.24975,-0.02275,0.0215,-0.00160225,-0.0012665,0.00070200005,1741885037.809459
-0.24925,-0.02175,0.022,-0.00146475,-0.0013275,0.000763,1741885037.8240068
-0.248,-0.021,0.02375,-0.0012817499,-0.0012665,0.00054925,1741885037.838911
-0.24725,-0.02125,0.023,-0.000763,-0.00090025004,0.00035100002,1741885037.853056
-0.24775,-0.02125,0.0225,-0.0004425,-0.00064075,0.0004425,1741885037.8676841
-0.24925,-0.02075,0.02075,-0.000412,-0.0004425,0.00051875,1741885037.882215
-0.25025,-0.0205,0.018,-0.00059500005,-0.00051875,0.00051875,1741885037.896692
-0.25025,-0.02075,0.016,-0.00057975,-0.00068675,0.00048825,1741885037.911215
-0.2495,-0.02175,0.01725,-0.0007325,-0.00096125,0.00045775,1741885037.9258308
-0.24925,-0.0235,0.01925,-0.000763,-0.00099175,0.0004425,1741885037.940386
-0.24875,-0.024,0.01975,-0.00027475,-0.00080875,0.00051875,1741885037.954866
-0.247,-0.02425,0.02025,-0.0002135,-0.00071725,0.00059500005,1741885037.969485
-0.24675,-0.02375,0.02,-0.000412,-0.00061025,0.00080875,1741885037.984027
-0.2475,-0.02275,0.019,-0.00030525,-0.000763,0.00086975005,1741885037.998614
-0.248,-0.02225,0.0185,-0.00010675,-0.00115975,0.00090025004,1741885038.013195
-0.24675,-0.02125,0.01675,-0.00036625,-0.001236,0.0010375,1741885038.0287051
-0.24625,-0.02125,0.01675,-0.0008545,-0.0012817499,0.00125125,1741885038.0425222
-0.24725,-0.0215,0.01575,-0.001953,-0.00137325,0.001831,1741885038.05852
-0.24975,-0.02375,0.0125,-0.00231925,-0.00148,0.00204475,1741885038.071646
-0.2515,-0.0245,0.01175,-0.0021515,-0.00177,0.00184625,1741885038.086216
-0.25125,-0.02375,0.0135,-0.00169375,-0.0017395001,0.00146475,1741885038.1007848
-0.24975,-0.024,0.015,-0.0013885,-0.00181575,0.00065625,1741885038.115508
-0.248,-0.02625,0.017,-0.001831,-0.001831,0.00061025,1741885038.130095
-0.2485,-0.02775,0.01725,-0.0025634998,-0.0017242499,0.0012665,1741885038.1447182
-0.24875,-0.02825,0.0165,-0.00245675,-0.0015105,0.0016632499,1741885038.1592908
-0.24975,-0.027,0.015,-0.0020295,-0.0013580001,0.00177,1741885038.1738071
-0.25075,-0.0245,0.01275,-0.00193775,-0.00146475,0.00160225,1741885038.188994
-0.25025,-0.02425,0.012,-0.001831,-0.001526,0.00149525,1741885038.202991
-0.24925,-0.02425,0.01125,-0.00160225,-0.0016175,0.0012665,1741885038.217667
-0.248,-0.028,0.01175,-0.0016175,-0.00169375,0.00109875,1741885038.232076
-0.24725,-0.03,0.0125,-0.00169375,-0.0015105,0.001068,1741885038.246649
-0.24675,-0.0285,0.01325,-0.00157175,-0.00131225,0.00112925,1741885038.261127
-0.247,-0.0275,0.013,-0.001526,-0.0012207499,0.0012665,1741885038.275712
-0.2475,-0.02925,0.01175,-0.0016785001,-0.0013275,0.0014037499,1741885038.290333
-0.24725,-0.031,0.0115,-0.0021972498,-0.00148,0.00216675,1741885038.304888
-0.24725,-0.03475,0.0115,-0.00242625,-0.0015565,0.00263975,1741885038.319484
-0.2475,-0.036,0.01175,-0.0024414998,-0.0016175,0.0033722501,1741885038.3341188
-0.24675,-0.03575,0.01025,-0.00242625,-0.0016632499,0.00352475,1741885038.34868
-0.246,-0.035,0.01025,-0.0025634998,-0.0017395001,0.00355525,1741885038.363188
-0.246,-0.0335,0.0105,-0.00314325,-0.00198375,0.0035704998,1741885038.3788328
-0.24525,-0.02925,0.00875,-0.0034790002,-0.0022277501,0.003662,1741885038.392392
-0.24525,-0.02775,0.007,-0.0043182503,-0.00305175,0.0036315,1741885038.408525
-0.2465,-0.029,0.00525,-0.0049285004,-0.0035095,0.00340275,1741885038.421571
-0.246,-0.03075,0.00475,-0.0054475004,-0.00381475,0.00267025,1741885038.4361758
-0.24675,-0.035,0.003,-0.00491325,-0.00354,0.0021515,1741885038.450826
-0.24725,-0.03775,0.0025,-0.00251775,-0.0022735,0.00112925,1741885038.4654112
-0.2455,-0.04025,0.00425,-0.001526,-0.001709,0.00068675,1741885038.4800131
-0.2445,-0.0405,0.005,-0.00024425,-0.00146475,0.00070200005,1741885038.4945989
-0.247,-0.03975,0.00025,0.00054925,-0.0016175,0.00099175,1741885038.509121
-0.24875,-0.038,-0.00275,0.00160225,-0.00169375,0.001007,1741885038.5237482
-0.24925,-0.037,-0.00425,0.0037385002,-0.00157175,0.00027475,1741885038.538916
-0.2465,-0.03825,-0.003,0.0044707498,-0.00163275,-3.0500001e-05,1741885038.5529048
-0.24675,-0.039,-0.00275,0.0055085,-0.00184625,-0.0002595,1741885038.5676658
-0.24775,-0.0415,-0.00125,0.0060272496,-0.00175475,-0.00035100002,1741885038.582294
-0.2485,-0.0435,-0.00075,0.00785825,-0.0005035,-0.000229,1741885038.597013
-0.24775,-0.04425,-0.0025,0.00903325,0.0004425,7.625e-05,1741885038.611491
-0.248,-0.04275,-0.0045,0.0093385,0.0005035,0.00068675,1741885038.625907
-0.2485,-0.0415,-0.00825,0.008361749,-0.0004425,0.00109875,1741885038.640398
-0.24775,-0.04025,-0.00875,0.007553,-0.00201425,0.0019685,1741885038.6549928
-0.24825,-0.03525,-0.007,0.0075682504,-0.00263975,0.00187675,1741885038.669497
-0.24725,-0.0325,-0.0035,0.0072937496,-0.0029449998,0.0014037499,1741885038.684122
-0.2455,-0.03075,0.00125,0.005783,-0.0026092501,0.00010675,1741885038.698681
-0.2445,-0.02825,0.00625,0.0050202496,-0.00193775,-0.000412,1741885038.713181
-0.2455,-0.03,0.00475,0.0042267498,-0.00033575002,-0.0014037499,1741885038.7287538
-0.246,-0.03675,0.00125,0.0038299998,0.00024425,-0.0017242499,1741885038.742141
-0.2465,-0.03825,-0.00075,0.00302125,0.00102225,-0.0015105,1741885038.756684
-0.2485,-0.0375,-0.002,0.0023039998,0.0009765,-0.0013885,1741885038.771253
-0.2495,-0.03775,-0.00225,0.00080875,0.00039675,-0.0012970001,1741885038.785891
-0.25,-0.039,-0.0025,0.00057975,0.00024425,-0.00115975,1741885038.80042
-0.24975,-0.03925,-0.002,0.00105275,0.0,-0.00080875,1741885038.814979
-0.2505,-0.0375,-0.003,0.0013885,-0.0002595,-0.00077825,1741885038.829621
-0.24975,-0.0365,-0.00225,0.0016632499,-0.00042725,-0.00090025004,1741885038.844244
-0.24825,-0.03625,-0.0015,0.0017852499,-0.00019825,-0.00108325,1741885038.858922
-0.24525,-0.03825,-0.0015,0.00143425,6.1000002e-05,-0.001007,1741885038.873483
-0.24475,-0.03875,-0.00225,0.00030525,4.575e-05,-0.00039675,1741885038.8888671
-0.2475,-0.03675,-0.00675,-0.00010675,-0.00016775,-0.00010675,1741885038.9028711
-0.2485,-0.0365,-0.0085,-0.00042725,-0.0005035,-0.00013725001,1741885038.917728
-0.24875,-0.0365,-0.008,-0.00039675,-0.00057975,-0.00024425,1741885038.932466
-0.24825,-0.037,-0.006,-0.0003205,-0.00045775,-0.0003815,1741885038.947834
-0.24725,-0.038,-0.00125,-0.0004425,-0.0002595,-0.00045775,1741885038.962112
-0.248,-0.03825,-0.0005,-0.00093075,0.000183,-0.00045775,1741885038.978009
-0.25025,-0.0375,-0.0025,-0.00108325,0.00036625,-0.00033575002,1741885038.991255
-0.25175,-0.03625,-0.00475,-0.0012817499,0.00061025,-0.00035100002,1741885039.0058692
-0.25375,-0.036,-0.009,-0.00146475,0.00062550005,-0.000473,1741885039.0205781
-0.25325,-0.037,-0.01,-0.00160225,0.00045775,-0.000534,1741885039.03526
-0.2495,-0.03925,-0.0075,-0.001587,-0.000229,-0.00039675,1741885039.049979
-0.2485,-0.03975,-0.0065,-0.00131225,-0.00036625,-0.00027475,1741885039.0647
-0.24875,-0.0385,-0.006,3.0500001e-05,0.00013725001,-0.000122000005,1741885039.0792818
-0.25,-0.03125,-0.0055,0.00077825,0.0003205,-0.00010675,1741885039.0939221
-0.25025,-0.02825,-0.00575,0.00112925,0.000122000005,-0.0003815,1741885039.108768
-0.24925,-0.029,-0.0075,0.000824,0.00010675,-0.00065625,1741885039.122964
-0.2485,-0.031,-0.00725,0.00029,0.00029,-0.00115975,1741885039.1391082
-0.24675,-0.033,-0.00375,0.00033575002,0.0002595,-0.0013275,1741885039.152046
-0.24625,-0.034,-0.0025,0.00051875,6.1000002e-05,-0.00119025,1741885039.167695
-0.2455,-0.0345,-0.002,0.00036625,6.1000002e-05,-0.00090025004,1741885039.18124
-0.24525,-0.03475,-0.00225,0.00019825,0.0002135,-0.00051875,1741885039.195793
-0.246,-0.03525,-0.00425,0.0002595,0.00033575002,-0.0005035,1741885039.210366
-0.2465,-0.035,-0.0055,0.0002595,0.00042725,-0.0005645,1741885039.225096
-0.24625,-0.034,-0.0065,0.00010675,0.00048825,-0.000763,1741885039.239685
-0.24575,-0.035,-0.0065,-1.5250001e-05,0.0004425,-0.00083925005,1741885039.2543669
-0.24575,-0.0345,-0.006,-0.000183,0.00029,-0.00067150005,1741885039.2691069
-0.246,-0.0335,-0.0065,-7.625e-05,0.000183,-0.0005035,1741885039.283747
-0.246,-0.0345,-0.00675,0.00013725001,-0.0001525,-0.00033575002,1741885039.298452
-0.245,-0.035,-0.00375,0.00029,-0.0002595,-0.000412,1741885039.313097
-0.24475,-0.03425,-0.00225,0.00048825,-0.0002135,-0.00054925,1741885039.328671
-0.24725,-0.03175,-0.00375,0.000412,-0.00010675,-0.00054925,1741885039.342486
-0.2485,-0.0315,-0.00525,0.0002595,0.000122000005,-0.00086975005,1741885039.358439
-0.24825,-0.0345,-0.00675,0.0002135,0.0001525,-0.00112925,1741885039.371685
-0.24725,-0.0365,-0.0055,0.000412,0.00016775,-0.0013275,1741885039.3863528
-0.247,-0.0355,-0.00425,0.00051875,0.00010675,-0.001175,1741885039.400964
-0.24775,-0.03425,-0.00425,0.00062550005,6.1000002e-05,-0.00096125,1741885039.415493
-0.24825,-0.0335,-0.004,0.00093075,-1.5250001e-05,-0.00071725,1741885039.4301891
-0.24925,-0.0325,-0.00475,0.001114,1.5250001e-05,-0.00070200005,1741885039.444799
-0.24925,-0.03225,-0.0045,0.00108325,-6.1000002e-05,-0.0008545,1741885039.459471
-0.24775,-0.03425,-0.00375,0.00051875,-0.00027475,-0.0007325,1741885039.474163
-0.248,-0.03525,-0.00325,-0.00030525,-0.00051875,0.0003205,1741885039.488984
-0.24925,-0.03475,-0.00125,-3.0500001e-05,-0.0005035,0.000763,1741885039.503649
-0.249,-0.03175,0.00025,0.0009765,-0.00035100002,0.00080875,1741885039.5180721
-0.2485,-0.026,0.00125,0.00137325,-0.00019825,0.00057975,1741885039.5326269
-0.24825,-0.02475,0.0015,0.00112925,0.000183,9.15e-05,1741885039.548227
-0.24925,-0.02675,-0.002,0.0005035,0.00048825,1.5250001e-05,1741885039.5613692
-0.25025,-0.0295,-0.00525,-0.00016775,0.00083925005,0.0,1741885039.5759811
-0.25075,-0.03225,-0.007,-0.00048825,0.0012817499,7.625e-05,1741885039.5904589
-0.2495,-0.03425,-0.00475,-9.15e-05,0.0012055,0.000122000005,1741885039.605008
-0.249,-0.0325,-0.003,0.0008545,0.00096125,7.625e-05,1741885039.6194391
-0.2485,-0.02825,-0.00275,0.00099175,0.000824,1.5250001e-05,1741885039.6339872
-0.24825,-0.02675,-0.00325,0.00048825,0.00070200005,-0.000122000005,1741885039.6486
-0.24875,-0.02925,-0.00575,3.0500001e-05,0.00071725,-0.000183,1741885039.6631858
-0.24925,-0.032,-0.00775,-0.00068675,0.00059500005,-0.00019825,1741885039.6786351
-0.248,-0.035,-0.0105,-0.0007325,0.00042725,-0.00010675,1741885039.692472
-0.24675,-0.036,-0.0105,-0.0002595,0.00013725001,0.00029,1741885039.708458
-0.24525,-0.034,-0.0085,0.00013725001,1.5250001e-05,0.000473,1741885039.721559
-0.245,-0.0325,-0.00775,0.000473,-0.000122000005,0.00059500005,1741885039.736174
-0.24475,-0.0315,-0.00725,0.00080875,-0.0003815,0.000763,1741885039.750785
-0.24575,-0.02925,-0.00725,0.0010375,-0.00039675,0.000763,1741885039.765373
-0.24575,-0.02875,-0.006,0.0013580001,-0.000229,0.000534,1741885039.7800598
-0.2455,-0.029,-0.00225,0.0011445,-7.625e-05,0.00061025,1741885039.7946088
-0.24575,-0.02975,-0.00125,0.0004425,0.00042725,0.00090025004,1741885039.809112
-0.24725,-0.03375,-0.004,0.0002135,0.00057975,0.001068,1741885039.8236952
-0.24975,-0.033,-0.0085,0.00096125,0.00030525,0.00093075,1741885039.8388538
-0.25125,-0.03,-0.01075,0.0017242499,-4.575e-05,0.00054925,1741885039.852681
-0.25025,-0.02775,-0.00825,0.0022125002,-0.000412,0.0002135,1741885039.867687
-0.24625,-0.0275,-0.001,0.0021819999,-0.00077825,-0.00013725001,1741885039.8822038
-0.24575,-0.02825,0.00075,0.00201425,-0.00074775,-0.000229,1741885039.8977978
-0.247,-0.0285,0.001,0.00216675,-0.00019825,-0.0008545,1741885039.911388
-0.2495,-0.0315,0.00075,0.002365,0.00036625,-0.0013275,1741885039.9259892
-0.2495,-0.03325,0.00125,0.00213625,0.0016175,-0.00163275,1741885039.940479
-0.25025,-0.03475,0.0005,0.0018615,0.00201425,-0.00131225,1741885039.9549792
-0.25175,-0.034,-0.0005,0.0020905002,0.00193775,-0.0005645,1741885039.969588
-0.25175,-0.03225,-0.00225,0.0021819999,0.001526,-0.00057975,1741885039.9841769
-0.2515,-0.03,-0.00275,0.0021972498,0.00077825,-0.0010375,1741885039.998831
-0.2505,-0.0295,-0.0005,0.0022125002,0.00068675,-0.0013275,1741885040.013349
-0.24925,-0.02975,0.0025,0.001709,0.000885,-0.0019989999,1741885040.0286841
-0.247,-0.03075,0.007,0.001526,0.001114,-0.00245675,1741885040.042599
-0.246,-0.031,0.009,0.00131225,0.0015105,-0.002777,1741885040.058466
-0.247,-0.029,0.00975,0.0003815,0.0027160002,-0.0027312501,1741885040.071574
-0.25,-0.02425,0.007,4.575e-05,0.00354,-0.0028074998,1741885040.086072
-0.2495,-0.02325,0.005,-0.00048825,0.004547,-0.0034790002,1741885040.100698
-0.24925,-0.0285,0.00325,-0.0005035,0.00469975,-0.0033875,1741885040.1152499
-0.24975,-0.03175,0.003,-0.00096125,0.0047150003,-0.00228875,1741885040.129787
-0.24775,-0.039,0.003,-0.0012207499,0.0045165,-0.001709,1741885040.144354
-0.24775,-0.04075,0.0035,-0.0009155,0.0039825,-0.00059500005,1741885040.159074
-0.251,-0.03225,0.00075,-0.0008545,0.00355525,-0.000183,1741885040.173664
-0.2525,-0.02525,-0.00175,-7.625e-05,0.0023497501,-0.00036625,1741885040.188501
-0.25,-0.01625,-0.00125,0.000412,0.001709,-0.00077825,1741885040.20304
-0.24775,-0.0175,0.002,0.00070200005,0.001236,-0.001114,1741885040.217629
-0.24575,-0.021,0.00525,-6.1000002e-05,0.001114,-0.0012207499,1741885040.232194
-0.246,-0.027,0.007,-0.00054925,0.0013275,-0.001236,1741885040.2467709
-0.24725,-0.0265,0.007,-0.00067150005,0.00163275,-0.0012207499,1741885040.261344
-0.249,-0.02325,0.0045,-0.0003815,0.0012817499,-0.001007,1741885040.280342
-0.2485,-0.02275,0.0045,0.00029,7.625e-05,-0.00064075,1741885040.2927418
-0.246,-0.0235,0.00875,0.00045775,-0.000183,-0.00051875,1741885040.305705
-0.24525,-0.02375,0.01075,0.0003815,-4.575e-05,-0.000229,1741885040.319455
-0.24625,-0.023,0.011,0.00029,-3.0500001e-05,1.5250001e-05,1741885040.333867
-0.247,-0.0235,0.00925,-3.0500001e-05,-0.00030525,0.00051875,1741885040.348518
-0.2465,-0.0265,0.0095,-0.00016775,-0.00033575002,0.00070200005,1741885040.363091
-0.2465,-0.02825,0.011,-0.000229,-0.00029,0.0009155,1741885040.3782852
-0.247,-0.02925,0.01125,-0.000412,-0.000229,0.0017395001,1741885040.392266
-0.24875,-0.028,0.0075,-0.000534,-0.0003205,0.00231925,1741885040.4084961
-0.25,-0.0265,0.00525,-0.00051875,-0.00080875,0.0031585,1741885040.421702
-0.2485,-0.02725,0.0055,-0.00057975,-0.001236,0.0033570002,1741885040.4362419
-0.24625,-0.02825,0.0075,-0.00071725,-0.0018615,0.003952,1741885040.450766
-0.244,-0.026,0.009,-0.0007935,-0.0019989999,0.0044250004,1741885040.465355
-0.2455,-0.0255,0.00775,-0.001648,-0.0022735,0.0052337497,1741885040.4800901
-0.24925,-0.02425,0.0045,-0.0021515,-0.00242625,0.00514225,1741885040.494653
-0.25,-0.02475,0.00275,-0.002411,-0.0025940002,0.00413525,1741885040.509176
-0.25,-0.02725,0.0005,-0.002533,-0.00263975,0.0036162501,1741885040.523784
-0.2485,-0.02875,0.0015,-0.00270075,-0.0027160002,0.0032195,1741885040.538765
-0.2465,-0.03,0.00325,-0.0030669998,-0.003006,0.00279225,1741885040.5529559
-0.24725,-0.0315,0.00475,-0.003128,-0.0029755002,0.0026092501,1741885040.567703
-0.2485,-0.03325,0.005,-0.00270075,-0.0024414998,0.0019685,1741885040.582117
-0.25,-0.03525,0.00375,-0.0023345,-0.00216675,0.001587,1741885040.5966752
-0.25075,-0.0355,0.00275,-0.00184625,-0.00193775,0.0011445,1741885040.611373
-0.25075,-0.036,0.00075,-0.00163275,-0.001892,0.00108325,1741885040.626079
-0.25075,-0.0365,0.0,-0.0009155,-0.0017395001,0.00080875,1741885040.64066
-0.24725,-0.03875,0.003,-0.00057975,-0.001587,0.0005645,1741885040.655159
-0.24575,-0.03975,0.00525,-0.00024425,-0.00099175,0.00061025,1741885040.6697521
-0.24675,-0.039,0.005,-0.000229,-0.00065625,0.000824,1741885040.6843572
-0.2475,-0.03925,0.00325,-0.00033575002,-0.00039675,0.00102225,1741885040.698974
-0.24675,-0.0425,0.002,-0.00077825,-0.000122000005,0.0012970001,1741885040.713583
-0.246,-0.04525,0.00275,-0.0009155,3.0500001e-05,0.0014037499,1741885040.728721
-0.24425,-0.04725,0.00425,-0.00083925005,0.00048825,0.00198375,1741885040.742701
-0.24075,-0.0465,0.00875,-0.0007325,0.0007935,0.002365,1741885040.758524
-0.2395,-0.04525,0.01125,-0.00108325,0.00175475,0.0028535,1741885040.7716212
-0.2385,-0.04475,0.014,-0.001648,0.002365,0.00305175,1741885040.7861109
-0.2395,-0.04575,0.01375,-0.0027160002,0.0034942501,0.00390625,1741885040.8006039
-0.2455,-0.04525,0.00975,-0.003006,0.0039215,0.004486,1741885040.8150668
-0.248,-0.04175,0.00575,-0.0030975002,0.0045012496,0.00505075,1741885040.829661
-0.253,-0.033,-0.00475,-0.0028229998,0.00434875,0.0045777503,1741885040.844173
-0.254,-0.03475,-0.0085,-0.00225825,0.0038757501,0.0036162501,1741885040.858797
-0.25375,-0.03625,-0.0115,-0.0016785001,0.00245675,0.00163275,1741885040.873321
-0.25125,-0.03875,-0.01375,-0.0018005001,0.0015565,0.0010375,1741885040.888809
-0.25025,-0.0415,-0.01175,-0.00149525,-0.000412,0.0002135,1741885040.902646
-0.24625,-0.047,-0.0015,-0.00083925005,-0.00115975,-0.0002135,1741885040.917644
-0.24425,-0.04775,0.003,0.0002135,-0.0017852499,-0.00065625,1741885040.932064
-0.2445,-0.046,0.0075,0.00019825,-0.00175475,-0.00054925,1741885040.946667
-0.2475,-0.0445,0.006,-0.00010675,-0.001587,-0.00039675,1741885040.961216
-0.251,-0.0445,0.003,-0.000122000005,-0.00160225,-0.00062550005,1741885040.9758542
-0.25,-0.04575,0.00375,0.00013725001,-0.001587,-0.001068,1741885040.990477
-0.2475,-0.047,0.00725,0.00035100002,-0.00146475,-0.00109875,1741885041.00496
-0.248,-0.0455,0.00625,0.00065625,-0.0012817499,-0.001068,1741885041.0195782
-0.2485,-0.04175,0.0025,0.001236,-0.001114,-0.00119025,1741885041.034133
-0.2465,-0.041,0.00275,0.0012970001,-0.001236,-0.00131225,1741885041.0487611
-0.24425,-0.04175,0.00425,0.00093075,-0.0013275,-0.0015105,1741885041.063152
-0.24025,-0.0455,0.009,0.00070200005,-0.00109875,-0.001526,1741885041.078728
-0.239,-0.0465,0.011,0.0004425,-0.00039675,-0.001068,1741885041.092441
-0.241,-0.04525,0.009,0.00048825,-3.0500001e-05,-0.00077825,1741885041.1085608
-0.244,-0.04275,0.005,0.0005645,0.00054925,-0.00068675,1741885041.12155
-0.24875,-0.039,-0.002,0.0005035,0.00065625,-0.0008545,1741885041.136132
-0.2495,-0.03975,-0.0035,0.00033575002,0.00019825,-0.00112925,1741885041.1507351
-0.25,-0.04275,-0.0035,0.000412,-0.00019825,-0.00115975,1741885041.16542
-0.24925,-0.04425,-0.00175,0.00070200005,-0.00051875,-0.00119025,1741885041.180029
-0.24575,-0.04575,0.00425,0.0013427499,-0.0009155,-0.0012817499,1741885041.194636
-0.24475,-0.046,0.00575,0.00154125,-0.0009155,-0.0012665,1741885041.2091331
-0.24425,-0.04575,0.0065,0.0013427499,-0.000534,-0.001068,1741885041.223768
-0.2465,-0.04325,0.00525,0.00102225,-0.0002595,-0.000885,1741885041.2389278
-0.24925,-0.04175,0.003,0.00064075,7.625e-05,-0.000473,1741885041.252967
-0.253,-0.0405,-0.00125,0.00062550005,1.5250001e-05,-0.0003815,1741885041.2676852
-0.25375,-0.03975,-0.00175,0.0007325,-0.00042725,-0.00061025,1741885041.2822459
-0.25125,-0.0415,0.001,0.00071725,-0.00065625,-0.0007935,1741885041.297651
-0.24975,-0.042,0.00375,0.00071725,-0.00080875,-0.000824,1741885041.3114932
-0.249,-0.04075,0.00875,0.0009765,-0.00065625,-0.0008545,1741885041.326037
-0.24925,-0.039,0.01025,0.0013885,9.15e-05,-0.00108325,1741885041.340673
-0.25,-0.03725,0.0075,0.0013275,0.000473,-0.001114,1741885041.355139
-0.25075,-0.03725,0.00325,0.0011445,0.00067150005,-0.00108325,1741885041.369665
-0.251,-0.0375,-0.0,0.00090025004,0.0005645,-0.00108325,1741885041.3842309
-0.249,-0.03975,-0.001,0.000946,0.00045775,-0.00115975,1741885041.398792
-0.2475,-0.04075,0.0005,0.0012207499,0.00029,-0.001114,1741885041.413235
-0.2465,-0.04025,0.00175,0.00137325,0.00029,-0.0010375,1741885041.42882
-0.2465,-0.0385,0.0005,0.001709,0.0004425,-0.00109875,1741885041.442236
-0.24675,-0.037,-0.002,0.001831,0.0005035,-0.001236,1741885041.456733
-0.24675,-0.03675,-0.00275,0.00204475,0.00045775,-0.00137325,1741885041.471367
-0.2475,-0.03525,-0.0035,0.0020905002,0.00029,-0.0012817499,1741885041.485945
-0.248,-0.03425,-0.0035,0.0020905002,6.1000002e-05,-0.001175,1741885041.500572
-0.248,-0.03375,-0.003,0.0019685,-0.0004425,-0.00109875,1741885041.515229
-0.2455,-0.034,-0.0,0.00190725,-0.00065625,-0.0011445,1741885041.529858
-0.24375,-0.035,0.00175,0.00187675,-0.00083925005,-0.0012665,1741885041.544396
-0.2425,-0.03575,0.0055,0.0018615,-0.000824,-0.0012207499,1741885041.558929
-0.24325,-0.03375,0.006,0.0019685,-0.00054925,-0.0008545,1741885041.5735638
-0.24475,-0.03,0.003,0.00193775,-0.00033575002,-0.000824,1741885041.588476
-0.245,-0.02975,0.0025,0.0014037499,-3.0500001e-05,-0.00109875,1741885041.602758
-0.24525,-0.03275,0.00375,0.00112925,-1.5250001e-05,-0.00119025,1741885041.618117
-0.245,-0.035,0.004,0.00083925005,-6.1000002e-05,-0.001114,1741885041.6319401
-0.2465,-0.03625,0.00275,0.0007935,3.0500001e-05,-0.00099175,1741885041.646501
-0.247,-0.036,0.00175,0.0007325,0.00019825,-0.000885,1741885041.6609752
-0.248,-0.036,0.0005,0.00042725,0.00024425,-0.00065625,1741885041.675488
-0.24775,-0.0365,0.00075,0.000229,0.00013725001,-0.0005645,1741885041.690165
-0.247,-0.03775,0.0015,-0.00027475,-4.575e-05,-0.0003205,1741885041.7048252
-0.2455,-0.04125,0.004,-0.0007325,-0.000183,-6.1000002e-05,1741885041.719445
-0.24625,-0.04025,0.00475,-0.001526,-0.00039675,0.00042725,1741885041.7340312
-0.2515,-0.036,0.0005,-0.0013885,-0.00030525,0.00033575002,1741885041.748686
-0.253,-0.03575,-0.00175,-0.00109875,-0.00013725001,-0.00029,1741885041.7634969
-0.2515,-0.0385,-0.00025,-0.00112925,-9.15e-05,-0.000473,1741885041.778698
-0.25025,-0.042,0.00075,-0.001175,0.0,-0.0003815,1741885041.792738
-0.24825,-0.0445,0.002,-0.0010375,0.000183,-0.00016775,1741885041.808586
-0.248,-0.04175,0.001,-0.00029,0.00061025,0.0003815,1741885041.821873
-0.24875,-0.032,-0.00275,4.575e-05,0.00061025,0.00061025,1741885041.8363369
-0.24875,-0.028,-0.00475,0.000229,0.00035100002,0.00070200005,1741885041.850871
-0.248,-0.02675,-0.005,-6.1000002e-05,-0.0004425,0.0004425,1741885041.865579
-0.24575,-0.02925,-0.0015,-0.00027475,-0.00071725,0.00027475,1741885041.880258
-0.2445,-0.03075,0.00075,-0.0003205,-0.00093075,1.5250001e-05,1741885041.8947918
-0.244,-0.0295,0.00575,-0.00024425,-0.00086975005,-0.00013725001,1741885041.909472
-0.24475,-0.02825,0.0065,1.5250001e-05,-0.00036625,-0.0005645,1741885041.924067
-0.24775,-0.02875,0.00375,4.575e-05,-3.0500001e-05,-0.00083925005,1741885041.938772
-0.24975,-0.0305,0.00125,-0.00019825,0.00042725,-0.0012970001,1741885041.9531898
-0.25175,-0.03675,-0.0025,-0.0002135,0.000534,-0.00143425,1741885041.9678662
-0.252,-0.03925,-0.00325,3.0500001e-05,0.000534,-0.0012055,1741885041.982375
-0.25075,-0.0415,-0.0035,0.00013725001,0.00054925,-0.0009155,1741885041.996972
-0.2495,-0.04225,-0.0035,0.00019825,0.0005645,-0.00061025,1741885042.011692
-0.24875,-0.039,-0.004,0.00035100002,0.00054925,7.625e-05,1741885042.026161
-0.24875,-0.03525,-0.0045,0.00061025,0.00045775,0.0003205,1741885042.0407481
-0.24875,-0.03175,-0.00425,0.0008545,0.0001525,0.0003815,1741885042.0552619
-0.24825,-0.0285,-0.00175,0.000763,6.1000002e-05,0.00024425,1741885042.0696461
-0.247,-0.02925,-0.00075,0.0005035,-0.00010675,0.0,1741885042.084206
-0.2445,-0.03225,0.001,0.000534,-0.0001525,-6.1000002e-05,1741885042.098711
-0.24425,-0.03175,0.00125,0.00064075,-9.15e-05,0.0,1741885042.113227
-0.24475,-0.031,0.0025,0.000534,-1.5250001e-05,-1.5250001e-05,1741885042.128798
-0.245,-0.03125,0.0035,0.0002595,0.000183,-4.575e-05,1741885042.142231
-0.24575,-0.03225,0.004,0.0002595,0.00029,-4.575e-05,1741885042.156864
-0.247,-0.03225,0.0025,0.0002595,0.00039675,1.5250001e-05,1741885042.171307
-0.24825,-0.0315,0.0005,0.00036625,0.00051875,0.000229,1741885042.185675
-0.2495,-0.03,-0.00175,0.00051875,0.000412,0.00019825,1741885042.200277
-0.2485,-0.03025,-0.00125,0.00065625,-1.5250001e-05,-3.0500001e-05,1741885042.214908
-0.246,-0.03175,0.00175,0.00059500005,-0.00013725001,-7.625e-05,1741885042.229544
-0.246,-0.0325,0.0025,0.000473,-0.0001525,1.5250001e-05,1741885042.244043
-0.246,-0.033,0.00275,0.00045775,-0.00013725001,3.0500001e-05,1741885042.258532
-0.24625,-0.03275,0.00225,0.00057975,-6.1000002e-05,1.5250001e-05,1741885042.2730129
-0.24625,-0.03275,0.00175,0.00059500005,0.0,-3.0500001e-05,1741885042.289641
-0.247,-0.0325,0.00075,0.000473,1.5250001e-05,-7.625e-05,1741885042.302081
-0.248,-0.03225,0.0,0.0002135,-6.1000002e-05,-0.00030525,1741885042.3179588
-0.248,-0.0345,0.00125,1.5250001e-05,-0.00010675,-0.00042725,1741885042.331101
-0.248,-0.03675,0.00175,-0.00054925,-0.0001525,-0.00035100002,1741885042.345784
-0.248,-0.03975,0.00125,-0.000763,-0.00019825,-0.000183,1741885042.360387
-0.24875,-0.0395,-0.0005,-0.00070200005,-0.00030525,0.0002135,1741885042.375006
-0.25025,-0.03825,-0.0035,-0.00067150005,-0.000412,0.00035100002,1741885042.389747
-0.24925,-0.0385,-0.003,-0.0007325,-0.00077825,0.00061025,1741885042.404502
-0.24775,-0.03775,-0.0015,-0.00067150005,-0.00096125,0.00070200005,1741885042.419174
-0.2475,-0.03625,-0.00075,-0.00051875,-0.001068,0.00086975005,1741885042.433882
-0.24825,-0.033,-0.00075,-0.00045775,-0.001068,0.000946,1741885042.4484658
-0.24775,-0.033,-0.00125,-0.00051875,-0.00105275,0.0009155,1741885042.463176
-0.247,-0.0345,-0.00125,-0.00090025004,-0.00090025004,0.0005645,1741885042.478724
-0.24725,-0.0345,-0.0015,-0.000885,-0.000763,0.00033575002,1741885042.492543
-0.2475,-0.0335,-0.00175,-0.0003205,-0.00065625,0.00010675,1741885042.5088
-0.24775,-0.03025,-0.00025,-1.5250001e-05,-0.00070200005,6.1000002e-05,1741885042.5218391
-0.2475,-0.0295,0.00025,0.0003205,-0.00070200005,-0.00010675,1741885042.5364249
-0.24725,-0.03125,0.001,0.000229,-0.00070200005,-0.0002135,1741885042.551022
-0.247,-0.03325,0.0015,-9.15e-05,-0.00048825,-0.0002135,1741885042.565855
-0.24775,-0.0365,0.00075,-0.000122000005,-0.00027475,-0.00016775,1741885042.580588
-0.24825,-0.037,-0.00025,0.00016775,0.0,-6.1000002e-05,1741885042.59516
-0.2485,-0.03525,-0.001,0.0003815,3.0500001e-05,-1.5250001e-05,1741885042.609733
-0.248,-0.03375,-0.0005,0.00062550005,0.00016775,-7.625e-05,1741885042.624328
-0.24875,-0.0325,-0.00125,0.0005645,0.00029,-0.00016775,1741885042.639364
-0.249,-0.0335,-0.0025,0.00039675,0.00042725,-0.00024425,1741885042.65358
-0.248,-0.03725,-0.00375,0.000229,0.0005645,-0.00033575002,1741885042.668124
-0.2475,-0.03775,-0.00425,0.0003205,0.00059500005,-0.00016775,1741885042.682762
-0.2475,-0.037,-0.00475,0.000885,0.00045775,0.00035100002,1741885042.698694
-0.24725,-0.0315,-0.00325,0.00112925,0.00033575002,0.00042725,1741885042.711773
-0.2475,-0.0285,-0.00175,0.00112925,0.00039675,0.0001525,1741885042.726231
-0.249,-0.0265,-0.00275,0.001007,0.0005035,-9.15e-05,1741885042.740746
-0.2495,-0.028,-0.00425,0.00071725,0.000534,-0.0005645,1741885042.75531
-0.24975,-0.0345,-0.00575,0.00051875,0.00048825,-0.00064075,1741885042.769888
-0.2495,-0.03725,-0.00525,0.00019825,0.000412,-0.000473,1741885042.78432
-0.24975,-0.03725,-0.003,0.00027475,0.000412,-0.00030525,1741885042.7988539
-0.25,-0.03575,-0.0025,0.00045775,0.0003815,-0.00013725001,1741885042.813313
-0.25,-0.03425,-0.002,0.00068675,0.000183,0.0001525,1741885042.82873
-0.248,-0.03225,-0.0005,0.00070200005,0.000122000005,0.00024425,1741885042.842788
-0.247,-0.03175,-0.00025,0.00074775,0.000122000005,0.00039675,1741885042.8588202
-0.24625,-0.0295,-0.00175,0.00090025004,7.625e-05,0.0003815,1741885042.871673
-0.24625,-0.02825,-0.003,0.00115975,-0.000183,7.625e-05,1741885042.8863091
-0.24525,-0.028,-0.002,0.001114,-0.00029,-0.000183,1741885042.900956
-0.2445,-0.02925,-0.0005,0.00096125,-0.00045775,-0.0005035,1741885042.915673
-0.2435,-0.03275,0.00225,0.000763,-0.0005035,-0.00054925,1741885042.930351
-0.24425,-0.034,0.00225,0.00051875,-0.00030525,-0.00051875,1741885042.9448519
-0.2465,-0.03475,0.00025,0.00061025,-0.00013725001,-0.0005645,1741885042.959378
-0.24775,-0.0345,-0.00075,0.00068675,-3.0500001e-05,-0.00061025,1741885042.974048
-0.249,-0.037,-0.00225,0.00054925,-9.15e-05,-0.00064075,1741885042.9893749
-0.24875,-0.03875,-0.00225,0.00030525,-0.00016775,-0.0005645,1741885043.003464
-0.24825,-0.04075,-0.0025,9.15e-05,-0.00027475,-0.0001525,1741885043.018174
-0.24775,-0.0415,-0.002,0.0001525,-0.0003815,0.00010675,1741885043.03268
-0.2475,-0.03925,-0.00125,0.000412,-0.000473,0.00059500005,1741885043.048692
-0.24875,-0.034,-0.003,0.00045775,-0.0005035,0.0007325,1741885043.062057
-0.249,-0.03175,-0.0035,0.00030525,-0.00042725,0.0005035,1741885043.076643
-0.24925,-0.0325,-0.00425,0.00010675,-0.00035100002,0.0002135,1741885043.0913122
-0.249,-0.034,-0.00375,-0.000229,-0.00016775,-6.1000002e-05,1741885043.1061518
-0.24825,-0.0365,-0.0025,-0.000229,-0.0001525,-1.5250001e-05,1741885043.120935
-0.24825,-0.03625,-0.00225,0.0,-0.00010675,0.0002135,1741885043.1354501
-0.24875,-0.03325,-0.00375,0.00019825,-4.575e-05,0.000229,1741885043.150047
-0.24875,-0.03175,-0.005,0.00035100002,-0.00019825,0.0002135,1741885043.1646369
-0.2485,-0.031,-0.00575,0.00024425,-0.00039675,0.00019825,1741885043.1792
-0.248,-0.0315,-0.00475,0.000122000005,-0.00054925,0.000122000005,1741885043.193752
-0.2475,-0.03225,-0.003,0.000183,-0.0005645,-0.000122000005,1741885043.208863
-0.24725,-0.0325,-0.00125,0.00039675,-0.0004425,-0.000229,1741885043.2231412
-0.248,-0.033,-0.0025,0.000412,-0.00019825,-0.000229,1741885043.239261
-0.249,-0.035,-0.00475,0.0002595,-0.00016775,-0.000183,1741885043.252408
-0.25,-0.035,-0.0055,0.00057975,-0.0003205,-0.0002135,1741885043.268148
-0.2495,-0.0345,-0.0065,0.000824,-0.00054925,-0.0002595,1741885043.2818508
-0.24875,-0.03475,-0.00575,0.0008545,-0.000946,-0.00029,1741885043.2977788
-0.24925,-0.033,-0.0045,0.00090025004,-0.001007,-0.000412,1741885043.311151
-0.249,-0.033,-0.00375,0.00099175,-0.001175,-0.00071725,1741885043.325886
-0.24825,-0.03425,-0.00225,0.00083925005,-0.001236,-0.00068675,1741885043.340459
-0.248,-0.0355,-0.00225,0.00062550005,-0.001236,-0.00061025,1741885043.355127
-0.2485,-0.03725,-0.00475,0.0005035,-0.00099175,-0.00057975,1741885043.369837
-0.24975,-0.03525,-0.0075,0.00080875,-0.00102225,-0.00062550005,1741885043.384622
-0.2505,-0.03225,-0.00975,0.0015105,-0.0019989999,-0.0009155,1741885043.3994398
-0.249,-0.03,-0.0095,0.00157175,-0.0025940002,-0.00109875,1741885043.414156
-0.248,-0.0305,-0.0085,0.001114,-0.0030669998,-0.0012665,1741885043.428811
-0.24675,-0.03125,-0.00575,0.0009765,-0.0030365,-0.0013275,1741885043.4434009
-0.24625,-0.0325,-0.005,0.00096125,-0.0027160002,-0.001648,1741885043.45825
-0.2475,-0.03425,-0.007,0.00105275,-0.00239575,-0.0017852499,1741885043.472843
-0.24825,-0.03425,-0.01025,0.00115975,-0.0017852499,-0.0016785001,1741885043.4887328
-0.249,-0.032,-0.01575,0.0009155,-0.0017395001,-0.00148,1741885043.5020978
-0.249,-0.03175,-0.016,0.00054925,-0.00204475,-0.00119025,1741885043.516785
-0.24875,-0.029,-0.0145,0.00065625,-0.002243,-0.0012207499,1741885043.531455
-0.2485,-0.0275,-0.01425,0.0012817499,-0.0027160002,-0.00157175,1741885043.546131
-0.24675,-0.0285,-0.01325,0.0013427499,-0.00276175,-0.00160225,1741885043.560719
-0.24575,-0.02875,-0.01175,0.001175,-0.0025787498,-0.0014495,1741885043.5754619
-0.24575,-0.02825,-0.012,0.0009155,-0.001831,-0.001007,1741885043.5901499
-0.246,-0.027,-0.01325,0.00080875,-0.0014495,-0.000824,1741885043.604852
-0.246,-0.026,-0.014,0.00068675,-0.00115975,-0.00083925005,1741885043.619416
-0.247,-0.025,-0.01475,0.000763,-0.001114,-0.000946,1741885043.634136
-0.2475,-0.0245,-0.01525,0.0009765,-0.0009765,-0.00112925,1741885043.648843
-0.24875,-0.026,-0.0165,0.000885,-0.00093075,-0.001175,1741885043.663457
-0.249,-0.0275,-0.019,7.625e-05,-0.00112925,-0.0009765,1741885043.678702
-0.2495,-0.028,-0.0205,-0.00067150005,-0.001526,-0.00070200005,1741885043.692815
-0.248,-0.02825,-0.0175,-0.00048825,-0.001892,-0.0005645,1741885043.708757
-0.24675,-0.0285,-0.01675,-0.000229,-0.0019225,-0.00054925,1741885043.722325
-0.24725,-0.02725,-0.017,-0.00077825,-0.0016632499,-0.0004425,1741885043.739082
-0.249,-0.025,-0.0195,-0.0010375,-0.0014495,-0.0003815,1741885043.752052
-0.24975,-0.025,-0.0225,-0.00112925,-0.0012817499,-0.00036625,1741885043.76807
-0.24825,-0.02625,-0.0235,-0.0012207499,-0.0014495,-0.00045775,1741885043.781552
-0.24725,-0.02625,-0.02275,-0.0012817499,-0.0019685,-0.00061025,1741885043.796243
-0.2475,-0.02425,-0.02475,-0.00108325,-0.0022125002,-0.00059500005,1741885043.8109891
-0.248,-0.023,-0.026,-0.00067150005,-0.0025634998,-0.00067150005,1741885043.825748
-0.24825,-0.02225,-0.0255,-0.00010675,-0.00369275,-0.001175,1741885043.8405492
-0.2475,-0.024,-0.02575,-0.000229,-0.0040587503,-0.00131225,1741885043.855236
-0.24725,-0.0265,-0.0265,-0.00059500005,-0.00434875,-0.00096125,1741885043.8699672
-0.245,-0.02825,-0.025,-0.00062550005,-0.0044250004,-0.00062550005,1741885043.884725
-0.244,-0.028,-0.024,-4.575e-05,-0.0039215,0.00010675,1741885043.89936
-0.2435,-0.026,-0.02275,0.00024425,-0.0034942501,0.00039675,1741885043.913911
-0.24325,-0.02425,-0.0225,0.00051875,-0.00254825,0.00090025004,1741885043.9286249
-0.247,-0.02,-0.0265,0.00062550005,-0.00213625,0.0009765,1741885043.9433
-0.24825,-0.01975,-0.029,0.00059500005,-0.00169375,0.00061025,1741885043.958859
-0.247,-0.023,-0.02775,0.00067150005,-0.00157175,0.00045775,1741885043.972508
-0.2465,-0.02475,-0.02625,0.001419,-0.0011445,0.000412,1741885043.989045
-0.24675,-0.02475,-0.027,0.0017852499,-0.0008545,0.00048825,1741885044.001751
-0.24625,-0.02325,-0.02825,0.00190725,-0.00065625,0.0005645,1741885044.016329
-0.2465,-0.02025,-0.03125,0.0014037499,-0.00045775,0.00057975,1741885044.030986
-0.24675,-0.02025,-0.03275,0.00115975,-0.0004425,0.00048825,1741885044.045563
-0.24675,-0.022,-0.03325,0.000885,-0.00061025,0.00019825,1741885044.0601192
-0.24625,-0.028,-0.033,0.00065625,-0.00057975,7.625e-05,1741885044.074653
-0.24675,-0.03025,-0.03275,0.00029,-0.0005035,0.0001525,1741885044.0892951
-0.24775,-0.031,-0.033,0.00030525,-0.0005035,0.00029,1741885044.103968
-0.24875,-0.03,-0.03375,0.00062550005,-0.00057975,0.000534,1741885044.1184561
-0.25,-0.0265,-0.034,0.00065625,-0.00067150005,0.000534,1741885044.133028
-0.24925,-0.02525,-0.03275,0.0003815,-0.00077825,0.00035100002,1741885044.1481159
-0.24775,-0.02575,-0.032,0.00027475,-0.00077825,0.0002595,1741885044.162316
-0.24625,-0.027,-0.03075,0.0002595,-0.00059500005,0.00010675,1741885044.1782699
-0.2435,-0.0275,-0.02825,0.0002595,-0.0003815,0.00013725001,1741885044.191773
-0.243,-0.02725,-0.029,0.00016775,-0.000122000005,0.00016775,1741885044.206314
-0.2435,-0.02675,-0.0315,-0.0001525,0.00027475,0.00019825,1741885044.22103
-0.24575,-0.025,-0.03725,-0.000183,0.00024425,0.0001525,1741885044.235571
-0.246,-0.024,-0.03725,-0.00016775,-0.00024425,-0.000122000005,1741885044.250296
-0.24575,-0.02425,-0.03325,-0.000229,-0.00054925,-0.00024425,1741885044.265117
-0.24575,-0.02475,-0.031,-0.000229,-0.00086975005,-0.00042725,1741885044.279902
-0.2455,-0.02575,-0.0265,-0.00027475,-0.000824,-0.000534,1741885044.294691
-0.24625,-0.02625,-0.027,-0.00045775,-0.000412,-0.00062550005,1741885044.3095539
-0.24825,-0.02925,-0.03,-0.00048825,-0.0002595,-0.00062550005,1741885044.3241851
-0.2485,-0.0305,-0.03075,-0.00024425,-0.000183,-0.00051875,1741885044.339228
-0.2485,-0.03025,-0.0305,-3.0500001e-05,-0.00013725001,-0.00042725,1741885044.35375
-0.24825,-0.02975,-0.03,6.1000002e-05,7.625e-05,-0.0002595,1741885044.36832
-0.24875,-0.0285,-0.03325,1.5250001e-05,0.000183,-0.000122000005,1741885044.382818
-0.249,-0.0275,-0.035,-6.1000002e-05,7.625e-05,4.575e-05,1741885044.398578
-0.24875,-0.02575,-0.037,-6.1000002e-05,-7.625e-05,7.625e-05,1741885044.412127
-0.24875,-0.0245,-0.0375,-1.5250001e-05,-0.000229,7.625e-05,1741885044.4285178
-0.24825,-0.02375,-0.03675,0.00013725001,-0.000534,-0.00013725001,1741885044.4415228
-0.2465,-0.0235,-0.0335,0.000122000005,-0.00059500005,-0.00030525,1741885044.4562209
-0.246,-0.024,-0.0325,-0.00010675,-0.000473,-0.0005035,1741885044.470865
-0.2465,-0.02625,-0.03175,-0.000229,-0.00030525,-0.00051875,1741885044.4856918
-0.24725,-0.02675,-0.03275,-0.00016775,-1.5250001e-05,-0.0003815,1741885044.500524
-0.248,-0.02625,-0.03375,-7.625e-05,4.575e-05,-0.00033575002,1741885044.5152059
-0.2485,-0.025,-0.03325,1.5250001e-05,0.0001525,-0.00030525,1741885044.5297952
-0.2495,-0.0205,-0.03125,-6.1000002e-05,0.000229,-0.0003205,1741885044.544409
-0.24975,-0.01825,-0.02975,-0.00030525,0.000534,-0.00071725,1741885044.55909
-0.24925,-0.019,-0.02925,-0.0003815,0.000763,-0.001007,1741885044.573833
-0.24875,-0.02125,-0.03025,-0.00027475,0.00112925,-0.0012665,1741885044.588532
-0.2485,-0.0255,-0.033,-0.00013725001,0.001175,-0.0011445,1741885044.603091
-0.24825,-0.02575,-0.03375,6.1000002e-05,0.00112925,-0.00093075,1741885044.6180868
-0.24675,-0.0235,-0.03425,0.0005645,0.00083925005,-0.0004425,1741885044.632278
-0.24575,-0.022,-0.0345,0.00068675,0.00064075,-0.000229,1741885044.64701
-0.24425,-0.02075,-0.03475,0.000824,0.00027475,-0.0001525,1741885044.6616142
-0.2415,-0.021,-0.0335,0.000763,0.0001525,-0.0002595,1741885044.6763399
-0.241,-0.02225,-0.03275,0.0005035,0.0001525,-0.00045775,1741885044.690911
-0.242,-0.025,-0.0335,0.00039675,0.0002135,-0.000534,1741885044.705513
-0.243,-0.026,-0.03525,0.00039675,0.000122000005,-0.00054925,1741885044.72002
-0.24475,-0.02625,-0.037,0.0005645,0.0,-0.00057975,1741885044.734603
-0.24475,-0.02675,-0.03625,0.00067150005,-0.00027475,-0.00064075,1741885044.749463
-0.2465,-0.02775,-0.036,0.00059500005,-0.00036625,-0.00057975,1741885044.7641149
-0.24625,-0.028,-0.03525,0.00054925,-0.0005035,-0.000412,1741885044.778922
-0.24575,-0.0285,-0.03425,0.0005035,-0.000534,-0.00024425,1741885044.7935412
-0.24625,-0.028,-0.0345,0.00036625,-0.00054925,-1.5250001e-05,1741885044.808877
-0.24675,-0.027,-0.03375,-3.0500001e-05,-0.0005645,0.0003205,1741885044.822828
-0.24775,-0.02575,-0.03425,-9.15e-05,-0.0005645,0.0004425,1741885044.838999
-0.24825,-0.02425,-0.034,1.5250001e-05,-0.00065625,0.00051875,1741885044.852061
-0.2475,-0.0235,-0.03125,0.0,-0.00067150005,0.00048825,1741885044.8678982
-0.24775,-0.02275,-0.0315,-6.1000002e-05,-0.00059500005,0.00051875,1741885044.881367
-0.2475,-0.02025,-0.032,-1.5250001e-05,-0.00057975,0.00045775,1741885044.89607
-0.24775,-0.019,-0.032,3.0500001e-05,-0.000412,0.000183,1741885044.910696
-0.249,-0.0185,-0.0335,-1.5250001e-05,-0.00035100002,0.0,1741885044.925395
-0.249,-0.0205,-0.033,-0.00029,-0.00027475,-0.00027475,1741885044.940073
-0.2495,-0.0245,-0.032,-0.0003815,-0.00016775,-0.00029,1741885044.954876
-0.24975,-0.02475,-0.03125,-0.000122000005,3.0500001e-05,-0.000122000005,1741885044.96959
-0.2505,-0.02125,-0.02875,4.575e-05,0.000122000005,1.5250001e-05,1741885044.98415
-0.25125,-0.01875,-0.0285,0.00027475,0.00030525,6.1000002e-05,1741885044.998719
-0.2515,-0.0175,-0.02875,0.0002595,0.000412,-9.15e-05,1741885045.013176
-0.2505,-0.0195,-0.02825,0.00016775,0.00054925,-0.00029,1741885045.02894
-0.24925,-0.022,-0.02825,0.00010675,0.00093075,-0.00042725,1741885045.0424352
-0.24775,-0.02475,-0.03175,0.000183,0.001114,-0.00033575002,1741885045.0581682
-0.24775,-0.025,-0.034,0.00033575002,0.0012055,1.5250001e-05,1741885045.071491
-0.2465,-0.02375,-0.03625,0.00042725,0.00112925,0.0001525,1741885045.085958
-0.24525,-0.0225,-0.0365,0.00057975,0.00090025004,0.0002135,1741885045.1005208
-0.243,-0.02175,-0.03675,0.00054925,0.0007935,0.00016775,1741885045.114997
-0.24225,-0.02275,-0.037,0.000229,0.00057975,3.0500001e-05,1741885045.129638
-0.24175,-0.02375,-0.038,0.00010675,0.00045775,-1.5250001e-05,1741885045.144282
-0.24225,-0.02375,-0.038,0.00010675,0.00030525,-9.15e-05,1741885045.158974
-0.24375,-0.02375,-0.0375,6.1000002e-05,-4.575e-05,-0.0002135,1741885045.173621
-0.2435,-0.0245,-0.036,3.0500001e-05,-0.00024425,-0.0002595,1741885045.1890938
-0.24275,-0.02575,-0.03425,-1.5250001e-05,-0.0005035,-0.00024425,1741885045.203091
-0.2415,-0.0275,-0.03125,-3.0500001e-05,-0.000473,-0.00016775,1741885045.218378
-0.24275,-0.0265,-0.03225,-4.575e-05,-0.0002595,7.625e-05,1741885045.232584
-0.24525,-0.0235,-0.0365,-7.625e-05,-0.00027475,0.00013725001,1741885045.248257
-0.2465,-0.02275,-0.03775,-0.00035100002,-0.00059500005,0.0001525,1741885045.262045
-0.2495,-0.0205,-0.03725,-0.0003815,-0.00080875,0.00013725001,1741885045.276713
-0.25025,-0.019,-0.03425,-0.0001525,-0.00115975,-9.15e-05,1741885045.2913878
-0.25,-0.01925,-0.0285,-0.000183,-0.001175,-0.000183,1741885045.306186
-0.24975,-0.02025,-0.0265,-0.000183,-0.000946,-0.00035100002,1741885045.3208609
-0.2495,-0.02175,-0.024,-0.00010675,-0.00068675,-0.00042725,1741885045.335663
-0.2495,-0.023,-0.02375,-1.5250001e-05,-1.5250001e-05,-0.00048825,1741885045.3505359
-0.2495,-0.02475,-0.02525,1.5250001e-05,0.00035100002,-0.000412,1741885045.365119
-0.25,-0.0245,-0.028,0.0002135,0.000885,-0.00024425,1741885045.379681
-0.251,-0.0235,-0.03375,0.00016775,0.00099175,-0.00024425,1741885045.3942988
-0.2505,-0.025,-0.0345,-6.1000002e-05,0.00099175,-0.0002595,1741885045.40899
-0.2495,-0.02725,-0.03475,-0.00042725,0.0009155,-9.15e-05,1741885045.423657
-0.2475,-0.0295,-0.0355,-0.0003815,0.000885,7.625e-05,1741885045.439074
-0.24675,-0.0295,-0.0365,-0.00042725,0.000763,0.0005645,1741885045.4528189
-0.24625,-0.02675,-0.0375,-0.00039675,0.00061025,0.00074775,1741885045.468102
-0.2455,-0.025,-0.037,-0.000229,0.00033575002,0.0007325,1741885045.4819999
-0.2435,-0.0235,-0.03575,-0.00030525,0.00027475,0.00071725,1741885045.496623
-0.24325,-0.023,-0.036,-0.000412,0.00013725001,0.00070200005,1741885045.511316
-0.243,-0.02175,-0.03725,-0.00039675,1.5250001e-05,0.00065625,1741885045.526044
-0.243,-0.02125,-0.037,-0.000534,-0.00029,0.00057975,1741885045.540736
-0.24325,-0.0215,-0.036,-0.00061025,-0.00045775,0.00054925,1741885045.5554008
-0.2435,-0.02125,-0.035,-0.0005645,-0.00059500005,0.00048825,1741885045.570016
-0.24375,-0.01975,-0.03325,-0.0003205,-0.00077825,0.00030525,1741885045.584693
-0.244,-0.01925,-0.0325,-0.00024425,-0.000824,0.000229,1741885045.599425
-0.2445,-0.02,-0.03225,-0.000183,-0.000824,3.0500001e-05,1741885045.61411
-0.24525,-0.02275,-0.03025,-0.000122000005,-0.0007935,-3.0500001e-05,1741885045.628932
-0.2455,-0.02325,-0.0295,7.625e-05,-0.00062550005,6.1000002e-05,1741885045.643532
-0.24625,-0.022,-0.02975,0.000183,-0.00048825,0.0001525,1741885045.6588218
-0.24725,-0.02125,-0.031,0.00030525,-0.0001525,0.00016775,1741885045.672566
-0.24875,-0.02025,-0.0345,0.00027475,-6.1000002e-05,9.15e-05,1741885045.687219
-0.24925,-0.021,-0.036,0.00019825,-0.0001525,-6.1000002e-05,1741885045.701906
-0.249,-0.0245,-0.03675,0.00019825,-0.00030525,-0.00010675,1741885045.717886
-0.2485,-0.0265,-0.03525,0.0002135,-0.00061025,4.575e-05,1741885045.731159
-0.2485,-0.03175,-0.035,0.00010675,-0.00068675,0.00033575002,1741885045.745903
-0.24975,-0.033,-0.037,-0.00016775,-0.0009765,0.0014037499,1741885045.760572
-0.251,-0.02975,-0.03775,1.5250001e-05,-0.001114,0.00181575,1741885045.775294
-0.25075,-0.0285,-0.03675,0.000122000005,-0.0011445,0.00204475,1741885045.791179
-0.25,-0.02825,-0.03625,0.00010675,-0.00112925,0.0020905002,1741885045.80461
-0.24775,-0.03,-0.0365,0.000122000005,-0.00105275,0.0020905002,1741885045.819222
-0.2465,-0.03025,-0.037,0.000229,-0.001007,0.0020752498,1741885045.833784
-0.24375,-0.0275,-0.034,0.000229,-0.00096125,0.0019989999,1741885045.8490088
-0.2425,-0.024,-0.0315,6.1000002e-05,-0.0005645,0.0013275,1741885045.862995
-0.24175,-0.02225,-0.02975,1.5250001e-05,-0.0002135,0.00077825,1741885045.878033
-0.24225,-0.02375,-0.03075,-0.00027475,0.000473,-0.000183,1741885045.892264
-0.24475,-0.0275,-0.0355,-0.00042725,0.00070200005,-0.0004425,1741885045.908719
-0.246,-0.02825,-0.038,-0.00010675,0.0007325,-0.00077825,1741885045.921669
-0.248,-0.03025,-0.03675,0.00027475,0.00067150005,-0.00083925005,1741885045.9364228
-0.24875,-0.03125,-0.03675,0.00029,0.00061025,-0.00061025,1741885045.95104
-0.24875,-0.0325,-0.036,0.00059500005,0.00062550005,-0.00048825,1741885045.965633
-0.2475,-0.0325,-0.03425,0.00119025,0.00070200005,-0.00045775,1741885045.980181
-0.2465,-0.03125,-0.03325,0.0013580001,0.00070200005,-7.625e-05,1741885045.994905
-0.24575,-0.02825,-0.03325,0.0009765,0.00070200005,0.00019825,1741885046.009413
-0.246,-0.0265,-0.034,0.000946,0.00068675,0.00033575002,1741885046.023922
-0.2465,-0.0225,-0.03525,0.00112925,0.00064075,0.00016775,1741885046.039215
-0.24625,-0.02125,-0.03575,0.00080875,0.0003815,-0.0003205,1741885046.0532138
-0.245,-0.02325,-0.035,0.000473,0.00024425,-0.00051875,1741885046.068442
-0.24425,-0.02575,-0.03425,0.000183,0.000122000005,-0.00070200005,1741885046.082535
-0.24375,-0.02925,-0.033,0.0001525,0.0001525,-0.00059500005,1741885046.098434
-0.24425,-0.029,-0.0335,0.00036625,0.00024425,-0.000229,1741885046.1117032
-0.24525,-0.02675,-0.036,0.00042725,0.000229,-0.00010675,1741885046.126302
-0.2455,-0.0255,-0.03675,0.00039675,0.00016775,-9.15e-05,1741885046.140912
-0.24675,-0.025,-0.03825,0.000122000005,-9.15e-05,-0.0002595,1741885046.155585
-0.2465,-0.02625,-0.0375,0.0,-0.0002595,-0.0003815,1741885046.170263
-0.2455,-0.028,-0.03575,-3.0500001e-05,-0.0005035,-0.00036625,1741885046.185025
-0.2445,-0.02975,-0.03225,7.625e-05,-0.00048825,-0.00024425,1741885046.199779
-0.2445,-0.029,-0.03275,0.0002135,-0.00033575002,1.5250001e-05,1741885046.214431
-0.24625,-0.026,-0.0365,0.00013725001,-0.0002595,0.00010675,1741885046.22896
-0.247,-0.02475,-0.03775,0.0,-0.00036625,0.000122000005,1741885046.2434509
-0.247,-0.0245,-0.0375,1.5250001e-05,-0.00045775,7.625e-05,1741885046.258123
-0.24675,-0.02375,-0.0365,0.000183,-0.00062550005,-7.625e-05,1741885046.272575
-0.2465,-0.0225,-0.03375,0.000229,-0.00064075,-0.0002135,1741885046.287262
-0.246,-0.02375,-0.0325,-4.575e-05,-0.00051875,-0.00039675,1741885046.3021052
-0.24575,-0.02675,-0.0325,-9.15e-05,-0.00039675,-0.00036625,1741885046.3179688
-0.24625,-0.0275,-0.03325,0.0,-0.00029,-0.0003205,1741885046.331573
-0.24675,-0.028,-0.03425,0.00010675,-0.0001525,-0.0001525,1741885046.348074
-0.24675,-0.02725,-0.03425,0.0001525,-9.15e-05,-0.00010675,1741885046.360884
-0.24725,-0.0265,-0.035,0.00039675,0.0001525,-0.00010675,1741885046.375631
-0.24875,-0.025,-0.039,0.00045775,0.00019825,-0.00019825,1741885046.390191
-0.24825,-0.0255,-0.04,0.00030525,3.0500001e-05,-0.00039675,1741885046.4049852
-0.2455,-0.02825,-0.0385,0.00033575002,-0.00010675,-0.00039675,1741885046.4196868
-0.24475,-0.028,-0.0375,0.00064075,-0.0002135,-0.00024425,1741885046.4343941
-0.2445,-0.026,-0.0355,0.00068675,-0.000229,-0.00016775,1741885046.4490712
-0.2445,-0.025,-0.034,0.00064075,-7.625e-05,-0.0002135,1741885046.4638221
-0.24525,-0.0245,-0.035,0.000534,7.625e-05,-0.00029,1741885046.478644
-0.2455,-0.025,-0.037,0.0001525,0.0001525,-0.0003815,1741885046.49332
-0.24525,-0.02725,-0.03825,0.0002135,6.1000002e-05,-0.00042725,1741885046.5087638
-0.245,-0.0285,-0.038,0.0004425,0.0,-0.00042725,1741885046.5225039
-0.245,-0.0285,-0.03775,0.000412,0.0,-0.00029,1741885046.539179
-0.2455,-0.02725,-0.0385,0.000412,-4.575e-05,-0.00013725001,1741885046.5519218
-0.24575,-0.02525,-0.03875,0.00045775,-0.00030525,-3.0500001e-05,1741885046.5678778
-0.24575,-0.02575,-0.038,0.000229,-0.00036625,-3.0500001e-05,1741885046.5813692
-0.24575,-0.0265,-0.03775,-0.000122000005,-0.00039675,1.5250001e-05,1741885046.596051
-0.246,-0.02775,-0.03825,0.0,-0.00039675,3.0500001e-05,1741885046.61068
-0.246,-0.027,-0.03825,0.00030525,-0.000534,0.00010675,1741885046.6251829
-0.24625,-0.02525,-0.03775,0.00030525,-0.00064075,0.000183,1741885046.640008
-0.24625,-0.02575,-0.03725,0.00019825,-0.000824,0.00036625,1741885046.654557
-0.24525,-0.02625,-0.036,0.00030525,-0.00090025004,0.0004425,1741885046.669135
-0.244,-0.02625,-0.0345,0.00064075,-0.000763,0.00054925,1741885046.683771
-0.242,-0.02575,-0.03125,0.00067150005,-0.000473,0.0005645,1741885046.698435
-0.24175,-0.026,-0.0315,0.00064075,0.0002595,0.00062550005,1741885046.712866
-0.24425,-0.0255,-0.03675,0.000534,0.0004425,0.00065625,1741885046.728222
-0.24625,-0.0245,-0.0395,0.000473,0.0005035,0.00064075,1741885046.741863
-0.24775,-0.02375,-0.04075,0.0004425,0.00033575002,0.00036625,1741885046.756362
-0.248,-0.0255,-0.03975,0.0003815,0.000183,0.00019825,1741885046.770896
-0.24775,-0.02675,-0.03925,0.00024425,-0.000183,6.1000002e-05,1741885046.785494
-0.2485,-0.0275,-0.0365,0.00027475,-0.00027475,3.0500001e-05,1741885046.799947
-0.2495,-0.02725,-0.03425,0.00067150005,4.575e-05,-4.575e-05,1741885046.814503
-0.24775,-0.0285,-0.0315,0.00105275,0.0005035,-3.0500001e-05,1741885046.829061
-0.2475,-0.02925,-0.0335,0.0009765,0.00086975005,0.0001525,1741885046.84363
-0.25075,-0.027,-0.03825,0.00071725,0.0007935,0.00024425,1741885046.858837
-0.25175,-0.02525,-0.03975,0.00062550005,0.00064075,0.0002595,1741885046.872581
-0.2505,-0.02575,-0.03875,0.00077825,0.000473,0.00010675,1741885046.8870752
-0.24975,-0.027,-0.03725,0.00080875,0.00042725,4.575e-05,1741885046.9016151
-0.24925,-0.02775,-0.0355,0.00062550005,0.00019825,1.5250001e-05,1741885046.9160671
-0.2475,-0.02875,-0.03325,0.00064075,0.000229,4.575e-05,1741885046.9306052
-0.24725,-0.0285,-0.033,0.000885,0.00059500005,0.0002135,1741885046.945272
-0.2475,-0.02625,-0.0345,0.000885,0.00077825,0.00030525,1741885046.959788
-0.248,-0.025,-0.03625,0.00071725,0.0009155,0.00030525,1741885046.974323
-0.24775,-0.02475,-0.0385,0.00045775,0.0008545,0.00016775,1741885046.989279
-0.2465,-0.026,-0.038,3.0500001e-05,0.00070200005,-1.5250001e-05,1741885047.00354
-0.24375,-0.0285,-0.03675,6.1000002e-05,0.00065625,0.0,1741885047.018065
-0.24275,-0.02875,-0.036,0.00016775,0.00064075,4.575e-05,1741885047.032404
-0.24225,-0.028,-0.03575,0.0002135,0.00070200005,0.000122000005,1741885047.0468748
-0.24225,-0.025,-0.0365,0.000183,0.0007325,9.15e-05,1741885047.061419
-0.24225,-0.024,-0.03675,-0.00010675,0.00070200005,-0.00013725001,1741885047.076076
-0.242,-0.02625,-0.03775,-0.00029,0.00062550005,-0.00024425,1741885047.090781
-0.24175,-0.02825,-0.03775,-0.00042725,0.000412,-0.000183,1741885047.105512
-0.24225,-0.02825,-0.038,-0.00033575002,0.00029,-7.625e-05,1741885047.120317
-0.24275,-0.02725,-0.038,-0.00029,0.00010675,7.625e-05,1741885047.134881
-0.24525,-0.02625,-0.0385,-0.00030525,3.0500001e-05,9.15e-05,1741885047.14951
-0.246,-0.026,-0.03775,-0.0002135,-0.00019825,-1.5250001e-05,1741885047.164348
-0.24525,-0.0265,-0.03225,-0.0001525,-0.00024425,-0.0001525,1741885047.1791859
-0.2455,-0.0275,-0.03,-0.00036625,4.575e-05,-0.00013725001,1741885047.193768
-0.24875,-0.02825,-0.03025,-0.00036625,0.0002595,-4.575e-05,1741885047.208671
-0.25025,-0.028,-0.0305,-0.0002595,0.00045775,0.0,1741885047.223089
-0.25125,-0.028,-0.03075,-0.00016775,0.000763,6.1000002e-05,1741885047.2376802
-0.2515,-0.03,-0.031,-0.0001525,0.000885,0.00013725001,1741885047.2522318
-0.25125,-0.03075,-0.03025,0.0002135,0.00109875,0.00048825,1741885047.267732
-0.2505,-0.02875,-0.029,0.00054925,0.00125125,0.00064075,1741885047.281387
-0.25125,-0.02575,-0.02925,0.00115975,0.001892,0.0007935,1741885047.295868
-0.25075,-0.0215,-0.03425,0.00148,0.0021819999,0.00057975,1741885047.310485
-0.2495,-0.02275,-0.03575,0.00051875,0.00177,-0.0001525,1741885047.3250618
-0.24625,-0.0295,-0.033,-0.00016775,0.001526,-0.00019825,1741885047.3397849
-0.24525,-0.03225,-0.0315,-0.00035100002,0.001419,9.15e-05,1741885047.354568
-0.244,-0.033,-0.02975,-0.00016775,0.00148,0.0002595,1741885047.36922
-0.24375,-0.03075,-0.02925,1.5250001e-05,0.00157175,0.00033575002,1741885047.383873
-0.246,-0.027,-0.0295,-0.00024425,0.00184625,0.0003815,1741885047.3987231
-0.2465,-0.0275,-0.0305,-0.00048825,0.00198375,0.00039675,1741885047.413145
-0.24575,-0.02925,-0.032,-0.00077825,0.001953,0.00039675,1741885047.428981
-0.24325,-0.034,-0.03275,-0.0008545,0.00181575,0.00048825,1741885047.4425018
-0.24175,-0.0355,-0.0305,-0.00064075,0.00181575,0.0010375,1741885047.458466
-0.24025,-0.034,-0.02425,-0.0007935,0.00204475,0.0014037499,1741885047.4717782
-0.242,-0.0325,-0.023,-0.00157175,0.00289925,0.00193775,1741885047.486233
-0.24325,-0.03,-0.02525,-0.001892,0.0032655,0.00198375,1741885047.5009248
-0.2425,-0.03,-0.02575,-0.0025787498,0.00354,0.001953,1741885047.5156329
-0.2435,-0.03025,-0.0265,-0.0031127501,0.0036010002,0.0020752498,1741885047.530218
-0.245,-0.031,-0.0285,-0.003769,0.0043182503,0.001953,1741885047.5447931
-0.2465,-0.03175,-0.02475,-0.00381475,0.0045165,0.001648,1741885047.559391
-0.246,-0.03175,-0.023,-0.0035095,0.00399775,0.0015565,1741885047.573986
-0.2455,-0.0325,-0.02225,-0.0027312501,0.00216675,0.0022125002,1741885047.5893571
-0.24325,-0.0365,-0.02,-0.00308225,0.00184625,0.0027312501,1741885047.603256
-0.24275,-0.0385,-0.01725,-0.0042572496,0.002411,0.00372325,1741885047.618154
-0.24025,-0.039,-0.01275,-0.0044250004,0.002472,0.004242,1741885047.632608
-0.2385,-0.03675,-0.0105,-0.0043639997,0.002655,0.00538625,1741885047.6485062
-0.248,-0.03375,-0.013,-0.004776,0.0028229998,0.00579825,1741885047.661698
-0.25225,-0.0325,-0.0165,-0.00585925,0.002365,0.00570675,1741885047.676311
-0.25,-0.03875,-0.021,-0.006073,0.0016175,0.0053405,1741885047.690992
-0.249,-0.04375,-0.0215,-0.00587475,0.000473,0.0044555003,1741885047.705583
-0.2485,-0.05075,-0.0205,-0.00543225,0.00030525,0.0042267498,1741885047.7201312
-0.24825,-0.0505,-0.02075,-0.0047302498,0.000122000005,0.0042267498,1741885047.7346601
-0.24875,-0.0505,-0.0225,-0.00354,-0.000885,0.0044555003,1741885047.749387
-0.24775,-0.0515,-0.0215,-0.0031127501,-0.0013427499,0.00460825,1741885047.764066
-0.2465,-0.05,-0.0195,-0.0023345,-0.00177,0.0047455,1741885047.7787662
-0.245,-0.04675,-0.01725,-0.00231925,-0.001953,0.00491325,1741885047.793494
-0.24425,-0.0465,-0.017,-0.00308225,-0.002777,0.0052947504,1741885047.80889
-0.246,-0.0475,-0.0175,-0.0032655,-0.0031889998,0.00517275,1741885047.822772
-0.24825,-0.04925,-0.01875,-0.0031127501,-0.00340275,0.0035704998,1741885047.839478
-0.24875,-0.05125,-0.01975,-0.002655,-0.003006,0.0025634998,1741885047.852225
-0.2465,-0.051,-0.02025,-0.00204475,-0.00251775,0.001587,1741885047.867892
-0.2425,-0.053,-0.019,-0.0021515,-0.0026854998,0.001709,1741885047.881551
-0.244,-0.056,-0.01975,-0.00175475,-0.0033570002,0.0019685,1741885047.896323
-0.24525,-0.058,-0.025,-0.00163275,-0.0035704998,0.0020599999,1741885047.910957
-0.244,-0.0575,-0.025,-0.0019685,-0.0045777503,0.0023039998,1741885047.9255948
-0.242,-0.05975,-0.02,-0.001953,-0.0047607496,0.002655,1741885047.9402702
-0.24175,-0.05875,-0.0185,-0.0018615,-0.0045165,0.00292975,1741885047.9549592
-0.24075,-0.0575,-0.01925,-0.00228875,-0.0034790002,0.0027465,1741885047.969544
-0.24025,-0.059,-0.021,-0.002777,-0.00289925,0.00267025,1741885047.984315
-0.24075,-0.059,-0.024,-0.003769,-0.0021972498,0.0031889998,1741885047.999142
-0.24575,-0.06,-0.03025,-0.0042572496,-0.00231925,0.003418,1741885048.013875
-0.24625,-0.06175,-0.0315,-0.00466925,-0.0028535,0.0037385002,1741885048.0288398
-0.2425,-0.062,-0.03,-0.0045165,-0.00296025,0.0035704998,1741885048.043234
-0.24075,-0.06125,-0.0285,-0.0041044997,-0.0031127501,0.0023039998,1741885048.058837
-0.24,-0.06175,-0.02575,-0.0038605002,-0.0030669998,0.00163275,1741885048.072793
-0.23925,-0.06175,-0.02475,-0.00352475,-0.00289925,0.00108325,1741885048.089076
-0.23825,-0.063,-0.02625,-0.0034484998,-0.0028074998,0.00105275,1741885048.10228
-0.2395,-0.0635,-0.029,-0.002655,-0.0022735,0.00054925,1741885048.118051
-0.23975,-0.06525,-0.03175,-0.0020905002,-0.0020752498,4.575e-05,1741885048.131645
-0.2385,-0.065,-0.03225,-0.00181575,-0.002365,-0.00090025004,1741885048.146361
-0.24,-0.06675,-0.03125,-0.0017852499,-0.00267025,-0.0013580001,1741885048.161194
-0.24175,-0.0665,-0.031,-0.00143425,-0.0026854998,-0.0017852499,1741885048.1758862
-0.24475,-0.0635,-0.03225,-0.00033575002,-0.0021819999,-0.00267025,1741885048.1906612
-0.2455,-0.063,-0.033,-4.575e-05,-0.00198375,-0.00314325,1741885048.2055008
-0.244,-0.0645,-0.032,0.00064075,-0.00204475,-0.004242,1741885048.220244
-0.2425,-0.0635,-0.02975,0.0012665,-0.0019685,-0.0048065,1741885048.234926
-0.2415,-0.06125,-0.0275,0.00198375,-0.00131225,-0.0055237496,1741885048.249674
-0.2405,-0.0595,-0.027,0.0019989999,-0.00083925005,-0.0056304997,1741885048.2643259
-0.2405,-0.05975,-0.02925,0.0021972498,-7.625e-05,-0.0054932497,1741885048.279077
-0.24275,-0.05725,-0.03625,0.002655,9.15e-05,-0.0054015,1741885048.293628
-0.243,-0.054,-0.03775,0.0033570002,0.000183,-0.0054475004,1741885048.308816
-0.24225,-0.05,-0.03625,0.0033875,0.00016775,-0.0056,1741885048.322648
-0.2425,-0.04825,-0.03525,0.00358575,0.0002135,-0.0061950004,1741885048.337236
-0.24475,-0.04225,-0.036,0.0043944996,0.00030525,-0.006836,1741885048.351893
-0.24425,-0.04075,-0.0365,0.0059510004,0.00042725,-0.00830075,1741885048.367997
-0.242,-0.04475,-0.03775,0.00585925,0.000473,-0.008590749,1741885048.3811588
-0.24225,-0.04675,-0.03775,0.0056,0.0005645,-0.008484,1741885048.395628
-0.24275,-0.047,-0.03675,0.0057525,0.000763,-0.0079345,1741885048.410153
-0.2425,-0.04275,-0.0335,0.00585925,0.00080875,-0.007553,1741885048.424706
-0.24375,-0.0395,-0.0335,0.0059967497,0.001007,-0.00668325,1741885048.439281
-0.2455,-0.03475,-0.03525,0.006302,0.001236,-0.00668325,1741885048.453873
-0.2455,-0.03425,-0.0345,0.00744625,0.001953,-0.0072937496,1741885048.468523
-0.24475,-0.0345,-0.03275,0.0078125,0.002533,-0.007431,1741885048.483297
-0.24325,-0.0325,-0.03325,0.0071409997,0.0032347501,-0.0071105,1741885048.498664
-0.24125,-0.033,-0.03325,0.0062255003,0.0028229998,-0.0065765,1741885048.512696
-0.24175,-0.03375,-0.0325,0.0052185003,0.00190725,-0.0045165,1741885048.528713
-0.24475,-0.0305,-0.031,0.005005,0.00177,-0.00358575,1741885048.541752
-0.247,-0.0295,-0.0325,0.0044250004,0.00184625,-0.0030669998,1741885048.5563772
-0.24575,-0.03225,-0.03025,0.003128,0.0026092501,-0.0027465,1741885048.570969
-0.2445,-0.0325,-0.02975,0.00378425,0.00305175,-0.002365,1741885048.585649
-0.24425,-0.03025,-0.0275,0.00520325,0.0029907501,-0.00109875,1741885048.600271
-0.24675,-0.019,-0.034,0.004242,0.0025634998,-0.00045775,1741885048.614877
-0.248,-0.01375,-0.037,0.0025025,0.001114,0.00024425,1741885048.629483
-0.25,-0.01275,-0.0375,0.001892,0.00030525,0.0002135,1741885048.6440718
-0.24975,-0.01575,-0.03675,0.001648,-0.00035100002,-0.000473,1741885048.658793
-0.24975,-0.02125,-0.03475,0.0017242499,-0.00033575002,-0.0012207499,1741885048.673491
-0.24725,-0.02325,-0.0305,0.0025940002,6.1000002e-05,-0.0031127501,1741885048.6884868
-0.2445,-0.0215,-0.022,0.00296025,0.00039675,-0.00364675,1741885048.702688
-0.24625,-0.01775,-0.02125,0.00283825,0.0013427499,-0.00419625,1741885048.7177851
-0.2505,-0.01425,-0.023,0.0025787498,0.0016785001,-0.0043182503,1741885048.73185
-0.251,-0.01475,-0.02525,0.0023345,0.0017242499,-0.00428775,1741885048.746349
-0.2505,-0.01575,-0.027,0.0016632499,0.001175,-0.00354,1741885048.760819
-0.2505,-0.0185,-0.02675,0.001526,0.00096125,-0.00305175,1741885048.77558
-0.25,-0.01975,-0.02475,0.0015105,0.0010375,-0.00245675,1741885048.790137
-0.2495,-0.018,-0.02275,0.001648,0.0012817499,-0.002365,1741885048.80475
-0.2495,-0.01575,-0.023,0.00187675,0.001709,-0.00251775,1741885048.819253
-0.24825,-0.01225,-0.023,0.0016175,0.00181575,-0.0027312501,1741885048.8338351
-0.24675,-0.012,-0.02125,0.0007325,0.00204475,-0.00263975,1741885048.848922
-0.24425,-0.013,-0.0195,0.0002135,0.00225825,-0.002365,1741885048.862939
-0.2435,-0.0115,-0.01925,-0.00059500005,0.00251775,-0.00187675,1741885048.8787851
-0.24625,-0.00075,-0.0235,-0.00051875,0.00251775,-0.00187675,1741885048.8922791
-0.24725,0.003,-0.02425,-0.00027475,0.0024872501,-0.00216675,1741885048.908764
-0.2485,0.002,-0.02425,-9.15e-05,0.002411,-0.00289925,1741885048.9215739
-0.24375,-0.0115,-0.02075,-0.00042725,0.002365,-0.0028074998,1741885048.936249
-0.242,-0.01675,-0.0205,-0.001114,0.00320425,-0.0017242499,1741885048.950947
-0.2435,-0.01925,-0.025,-0.001175,0.0035095,-0.0012207499,1741885048.965651
-0.24375,-0.02025,-0.027,-0.0016785001,0.0036010002,-0.000229,1741885048.980296
-0.252,-0.012,-0.02925,-0.00216675,0.003418,0.00019825,1741885048.9948
-0.255,-0.0065,-0.03,-0.002243,0.001587,0.00045775,1741885049.009484
-0.2505,-0.00625,-0.02675,-0.0025025,0.0005035,0.00054925,1741885049.024012
-0.24925,-0.007,-0.026,-0.003952,-0.00059500005,0.0010375,1741885049.0394099
-0.24625,-0.01375,-0.02275,-0.00453175,-0.00074775,0.0013275,1741885049.0531971
-0.24475,-0.0185,-0.0205,-0.0049285004,-0.000946,0.00190725,1741885049.068028
-0.241,-0.02375,-0.0145,-0.00590525,-0.001709,0.00463875,1741885049.082626
-0.24075,-0.02325,-0.01375,-0.006363,-0.0022277501,0.0065002497,1741885049.098519
-0.2425,-0.02275,-0.014,-0.0066374997,-0.002884,0.009323,1741885049.111938
-0.2495,-0.022,-0.018,-0.0060882503,-0.003006,0.0100707505,1741885049.126558
-0.25475,-0.021,-0.02175,-0.0049590003,-0.0025787498,0.01019275,1741885049.141289
-0.26175,-0.01575,-0.03375,-0.0042725,-0.00228875,0.009262,1741885049.155961
-0.26025,-0.017,-0.03625,-0.0030669998,-0.002533,0.006546,1741885049.170548
-0.25175,-0.026,-0.02825,-0.00296025,-0.00302125,0.005783,1741885049.185322
-0.25025,-0.0285,-0.024,-0.0025025,-0.0035704998,0.0056304997,1741885049.199914
-0.2485,-0.02975,-0.019,-0.0022125002,-0.0034637498,0.00570675,1741885049.214595
-0.24725,-0.0305,-0.0175,-0.002121,-0.002777,0.0058287503,1741885049.2292962
-0.246,-0.03225,-0.0185,-0.002121,-0.00228875,0.0059510004,1741885049.243958
-0.246,-0.033,-0.02025,-0.0021515,-0.0015565,0.006256,1741885049.258634
-0.246,-0.034,-0.023,-0.002472,-0.00119025,0.00637825,1741885049.273346
-0.24625,-0.034,-0.02375,-0.00283825,-0.00090025004,0.00643925,1741885049.287957
-0.2465,-0.03375,-0.02425,-0.00372325,-0.00093075,0.00621025,1741885049.3025122
-0.24525,-0.037,-0.0255,-0.0043335,-0.0012665,0.00590525,1741885049.318144
-0.2435,-0.04125,-0.0255,-0.00511175,-0.00157175,0.0058135,1741885049.3319292
-0.24025,-0.04475,-0.02375,-0.00541675,-0.00143425,0.00621025,1741885049.346548
-0.239,-0.04375,-0.024,-0.0065765,-0.00119025,0.00738525,1741885049.3612201
-0.239,-0.044,-0.02525,-0.0076599997,-0.00143425,0.007965,1741885049.375903
-0.24175,-0.04575,-0.0265,-0.009552,-0.00201425,0.008788999,1741885049.3905191
-0.247,-0.048,-0.0315,-0.0095672505,-0.00184625,0.008514499,1741885049.405254
-0.248,-0.05,-0.03275,-0.0080567505,-0.0013885,0.0061950004,1741885049.419897
-0.24525,-0.05625,-0.03125,-0.0072175004,-0.001236,0.0046539996,1741885049.434488
-0.24425,-0.059,-0.03025,-0.006012,-0.000885,0.0021819999,1741885049.449264
-0.24325,-0.061,-0.029,-0.0056,-0.000763,0.001419,1741885049.4639392
-0.242,-0.06075,-0.0275,-0.0051880004,-0.00067150005,0.001114,1741885049.478594
-0.243,-0.0595,-0.02725,-0.0044250004,-0.00065625,0.0017242499,1741885049.493245
-0.244,-0.058,-0.028,-0.00428775,-0.00070200005,0.00204475,1741885049.50878
-0.2445,-0.05875,-0.02725,-0.0043639997,-0.00083925005,0.0020599999,1741885049.522552
-0.24475,-0.0615,-0.0265,-0.004242,-0.000763,0.0021515,1741885049.538891
-0.24525,-0.061,-0.02775,-0.0038299998,-0.0005645,0.002365,1741885049.5519161
-0.24625,-0.06025,-0.02725,-0.0036315,-0.00048825,0.0021819999,1741885049.5677938
-0.246,-0.06175,-0.024,-0.0029145,0.000183,0.00184625,1741885049.581217
-0.24375,-0.0565,-0.0185,-0.00279225,0.0005035,0.001831,1741885049.595844
-0.24275,-0.0535,-0.01775,-0.003662,3.0500001e-05,0.00201425,1741885049.610376
-0.24125,-0.05175,-0.02325,-0.0042725,-0.00035100002,0.0023345,1741885049.624995
-0.239,-0.0545,-0.02775,-0.005783,-0.0013580001,0.00378425,1741885049.6396532
-0.23625,-0.063,-0.03175,-0.00646975,-0.0019685,0.004486,1741885049.654369
-0.23325,-0.0665,-0.0315,-0.00672925,-0.00242625,0.0049590003,1741885049.668979
-0.23275,-0.0705,-0.03075,-0.0062712496,-0.0025025,0.00511175,1741885049.6836019
-0.236,-0.07075,-0.0325,-0.0057677496,-0.002243,0.00466925,1741885049.698436
-0.23875,-0.07125,-0.03525,-0.00428775,-0.0013427499,0.0027312501,1741885049.71326
-0.2375,-0.07475,-0.0375,-0.00320425,-0.0007935,0.001587,1741885049.728829
-0.23475,-0.078,-0.03475,-0.0012817499,-0.000122000005,-0.000229,1741885049.742589
-0.23475,-0.0795,-0.02975,-0.000824,0.000183,-0.0005645,1741885049.758152
-0.23675,-0.0775,-0.02975,-0.000534,0.0003205,-0.00016775,1741885049.771935
-0.23975,-0.0725,-0.0305,-0.0005645,7.625e-05,0.00019825,1741885049.786429
-0.23975,-0.072,-0.03,-0.0008545,-0.00045775,0.0007325,1741885049.801236
-0.23925,-0.07225,-0.0275,-0.000824,-0.0005035,0.000824,1741885049.815857
-0.2395,-0.074,-0.026,-0.00016775,-0.00045775,0.000763,1741885049.830456
-0.24025,-0.073,-0.02325,9.15e-05,-0.00045775,0.00064075,1741885049.845053
-0.2405,-0.07125,-0.0225,0.0003815,-3.0500001e-05,-3.0500001e-05,1741885049.8597682
-0.242,-0.069,-0.02325,0.0004425,0.00036625,-0.00042725,1741885049.8743098
-0.24225,-0.06925,-0.024,0.0004425,0.00064075,-0.0007325,1741885049.88895
-0.24175,-0.0705,-0.02475,0.00030525,0.0007325,-0.00093075,1741885049.90352
-0.2415,-0.07325,-0.026,0.00045775,0.000824,-0.00090025004,1741885049.9181361
-0.242,-0.074,-0.02675,0.0012970001,0.0009765,-0.0009765,1741885049.93263
-0.241,-0.07175,-0.02625,0.00157175,0.0009155,-0.0010375,1741885049.948323
-0.24025,-0.07075,-0.02625,0.00163275,0.0005645,-0.001068,1741885049.961954
-0.24075,-0.06975,-0.02675,0.0015105,0.000412,-0.001175,1741885049.976555
-0.2405,-0.07,-0.026,0.00143425,0.00030525,-0.00177,1741885049.991116
-0.23875,-0.07175,-0.024,0.001648,0.000473,-0.002121,1741885050.005634
-0.23825,-0.072,-0.02425,0.001953,0.000946,-0.0024414998,1741885050.0201159
-0.239,-0.07125,-0.029,0.00187675,0.001007,-0.00228875,1741885050.034632
-0.24025,-0.07075,-0.0315,0.00175475,0.000885,-0.0020905002,1741885050.0492501
-0.241,-0.0695,-0.0325,0.0018005001,0.00039675,-0.00204475,1741885050.063825
-0.24175,-0.06775,-0.032,0.001953,0.00016775,-0.00225825,1741885050.078784
-0.24225,-0.06725,-0.032,0.0023345,-0.00010675,-0.0027312501,1741885050.093045
-0.24025,-0.0645,-0.0305,0.0026092501,-0.00027475,-0.00292975,1741885050.108609
-0.2385,-0.064,-0.0285,0.0027312501,-0.00061025,-0.0029449998,1741885050.122346
-0.2375,-0.06225,-0.0265,0.002472,-0.00064075,-0.00270075,1741885050.13938
-0.239,-0.06075,-0.02675,0.0021057501,-0.00054925,-0.00242625,1741885050.151705
-0.2395,-0.06,-0.02725,0.001953,-0.00048825,-0.002411,1741885050.167596
-0.2395,-0.06025,-0.02775,0.0017395001,-0.00039675,-0.0019685,1741885050.18111
-0.24275,-0.059,-0.02975,0.00169375,-0.0004425,-0.00163275,1741885050.1957471
-0.2445,-0.05825,-0.0305,0.0018615,-0.00057975,-0.00160225,1741885050.2104352
-0.24475,-0.059,-0.0275,0.0020752498,-0.00054925,-0.0019225,1741885050.2251132
-0.2435,-0.0605,-0.02475,0.00225825,-0.0004425,-0.0021819999,1741885050.239736
-0.242,-0.0615,-0.023,0.0023345,3.0500001e-05,-0.001953,1741885050.254348
-0.24175,-0.06,-0.0255,0.0021972498,0.0002595,-0.001587,1741885050.268947
-0.24225,-0.058,-0.02725,0.0017852499,0.000473,-0.001068,1741885050.2835572
-0.242,-0.0565,-0.03,0.00160225,0.00045775,-0.000946,1741885050.2986612
-0.241,-0.056,-0.03,0.0013427499,0.00036625,-0.00086975005,1741885050.312671
-0.2395,-0.057,-0.0315,0.001236,0.00036625,-0.0007935,1741885050.328691
-0.24025,-0.05725,-0.03275,0.000885,0.0002135,-0.00042725,1741885050.341933
-0.24125,-0.05625,-0.032,0.000885,9.15e-05,-0.0003815,1741885050.356523
-0.241,-0.056,-0.03075,0.0010375,0.0,-0.00051875,1741885050.370993
-0.2395,-0.05675,-0.02825,0.001068,4.575e-05,-0.00051875,1741885050.38559
-0.2395,-0.05675,-0.0275,0.00102225,0.000122000005,-0.000412,1741885050.400105
-0.24,-0.057,-0.0275,0.00077825,0.000229,-0.000183,1741885050.414641
-0.242,-0.057,-0.03075,0.00065625,0.00029,-0.000183,1741885050.42911
-0.24275,-0.0565,-0.0315,0.0005645,0.000183,-0.0002135,1741885050.443595
-0.24175,-0.05575,-0.03025,0.0005645,6.1000002e-05,-0.00024425,1741885050.458688
-0.2415,-0.05625,-0.03,0.000473,-7.625e-05,-0.0002595,1741885050.472724
-0.24025,-0.058,-0.029,0.0003815,-0.00010675,-0.00019825,1741885050.4889548
-0.24,-0.05775,-0.02875,0.0004425,-0.000122000005,-0.00010675,1741885050.5022562
-0.24025,-0.05625,-0.02925,0.0004425,-0.00010675,-0.000122000005,1741885050.5176058
-0.24075,-0.05575,-0.02975,0.00036625,0.0,-0.00027475,1741885050.531453
-0.2425,-0.055,-0.03,0.00030525,0.0,-0.00033575002,1741885050.546123
-0.24325,-0.05525,-0.03,0.0001525,-7.625e-05,-0.00036625,1741885050.560759
-0.2435,-0.05675,-0.03,-0.00016775,-0.00024425,-0.00033575002,1741885050.575535
-0.243,-0.06,-0.02975,-0.000122000005,-0.00024425,-0.00029,1741885050.590366
-0.24275,-0.05975,-0.02875,0.0002595,-0.000122000005,-0.00016775,1741885050.6050298
-0.2435,-0.0575,-0.02875,0.0003205,-3.0500001e-05,-6.1000002e-05,1741885050.619603
-0.24375,-0.0565,-0.0295,0.00029,3.0500001e-05,6.1000002e-05,1741885050.634023
-0.24325,-0.056,-0.03025,0.00024425,3.0500001e-05,6.1000002e-05,1741885050.648662
-0.2425,-0.05675,-0.03,0.000229,9.15e-05,-0.000122000005,1741885050.663239
-0.24225,-0.05775,-0.03025,0.00024425,0.00016775,-0.000229,1741885050.678457
-0.2425,-0.05775,-0.03075,0.00019825,0.000122000005,-0.00024425,1741885050.6925619
-0.24325,-0.0575,-0.03175,0.0001525,4.575e-05,-0.0002135,1741885050.708662
-0.243,-0.05775,-0.03125,7.625e-05,-0.0001525,-0.000183,1741885050.72171
-0.24175,-0.05875,-0.0295,6.1000002e-05,-0.00019825,-0.000183,1741885050.7364302
-0.24175,-0.05875,-0.02975,9.15e-05,-0.0002135,-0.000122000005,1741885050.7510982
-0.24125,-0.05775,-0.02975,0.0002135,-0.00027475,1.5250001e-05,1741885050.7656362
-0.2415,-0.055,-0.0295,0.00027475,-0.0003205,-1.5250001e-05,1741885050.7802198
-0.24125,-0.05475,-0.0285,0.000122000005,-0.00027475,-0.00035100002,1741885050.794827
-0.24025,-0.05775,-0.02575,-0.000122000005,-0.00016775,-0.00048825,1741885050.809489
-0.24075,-0.0605,-0.0255,-0.000534,0.0003205,-0.00045775,1741885050.824234
-0.2435,-0.061,-0.029,-0.0005645,0.00051875,-0.00027475,1741885050.838936
-0.24475,-0.05875,-0.03075,-0.00042725,0.000534,-6.1000002e-05,1741885050.8535712
-0.24425,-0.05625,-0.0315,-0.00054925,0.00039675,-3.0500001e-05,1741885050.868212
-0.24375,-0.05575,-0.0305,-0.00067150005,0.00019825,4.575e-05,1741885050.88291
-0.2415,-0.0545,-0.02925,-0.00062550005,0.00019825,7.625e-05,1741885050.897711
-0.2405,-0.0545,-0.02975,-0.00067150005,0.0002595,0.00010675,1741885050.911894
-0.2395,-0.05525,-0.03325,-0.0007325,0.0004425,0.00019825,1741885050.926433
-0.23975,-0.0565,-0.0355,-0.00074775,0.00036625,0.00027475,1741885050.941031
-0.24,-0.05725,-0.0365,-0.000534,-0.000122000005,0.0004425,1741885050.955792
-0.23975,-0.05475,-0.034,-0.00024425,-0.00033575002,0.0005035,1741885050.9704561
-0.24,-0.053,-0.032,-9.15e-05,-0.0005645,0.00051875,1741885050.9852428
-0.2425,-0.05075,-0.03075,-0.00016775,-0.00057975,0.00042725,1741885050.9999108
-0.24375,-0.0515,-0.031,-0.000183,-0.0005035,9.15e-05,1741885051.014524
-0.244,-0.0545,-0.03175,-0.0002135,-0.0005035,0.0,1741885051.029218
-0.2435,-0.055,-0.031,0.000122000005,-0.000534,0.0,1741885051.043904
-0.24225,-0.0545,-0.02775,0.0003815,-0.000534,4.575e-05,1741885051.0585442
-0.24175,-0.054,-0.02575,0.000534,-0.0003205,0.000183,1741885051.073104
-0.24275,-0.05325,-0.02525,0.00054925,-0.00010675,0.000183,1741885051.089111
-0.24425,-0.0535,-0.02775,0.0005035,0.00010675,0.00013725001,1741885051.10211
-0.2465,-0.055,-0.03475,0.00035100002,0.00029,-0.00016775,1741885051.117522
-0.246,-0.05625,-0.03575,0.00035100002,0.000183,-0.00030525,1741885051.131221
-0.24525,-0.058,-0.035,0.0003815,-0.00019825,-0.0003205,1741885051.1459122
-0.2435,-0.05975,-0.03175,0.0004425,-0.00030525,-0.00027475,1741885051.160504
-0.24275,-0.06,-0.03,0.00070200005,-0.0002135,-0.0002595,1741885051.175217
-0.24125,-0.05925,-0.02775,0.0007935,-7.625e-05,-0.00029,1741885051.1899252
-0.2405,-0.06,-0.02725,0.0005035,0.0002135,-0.00016775,1741885051.204414
-0.242,-0.059,-0.03075,0.0003205,0.0003815,-6.1000002e-05,1741885051.219081
-0.24425,-0.0575,-0.03375,0.0002595,0.00042725,-0.000122000005,1741885051.233609
-0.24525,-0.05725,-0.035,0.000229,0.00024425,-0.00030525,1741885051.248286
-0.2435,-0.0585,-0.0325,0.00016775,-0.0001525,-0.0005035,1741885051.262822
-0.239,-0.06125,-0.02625,0.00010675,-0.0001525,-0.0004425,1741885051.278711
-0.23825,-0.06175,-0.026,4.575e-05,-3.0500001e-05,-0.00024425,1741885051.2923021
-0.239,-0.061,-0.02725,1.5250001e-05,0.00035100002,0.0002135,1741885051.3067331
-0.2405,-0.05725,-0.0315,6.1000002e-05,0.0004425,0.0003205,1741885051.321353
-0.24125,-0.0555,-0.03325,0.00013725001,0.00029,0.0002135,1741885051.33581
-0.24175,-0.053,-0.034,0.000122000005,7.625e-05,9.15e-05,1741885051.350236
-0.2415,-0.05275,-0.033,7.625e-05,-0.000412,-0.000229,1741885051.364929
-0.24,-0.05525,-0.028,6.1000002e-05,-0.00051875,-0.00039675,1741885051.379661
-0.23975,-0.057,-0.02575,-0.00013725001,-0.00027475,-0.00051875,1741885051.3944378
-0.24175,-0.05875,-0.0265,-0.00019825,3.0500001e-05,-0.000412,1741885051.409338
-0.2435,-0.0585,-0.029,-1.5250001e-05,0.000412,-0.00019825,1741885051.424051
-0.245,-0.05475,-0.0325,9.15e-05,0.0004425,-0.00019825,1741885051.438953
-0.245,-0.05325,-0.03275,0.00010675,0.00033575002,-0.0003815,1741885051.4531069
-0.24425,-0.05475,-0.03325,-1.5250001e-05,0.000229,-0.0004425,1741885051.4677372
-0.244,-0.0565,-0.033,-3.0500001e-05,0.000122000005,-0.0004425,1741885051.482539
-0.2435,-0.057,-0.033,0.00036625,1.5250001e-05,-0.00039675,1741885051.4970958
-0.24375,-0.0555,-0.032,0.00054925,-3.0500001e-05,-0.0003205,1741885051.511729
-0.24375,-0.0545,-0.03125,0.00067150005,-1.5250001e-05,-0.00029,1741885051.5264242
-0.24375,-0.0525,-0.0305,0.00074775,3.0500001e-05,-0.00036625,1741885051.541134
-0.24375,-0.0515,-0.03075,0.00090025004,1.5250001e-05,-0.00057975,1741885051.5556102
-0.243,-0.05125,-0.02925,0.00077825,-3.0500001e-05,-0.00070200005,1741885051.570293
-0.2425,-0.05225,-0.0285,0.00061025,0.00013725001,-0.00109875,1741885051.584827
-0.2425,-0.05575,-0.02975,0.00074775,0.0003205,-0.0012970001,1741885051.599339
-0.2425,-0.05675,-0.03125,0.00131225,0.00051875,-0.001526,1741885051.613845
-0.24275,-0.055,-0.0345,0.0017852499,0.0005035,-0.001648,1741885051.628723
-0.24375,-0.0525,-0.0375,0.002472,0.0002595,-0.0019225,1741885051.6428952
-0.24525,-0.05,-0.0405,0.0039215,-0.0005645,-0.00302125,1741885051.6587179
-0.2445,-0.04825,-0.03825,0.004242,-0.000763,-0.00369275,1741885051.672193
-0.24325,-0.0485,-0.0355,0.0052642496,-0.000824,-0.0051269997,1741885051.6868129
-0.24475,-0.05025,-0.0355,0.0059510004,-0.00080875,-0.0057525,1741885051.7014248
-0.2445,-0.051,-0.03575,0.0065917503,-0.00074775,-0.0059205,1741885051.716075
-0.24325,-0.05275,-0.03475,0.0063477503,-0.00062550005,-0.00546275,1741885051.7307289
-0.24275,-0.052,-0.034,0.0057525,-0.0004425,-0.0042115003,1741885051.745437
-0.2455,-0.0485,-0.0315,0.00564575,-0.00051875,-0.00364675,1741885051.760101
-0.24575,-0.046,-0.03025,0.0057525,-0.00029,-0.003006,1741885051.7747252
-0.24375,-0.0415,-0.02825,0.00567625,-0.00010675,-0.00289925,1741885051.78941
-0.24375,-0.03975,-0.02825,0.0053252503,0.00029,-0.0026245,1741885051.804095
-0.2435,-0.03675,-0.02925,0.005249,0.0005035,-0.00254825,1741885051.8186328
-0.2435,-0.03575,-0.03025,0.0052795,0.00068675,-0.0025787498,1741885051.833209
-0.24425,-0.0345,-0.031,0.0057677496,0.00080875,-0.0029449998,1741885051.848516
-0.24475,-0.03225,-0.031,0.0061339997,0.0007325,-0.0031585,1741885051.8626509
-0.244,-0.032,-0.031,0.00579825,0.00062550005,-0.003296,1741885051.8785229
-0.24425,-0.03425,-0.03575,0.00488275,0.00048825,-0.00308225,1741885051.891799
-0.2445,-0.0355,-0.03675,0.00334175,0.00027475,-0.00239575,1741885051.906444
-0.245,-0.03525,-0.03675,0.00325,0.0002135,-0.0022125002,1741885051.921155
-0.2455,-0.0345,-0.035,0.00384525,0.00013725001,-0.00228875,1741885051.935713
-0.24425,-0.03075,-0.03725,0.0034942501,0.00027475,-0.00242625,1741885051.950331
-0.2445,-0.027,-0.038,0.0039825,0.00051875,-0.00302125,1741885051.964897
-0.24375,-0.02325,-0.03125,0.00453175,0.00059500005,-0.00354,1741885051.9795132
-0.24275,-0.0235,-0.03275,0.00399775,0.00059500005,-0.00413525,1741885051.994241
-0.24075,-0.02725,-0.034,0.0053405,0.00068675,-0.00460825,1741885052.0088
-0.2405,-0.031,-0.03325,0.0067445002,0.00062550005,-0.0043182503,1741885052.023409
-0.2425,-0.03325,-0.03525,0.0064239996,9.15e-05,-0.003006,1741885052.0391371
-0.24525,-0.0325,-0.04075,0.0054932497,-4.575e-05,-0.0023497501,1741885052.0528882
-0.24475,-0.032,-0.04,0.003769,-0.00036625,-0.00125125,1741885052.06758
-0.24775,-0.031,-0.04025,0.00381475,-0.00051875,-0.0008545,1741885052.082209
-0.24825,-0.031,-0.04,0.0043182503,-0.000763,-0.0003205,1741885052.0976682
-0.2475,-0.0285,-0.038,0.00434875,-0.00067150005,-4.575e-05,1741885052.111605
-0.24725,-0.02575,-0.038,0.0043335,-0.00039675,0.00010675,1741885052.126216
-0.24625,-0.022,-0.037,0.0040435,-0.00036625,0.00010675,1741885052.140805
-0.24575,-0.02075,-0.03775,0.003128,-0.0005035,0.00042725,1741885052.155518
-0.24625,-0.01875,-0.03925,0.002655,-0.00077825,0.00064075,1741885052.170078
-0.24675,-0.0185,-0.039,0.002365,-0.0010375,0.00074775,1741885052.184631
-0.2475,-0.019,-0.038,0.00231925,-0.00119025,0.000473,1741885052.199199
-0.2475,-0.02025,-0.03725,0.002365,-0.0011445,0.00024425,1741885052.213784
-0.24775,-0.02125,-0.036,0.0025025,-0.000824,0.000229,1741885052.228771
-0.247,-0.01975,-0.0335,0.0027160002,-0.00057975,0.0002135,1741885052.242814
-0.248,-0.0195,-0.03175,0.003418,-1.5250001e-05,-0.0003205,1741885052.257848
-0.248,-0.01975,-0.03275,0.0038299998,0.00035100002,-0.0004425,1741885052.2721019
-0.247,-0.019,-0.0355,0.0032655,0.00016775,-0.000229,1741885052.2865732
-0.24625,-0.02075,-0.0365,0.002472,-0.00016775,-4.575e-05,1741885052.301166
-0.246,-0.022,-0.03675,0.00169375,-0.00024425,4.575e-05,1741885052.315694
-0.24575,-0.02225,-0.0375,0.0015565,-0.00016775,-9.15e-05,1741885052.330427
-0.2455,-0.0225,-0.03725,0.0013580001,-9.15e-05,-0.00027475,1741885052.345207
-0.24475,-0.024,-0.03775,0.00067150005,0.00010675,-0.000412,1741885052.3597922
-0.245,-0.02475,-0.038,0.00030525,0.000183,-0.0003205,1741885052.374336
-0.2455,-0.02475,-0.03875,4.575e-05,0.00033575002,-0.00027475,1741885052.388923
-0.24675,-0.02425,-0.0405,3.0500001e-05,0.00039675,-0.0003205,1741885052.403587
-0.24675,-0.02525,-0.041,-0.0002135,0.00042725,-0.0002595,1741885052.4183
-0.2465,-0.02625,-0.0425,-0.00030525,0.00039675,-0.0001525,1741885052.432984
-0.24625,-0.02625,-0.04275,-0.0001525,0.000229,0.000122000005,1741885052.448212
-0.246,-0.02425,-0.04225,-0.00013725001,0.000122000005,0.0002135,1741885052.4621172
-0.246,-0.02275,-0.0415,-0.000229,-0.00010675,0.00029,1741885052.476702
-0.24575,-0.01975,-0.04,-0.0001525,-0.00019825,0.000229,1741885052.491421
-0.2455,-0.01925,-0.039,-6.1000002e-05,-0.00029,1.5250001e-05,1741885052.5060658
-0.24525,-0.01975,-0.036,-7.625e-05,-0.00027475,-7.625e-05,1741885052.520731
-0.2455,-0.01975,-0.035,-4.575e-05,-0.0002135,-0.000183,1741885052.535475
-0.245,-0.02075,-0.03525,-4.575e-05,-1.5250001e-05,-0.00030525,1741885052.550267
-0.245,-0.02175,-0.0365,-0.00013725001,9.15e-05,-0.0002595,1741885052.5648751
-0.245,-0.0225,-0.038,-0.00016775,0.00013725001,-7.625e-05,1741885052.579604
-0.2445,-0.02225,-0.04025,1.5250001e-05,4.575e-05,-7.625e-05,1741885052.594203
-0.2435,-0.02125,-0.03925,0.0005035,-0.0002135,-0.00027475,1741885052.608873
-0.24375,-0.02125,-0.03825,0.000763,-0.00030525,-0.0003815,1741885052.62359
-0.24475,-0.02175,-0.039,0.0010375,-0.0003205,-0.00064075,1741885052.638836
-0.247,-0.0225,-0.0415,0.00109875,-0.00029,-0.00071725,1741885052.652961
-0.24775,-0.0235,-0.042,0.00077825,-0.0003205,-0.00051875,1741885052.6676931
-0.24925,-0.025,-0.04275,0.00064075,-0.000412,-0.00033575002,1741885052.682414
-0.24875,-0.025,-0.04225,0.00062550005,-0.00062550005,-1.5250001e-05,1741885052.6970649
-0.24675,-0.023,-0.04025,0.00054925,-0.00065625,0.0001525,1741885052.7115872
-0.2465,-0.0215,-0.03975,0.00029,-0.0005645,0.00039675,1741885052.726105
-0.24725,-0.0195,-0.04075,0.00024425,-0.00054925,0.0004425,1741885052.740706
-0.247,-0.01875,-0.0405,0.00030525,-0.0005645,0.00039675,1741885052.755319
-0.24675,-0.01825,-0.04,0.00027475,-0.000534,0.0001525,1741885052.769852
-0.245,-0.02,-0.03725,0.000122000005,-0.000412,6.1000002e-05,1741885052.784383
-0.24475,-0.0215,-0.0365,-3.0500001e-05,-3.0500001e-05,7.625e-05,1741885052.799053
-0.24625,-0.02125,-0.0385,7.625e-05,0.000122000005,0.0001525,1741885052.813519
-0.247,-0.01975,-0.0405,0.00029,0.0002135,0.000229,1741885052.828506
-0.247,-0.01925,-0.04175,0.000122000005,0.00010675,0.00019825,1741885052.842483
-0.247,-0.01975,-0.041,-0.00013725001,-0.00013725001,0.00010675,1741885052.858486
-0.24675,-0.02025,-0.038,-6.1000002e-05,-0.0002135,4.575e-05,1741885052.8719108
-0.2455,-0.021,-0.03575,-1.5250001e-05,-0.00010675,0.0,1741885052.8865669
-0.2445,-0.02275,-0.03375,-9.15e-05,0.00010675,7.625e-05,1741885052.901082
-0.24475,-0.02275,-0.035,-7.625e-05,0.00033575002,0.000183,1741885052.915631
-0.24525,-0.0225,-0.03725,0.0001525,0.00062550005,0.00027475,1741885052.930133
-0.245,-0.02175,-0.04225,0.00019825,0.00062550005,0.00030525,1741885052.9445078
-0.24475,-0.021,-0.0445,0.00039675,0.0003815,0.000229,1741885052.959006
-0.245,-0.0195,-0.046,0.00051875,0.0001525,6.1000002e-05,1741885052.973522
-0.24475,-0.0205,-0.0455,0.00054925,-0.00024425,-0.00030525,1741885052.989302
-0.2435,-0.0245,-0.04175,0.00048825,-0.00033575002,-0.0003815,1741885053.003117
-0.24275,-0.02625,-0.04025,0.00039675,-0.00027475,-0.000229,1741885053.017751
-0.24375,-0.02575,-0.03975,0.00039675,-0.000183,-0.00010675,1741885053.0324118
-0.245,-0.024,-0.04075,0.00048825,-9.15e-05,-1.5250001e-05,1741885053.047062
-0.24675,-0.023,-0.043,0.00033575002,-0.00013725001,0.0,1741885053.0616078
-0.24725,-0.023,-0.0435,0.00013725001,-0.000183,0.0,1741885053.0761979
-0.248,-0.023,-0.043,0.00010675,-0.000229,-4.575e-05,1741885053.0908911
-0.248,-0.02375,-0.0415,0.000229,-0.0002595,-9.15e-05,1741885053.10559
-0.24775,-0.024,-0.041,0.0002595,-0.000183,9.15e-05,1741885053.120212
-0.2485,-0.023,-0.04075,0.00019825,-0.00010675,0.000229,1741885053.1347919
-0.2495,-0.021,-0.0405,0.000229,-1.5250001e-05,0.00035100002,1741885053.1492858
-0.251,-0.0185,-0.03875,0.00024425,-1.5250001e-05,0.0003815,1741885053.163887
-0.25025,-0.01875,-0.037,0.0002595,0.00013725001,0.00039675,1741885053.178792
-0.248,-0.02,-0.03525,0.000229,0.00035100002,0.00042725,1741885053.192986
-0.248,-0.02,-0.03725,0.00016775,0.00074775,0.00059500005,1741885053.208439
-0.2475,-0.0185,-0.0415,0.00016775,0.00077825,0.00065625,1741885053.222055
-0.247,-0.01775,-0.04275,0.00019825,0.00070200005,0.00064075,1741885053.2366028
-0.2455,-0.01775,-0.04225,0.00010675,0.0003815,0.00035100002,1741885053.251078
-0.24275,-0.0195,-0.03875,6.1000002e-05,0.00029,0.00016775,1741885053.265478
-0.2425,-0.02125,-0.03825,0.00016775,0.00036625,-0.00010675,1741885053.2802281
-0.242,-0.027,-0.04075,0.00024425,0.00033575002,-6.1000002e-05,1741885053.294823
-0.24225,-0.0265,-0.04,0.00102225,0.0002135,3.0500001e-05,1741885053.309227
-0.24425,-0.02,-0.03675,0.0013427499,0.00029,-0.00016775,1741885053.323772
-0.24525,-0.019,-0.036,0.001236,0.00070200005,-0.000763,1741885053.339298
-0.24525,-0.0225,-0.03525,0.0012665,0.0009155,-0.0009765,1741885053.353169
-0.245,-0.0235,-0.03675,0.0020905002,0.0012665,-0.00112925,1741885053.36781
-0.24425,-0.02375,-0.04125,0.002365,0.00119025,-0.0012207499,1741885053.3825212
-0.2445,-0.02375,-0.04175,0.0021515,0.0009765,-0.00119025,1741885053.398454
-0.24375,-0.024,-0.0405,0.00148,0.00090025004,-0.0012055,1741885053.411786
-0.2435,-0.023,-0.04075,0.001648,0.0010375,-0.00143425,1741885053.426309
-0.24625,-0.02125,-0.0435,0.00181575,0.0010375,-0.0014495,1741885053.440895
-0.25175,-0.02075,-0.04925,0.001587,0.00086975005,-0.0013275,1741885053.455478
-0.25275,-0.0225,-0.0495,0.0015565,0.000229,-0.00119025,1741885053.470156
-0.25075,-0.0255,-0.04225,0.001648,-0.00024425,-0.00112925,1741885053.484902
-0.24875,-0.025,-0.0365,0.0015565,-0.00067150005,-0.00030525,1741885053.499608
-0.2485,-0.01875,-0.03175,0.0015105,-0.00039675,6.1000002e-05,1741885053.51422
-0.249,-0.016,-0.03325,0.00115975,0.000534,0.0001525,1741885053.528818
-0.25,-0.01625,-0.03825,0.00102225,0.00083925005,0.0001525,1741885053.543222
-0.24975,-0.01825,-0.04,0.000885,0.00096125,0.000229,1741885053.5585861
-0.24925,-0.02175,-0.04325,0.00039675,0.00045775,0.00070200005,1741885053.572237
-0.249,-0.024,-0.04575,7.625e-05,-7.625e-05,0.00115975,1741885053.586758
-0.2485,-0.02525,-0.04525,-0.00080875,-0.00160225,0.00239575,1741885053.6014059
-0.247,-0.02225,-0.039,-0.001175,-0.0023039998,0.00289925,1741885053.6160681
-0.247,-0.0195,-0.03675,-0.0020752498,-0.00292975,0.00334175,1741885053.630771
-0.2445,-0.018,-0.033,-0.00276175,-0.0029449998,0.0032347501,1741885053.645406
-0.24325,-0.02075,-0.03175,-0.00428775,-0.00251775,0.00325,1741885053.660064
-0.24175,-0.02875,-0.03375,-0.0047455,-0.0023345,0.00358575,1741885053.674665
-0.2435,-0.03075,-0.03775,-0.0054932497,-0.0027160002,0.0043944996,1741885053.6893928
-0.245,-0.03275,-0.04175,-0.0059815003,-0.00296025,0.0046234997,1741885053.70402
-0.2445,-0.032,-0.04225,-0.0067597497,-0.00352475,0.0051269997,1741885053.718668
-0.24075,-0.0325,-0.03875,-0.0074004997,-0.0036162501,0.00543225,1741885053.733417
-0.24,-0.036,-0.03775,-0.00764475,-0.003296,0.0059967497,1741885053.748559
-0.2395,-0.0385,-0.0345,-0.00637825,-0.002121,0.00688175,1741885053.762806
-0.24075,-0.03675,-0.032,-0.0058135,-0.00148,0.0068665,1741885053.778412
-0.24225,-0.03425,-0.0305,-0.0060882503,0.00024425,0.00590525,1741885053.791988
-0.24125,-0.03425,-0.03625,-0.0065765,0.001175,0.0052947504,1741885053.806559
-0.2405,-0.03775,-0.03875,-0.00567625,0.002884,0.004547,1741885053.821146
-0.24025,-0.04425,-0.03825,-0.0047302498,0.00352475,0.00444025,1741885053.8357818
-0.2395,-0.04675,-0.03675,-0.00367725,0.004303,0.00469975,1741885053.850323
-0.238,-0.0485,-0.033,-0.0035704998,0.00466925,0.0050812503,1741885053.8649971
-0.2405,-0.04925,-0.032,-0.0037079998,0.0059967497,0.0057372497,1741885053.879594
-0.243,-0.052,-0.0295,-0.00358575,0.0069274995,0.0057372497,1741885053.894193
-0.241,-0.054,-0.02725,-0.00393675,0.0081025,0.00611875,1741885053.908824
-0.23325,-0.05725,-0.01975,-0.00517275,0.008773751,0.0072175004,1741885053.92331
-0.236,-0.0565,-0.026,-0.00646975,0.009552,0.0086975,1741885053.93906
-0.243,-0.05425,-0.0345,-0.0058287503,0.00930775,0.010009751,1741885053.952396
-0.24975,-0.049,-0.03525,-0.0055695,0.008377,0.009491,1741885053.9675388
-0.2485,-0.0485,-0.03825,-0.0070952503,0.0079955,0.007782,1741885053.981555
-0.24225,-0.0555,-0.03425,-0.00788875,0.00823975,0.0069885002,1741885053.996114
-0.24025,-0.05975,-0.0285,-0.0080567505,0.0079955,0.006256,1741885054.010901
-0.2435,-0.0635,-0.022,-0.007019,0.00697325,0.005783,1741885054.025517
-0.24225,-0.065,-0.0165,-0.0054932497,0.005539,0.0044555003,1741885054.040042
-0.243,-0.05975,-0.01575,-0.00579825,0.00538625,0.004303,1741885054.0545971
-0.25,-0.05625,-0.02575,-0.00593575,0.0045165,0.00314325,1741885054.069391
-0.254,-0.05625,-0.03325,-0.00531,0.00325,0.0016785001,1741885054.0839858
-0.251,-0.06,-0.03,-0.0043639997,0.0016632499,-1.5250001e-05,1741885054.098778
-0.2445,-0.065,-0.0145,-0.0029907501,-0.00045775,-0.0024872501,1741885054.113485
-0.2455,-0.0635,-0.00775,-0.00263975,-0.00074775,-0.00296025,1741885054.128673
-0.248,-0.06075,-0.003,-0.00157175,-0.00061025,-0.0042572496,1741885054.1430988
-0.249,-0.05575,0.00225,-0.00080875,-0.00045775,-0.0053709997,1741885054.158457
-0.247,-0.0555,0.00475,0.00030525,0.0001525,-0.0070647504,1741885054.1721869
-0.24625,-0.057,0.003,0.00054925,0.000534,-0.00738525,1741885054.186784
-0.24825,-0.0575,-0.00225,0.001007,0.00119025,-0.0074615004,1741885054.201395
-0.2515,-0.0565,-0.00775,0.00160225,0.00105275,-0.0072632497,1741885054.215956
-0.251,-0.0565,-0.007,0.0031127501,0.0028074998,-0.0080872495,1741885054.230591
-0.24325,-0.05225,-0.00175,0.0039215,0.0028687501,-0.0081025,1741885054.245196
-0.24325,-0.05,0.0,0.00354,0.001236,-0.00621025,1741885054.259684
-0.247,-0.0435,0.0005,0.0031585,0.0013275,-0.0057677496,1741885054.2741811
-0.2475,-0.039,-0.00125,0.00352475,0.00193775,-0.0062712496,1741885054.288766
-0.245,-0.03775,-0.00175,0.004547,0.0034790002,-0.0081635,1741885054.303304
-0.244,-0.03725,-0.0055,0.004074,0.003891,-0.008651749,1741885054.3179588
-0.245,-0.038,-0.008,0.0033875,0.0038299998,-0.009903,1741885054.332563
-0.242,-0.04075,-0.00725,0.00308225,0.0038757501,-0.0104065,1741885054.3483572
-0.2395,-0.04175,-0.00625,0.0014495,0.00419625,-0.01042175,1741885054.361879
-0.24025,-0.04225,-0.00325,0.00112925,0.0042267498,-0.01042175,1741885054.378229
-0.2415,-0.0405,0.00075,0.0028535,0.00491325,-0.01127625,1741885054.3911319
-0.23675,-0.044,0.01425,0.00396725,0.00561525,-0.011734,1741885054.4056509
-0.23925,-0.0465,0.0155,0.0043182503,0.00738525,-0.0110625,1741885054.420289
-0.24525,-0.045,0.004,0.0034942501,0.008377,-0.01020825,1741885054.434865
-0.2475,-0.04275,-0.0015,0.0025634998,0.009079001,-0.0091705,1741885054.449449
-0.249,-0.04475,-0.00775,0.0018005001,0.00883475,-0.00697325,1741885054.464054
-0.24675,-0.046,-0.0045,0.00177,0.008224499,-0.0056,1741885054.478567
-0.24675,-0.0435,0.00325,0.001831,0.00744625,-0.0028229998,1741885054.4930649
-0.25075,-0.03,0.02025,0.0021057501,0.007553,-0.0021057501,1741885054.508736
-0.2535,-0.02125,0.02,0.00204475,0.009155249,-0.0016175,1741885054.522174
-0.255,-0.0135,0.018,0.0017395001,0.009887749,-0.0011445,1741885054.536644
-0.2545,-0.016,0.017,0.001953,0.00930775,-6.1000002e-05,1741885054.551275
-0.24925,-0.0235,0.021,0.00228875,0.00846875,0.00019825,1741885054.565841
-0.24775,-0.024,0.02725,0.001419,0.0073547503,0.0009155,1741885054.5804522
-0.24575,-0.024,0.034,0.0007935,0.00640875,0.0012970001,1741885054.595121
-0.24775,-0.023,0.034,0.00033575002,0.0048979996,0.0016175,1741885054.609571
-0.25075,-0.02275,0.03375,-0.00019825,0.0020905002,0.0018615,1741885054.624098
-0.2495,-0.02675,0.03425,-0.0004425,0.00146475,0.0021057501,1741885054.639138
-0.24375,-0.03125,0.03575,-0.00163275,0.00068675,0.00434875,1741885054.6532202
-0.24,-0.03725,0.0405,-0.00267025,0.00016775,0.0062712496,1741885054.6677299
-0.243,-0.0365,0.03975,-0.0044250004,-0.00019825,0.009643501,1741885054.6822798
-0.25125,-0.029,0.0275,-0.00460825,-3.0500001e-05,0.010452249,1741885054.696908
-0.2535,-0.02725,0.02425,-0.00372325,0.00024425,0.00947575,1741885054.711474
-0.25275,-0.02725,0.02475,-0.0033264998,0.000122000005,0.008270251,1741885054.726079
-0.2535,-0.0255,0.022,-0.00276175,-0.00093075,0.00585925,1741885054.740778
-0.24975,-0.02175,0.01725,-0.00251775,-0.0016785001,0.0047912505,1741885054.755369
-0.24625,-0.02375,0.02075,-0.00242625,-0.00231925,0.00399775,1741885054.76994
-0.244,-0.02775,0.02575,-0.002533,-0.00283825,0.0029145,1741885054.78455
-0.2415,-0.03375,0.03175,-0.0025025,-0.00270075,0.00242625,1741885054.799148
-0.2405,-0.03525,0.033,-0.00245675,-0.00213625,0.00181575,1741885054.813758
-0.241,-0.0365,0.03125,-0.0025787498,-0.00181575,0.0017242499,1741885054.8288
-0.2415,-0.03875,0.0295,-0.0025025,-0.00143425,0.001892,1741885054.842966
-0.24375,-0.04125,0.02575,-0.0020599999,-0.00148,0.0020905002,1741885054.858778
-0.24475,-0.041,0.02325,-0.001175,-0.0019685,0.002472,1741885054.872201
-0.24525,-0.0385,0.02325,-0.001114,-0.0023345,0.00279225,1741885054.888757
-0.2455,-0.036,0.02525,-0.0012970001,-0.00276175,0.0032655,1741885054.901254
-0.245,-0.03275,0.02725,-0.0012817499,-0.0026092501,0.0030365,1741885054.915875
-0.24375,-0.0335,0.027,-0.00148,-0.0023497501,0.0027312501,1741885054.930496
-0.24375,-0.03525,0.0265,-0.00305175,-0.00204475,0.0026245,1741885054.9450932
-0.24575,-0.03925,0.02575,-0.0036162501,-0.0019989999,0.00238025,1741885054.95989
-0.24575,-0.041,0.02525,-0.0032195,-0.0020599999,0.0012665,1741885054.974473
-0.24625,-0.04075,0.02275,-0.00289925,-0.0021515,0.0007935,1741885054.989181
-0.24575,-0.0405,0.02175,-0.0029907501,-0.0024872501,0.00019825,1741885055.003775
-0.24625,-0.03975,0.02225,-0.00331125,-0.002777,0.000183,1741885055.0182421
-0.2465,-0.0405,0.0215,-0.0037537501,-0.00331125,9.15e-05,1741885055.032855
-0.248,-0.045,0.0185,-0.0040587503,-0.0034637498,-4.575e-05,1741885055.04862
-0.2485,-0.0465,0.017,-0.00488275,-0.0036010002,-0.00016775,1741885055.062237
-0.24875,-0.048,0.01525,-0.005539,-0.003891,-0.0001525,1741885055.0787048
-0.24875,-0.047,0.01575,-0.007019,-0.0054015,0.00024425,1741885055.091577
-0.24825,-0.04225,0.01725,-0.0073395,-0.0062865,0.0004425,1741885055.106176
-0.24825,-0.03925,0.016,-0.0072480002,-0.0069580004,0.00045775,1741885055.120863
-0.2485,-0.038,0.01375,-0.006363,-0.0077210004,-4.575e-05,1741885055.1355278
-0.2485,-0.03525,0.01125,-0.0059967497,-0.00798025,-0.0002595,1741885055.150145
-0.249,-0.0365,0.00875,-0.0052337497,-0.0077210004,-0.00068675,1741885055.164952
-0.24775,-0.04025,0.0035,-0.0049285004,-0.0077667497,-0.0007935,1741885055.179591
-0.247,-0.04025,0.0035,-0.00369275,-0.00801075,-0.00054925,1741885055.194271
-0.24775,-0.03575,0.0025,-0.0028535,-0.00788875,-0.00070200005,1741885055.208962
-0.247,-0.03375,0.00175,-0.00239575,-0.00817875,-0.00198375,1741885055.223681
-0.2485,-0.0295,0.003,-0.0029449998,-0.008850001,-0.0028074998,1741885055.238827
-0.248,-0.029,0.00325,-0.0028535,-0.008590749,-0.0042115003,1741885055.25311
-0.2475,-0.033,0.002,-0.00225825,-0.00782775,-0.0047302498,1741885055.267715
-0.2485,-0.0335,0.00075,-0.00059500005,-0.0062255003,-0.0055237496,1741885055.282367
-0.24825,-0.0355,-0.00425,0.00036625,-0.0055237496,-0.005783,1741885055.297803
-0.249,-0.0365,-0.0075,0.00146475,-0.0049590003,-0.00585925,1741885055.3118951
-0.24825,-0.03725,-0.011,0.0038757501,-0.0042572496,-0.00590525,1741885055.328224
-0.2475,-0.03325,-0.01025,0.0047455,-0.00408925,-0.0059967497,1741885055.341215
-0.24675,-0.02775,-0.0095,0.0053709997,-0.00364675,-0.00646975,1741885055.355825
-0.24475,-0.0255,-0.00775,0.00517275,-0.0031889998,-0.00668325,1741885055.3705668
-0.2465,-0.023,-0.008,0.00520325,-0.0018615,-0.0070495,1741885055.385269
-0.24925,-0.01475,-0.00775,0.00596625,-0.0010375,-0.007782,1741885055.400061
-0.248,-0.0135,-0.00675,0.006836,0.00077825,-0.009597749,1741885055.414602
-0.2475,-0.0265,-0.007,0.00640875,0.0015105,-0.00975025,1741885055.429176
-0.246,-0.03325,-0.00725,0.0057525,0.002777,-0.00788875,1741885055.4437602
-0.2435,-0.0325,-0.00575,0.00587475,0.0030365,-0.0065765,1741885055.4582741
-0.24725,-0.026,-0.00825,0.00715625,0.003296,-0.0046539996,1741885055.473092
-0.24975,-0.0055,-0.0095,0.0076142503,0.0031127501,-0.004837,1741885055.4889228
-0.24475,-0.00075,-0.0035,0.0054932497,0.002533,-0.005249,1741885055.502146
-0.24025,-0.003,0.01,0.0030669998,0.0032195,-0.0047150003,1741885055.5176551
-0.244,-0.0055,0.01,0.00102225,0.004593,-0.0043335,1741885055.531177
-0.24975,-0.00425,0.00425,0.00054925,0.006836,-0.0056915004,1741885055.5457752
-0.25425,-0.0015,-0.005,0.00115975,0.0070647504,-0.0072480002,1741885055.56039
-0.251,-0.00575,-0.0045,0.00143425,0.0077667497,-0.00874325,1741885055.574909
-0.25625,-0.01625,-0.007,0.001831,0.00862125,-0.0086975,1741885055.589461
-0.25725,-0.01825,-0.0085,0.0037995,0.0102845,-0.009811499,1741885055.6040618
-0.246,-0.01075,-0.0105,0.0043182503,0.00941475,-0.009384249,1741885055.618669
-0.24575,-0.009,-0.00975,0.001526,0.0047150003,-0.0050202496,1741885055.6331542
-0.25325,-0.0055,-0.00775,0.00033575002,0.0028074998,-0.00270075,1741885055.648648
-0.25575,-0.0025,-0.0065,0.00033575002,0.0016175,-0.001419,1741885055.662414
-0.2535,0.00575,-0.00375,0.00198375,0.000122000005,-0.00149525,1741885055.678742
-0.25075,0.00725,-0.00075,0.00270075,-0.0008545,-0.0017242499,1741885055.691534
-0.25075,0.007,0.0015,0.0037079998,-0.00283825,-0.0016785001,1741885055.7059531
-0.256,0.009,0.0025,0.004303,-0.0030975002,-0.0021515,1741885055.720427
-0.25475,0.01025,0.00125,0.00567625,-0.002533,-0.0043639997,1741885055.734862
-0.25225,0.0155,-0.0015,0.0057677496,-0.00283825,-0.0050812503,1741885055.7494578
-0.2515,0.01375,-0.00025,0.0045012496,-0.0043182503,-0.00564575,1741885055.764089
-0.24425,0.0015,0.00725,0.0030365,-0.00494375,-0.005066,1741885055.778593
-0.24475,0.004,0.01025,0.0024872501,-0.00538625,-0.0027312501,1741885055.793078
-0.25025,0.009,0.013,0.00292975,-0.0049590003,-0.0019225,1741885055.808702
-0.25225,0.01075,0.01075,0.00314325,-0.00428775,-0.00143425,1741885055.821961
-0.25375,0.01175,0.007,0.0024872501,-0.0034484998,-0.0008545,1741885055.836454
-0.253,0.00775,-0.001,0.0019989999,-0.0034790002,-0.00048825,1741885055.851072
-0.25225,0.00525,-0.00475,0.00181575,-0.0043944996,0.001068,1741885055.865567
-0.2535,0.00275,-0.01175,0.0019989999,-0.0050965,0.0021057501,1741885055.880091
-0.253,0.003,-0.01225,0.001953,-0.0063325,0.003952,1741885055.894567
-0.2475,0.002,-0.00375,0.00149525,-0.0065917503,0.0047607496,1741885055.90908
-0.2445,-0.00075,0.00125,-0.000122000005,-0.0057677496,0.0067902496,1741885055.923568
-0.243,-0.00425,0.00375,-0.0010375,-0.0049590003,0.008133001,1741885055.938806
-0.24525,-0.00275,0.00075,-0.00190725,-0.00413525,0.00941475,1741885055.952733
-0.248,-0.00075,-0.002,-0.00328075,-0.002655,0.0106355,1741885055.967689
-0.24825,-0.0005,-0.00625,-0.00352475,-0.001953,0.01077275,1741885055.982104
-0.2475,-0.00125,-0.00725,-0.0044250004,-0.00071725,0.011245751,1741885055.9967208
-0.24225,-0.00825,-0.00175,-0.004776,1.5250001e-05,0.01171875,1741885056.0112839
-0.2395,-0.01575,0.0045,-0.0056915004,0.0019989999,0.01351925,1741885056.025747
-0.2425,-0.026,0.0055,-0.006363,0.00340275,0.01490775,1741885056.0402718
-0.24225,-0.02225,0.00025,-0.007431,0.0056,0.017685,1741885056.0548139
-0.257,-0.0065,-0.02275,-0.00744625,0.0054015,0.018890498,1741885056.069361
-0.2695,0.00025,-0.034,-0.0068207504,0.00367725,0.017517,1741885056.083827
-0.2695,0.00675,-0.04125,-0.0058287503,0.0022277501,0.014282251,1741885056.0982919
-0.25625,0.0055,-0.0325,-0.00463875,0.0005645,0.010559,1741885056.1127412
-0.24275,-0.0015,-0.01725,-0.00419625,-0.001419,0.0065307496,1741885056.1287732
-0.2375,-0.025,0.0075,-0.004547,-0.00102225,0.0058899997,1741885056.1419342
-0.238,-0.03425,0.013,-0.0043944996,0.0014037499,0.003662,1741885056.156451
-0.23875,-0.04025,0.01175,-0.00411975,0.0026092501,0.002777,1741885056.170959
-0.2435,-0.0375,0.00675,-0.0040587503,0.004242,0.0023497501,1741885056.185432
-0.25375,-0.031,-0.00275,-0.0043639997,0.00440975,0.0020599999,1741885056.200099
-0.25475,-0.03075,-0.0045,-0.0042115003,0.003418,0.00077825,1741885056.214675
-0.24825,-0.0365,0.002,-0.004013,0.0028687501,0.00039675,1741885056.2291672
-0.248,-0.03825,0.00575,-0.0042572496,0.0027160002,0.00057975,1741885056.243644
-0.251,-0.0355,0.00825,-0.0052337497,0.00331125,0.00061025,1741885056.258095
-0.24975,-0.03625,0.0085,-0.00520325,0.0037537501,-0.0001525,1741885056.2726321
-0.247,-0.038,0.0095,-0.0044555003,0.0044555003,-0.00119025,1741885056.2887838
-0.244,-0.04,0.014,-0.0042725,0.00488275,-0.001114,1741885056.301813
-0.24725,-0.0375,0.01175,-0.004776,0.0057372497,-0.00108325,1741885056.3176682
-0.252,-0.027,0.002,-0.0048979996,0.0057372497,-0.0016632499,1741885056.330928
-0.2515,-0.02325,0.00175,-0.00485225,0.00466925,-0.0034484998,1741885056.34551
-0.25075,-0.0195,0.008,-0.0050965,0.003952,-0.0044707498,1741885056.360076
-0.2505,-0.0185,0.0095,-0.0054780003,0.0030669998,-0.007187,1741885056.374639
