acc_x,acc_y,acc_z,gyro_x,gyro_y,gyro_z,timestamp
-0.36625,0.026,0.0175,-0.069702245,0.00935375,0.0025787498,1741884452.9173498
-0.45325,-0.13275,-0.01375,-0.07164,-0.00254825,0.0021819999,1741884452.929099
-0.47125,-0.258,-0.035,-0.06735225,-0.031692497,-0.00125125,1741884452.9445372
-0.40175,-0.52975,-0.03975,-0.058273252,-0.049652,-0.00811775,1741884452.960518
-0.3065,-0.62375,-0.00525,-0.035843,-0.08082575,-0.018982,1741884452.973078
-0.078,-0.701,0.10975,-0.02633675,-0.08981325,-0.0148315,1741884452.987744
0.049,-0.689,0.17775,-0.00794975,-0.09872425,0.0039215,1741884453.0023081
0.40075,-0.602,0.336,0.00364675,-0.100174,0.01013175,1741884453.016665
0.575,-0.55725,0.38625,0.02911375,-0.08285525,0.011260999,1741884453.031114
0.78225,-0.44325,0.428,0.04110725,-0.06729125,0.009491,1741884453.045473
0.8115,-0.3385,0.42,0.05159,-0.053039502,0.01026925,1741884453.06009
0.8165,-0.2105,0.404,0.062088,-0.029724,0.0205535,1741884453.0743182
0.80525,-0.0105,0.35925,0.064071745,-0.01867675,0.024704,1741884453.0886421
0.79175,0.084,0.344,0.06697075,0.0025940002,0.02873225,1741884453.10289
0.761,0.24975,0.3455,0.064682,0.01260375,0.031372,1741884453.119751
0.72025,0.2985,0.35025,0.05387875,0.035263002,0.03512575,1741884453.131296
0.59125,0.34425,0.336,0.046646,0.0470275,0.0356445,1741884453.145509
0.51075,0.3615,0.314,0.038757253,0.056289747,0.035736,1741884453.160217
0.4195,0.388,0.2845,0.019134501,0.06546025,0.03427125,1741884453.173867
0.263,0.39275,0.23775,0.0074615004,0.06779475,0.031952,1741884453.188053
0.19475,0.38525,0.22675,-0.009597749,0.071121246,0.02124025,1741884453.202456
0.0695,0.383,0.199,-0.01667775,0.070526004,0.01548775,1741884453.219122
0.01775,0.364,0.17675,-0.0244445,0.06864925,0.011627249,1741884453.231114
-0.03525,0.34,0.15,-0.0387115,0.06410225,0.008361749,1741884453.245478
-0.14725,0.324,0.0965,-0.044754002,0.0607605,0.0073547503,1741884453.259983
-0.19925,0.31975,0.0785,-0.05717475,0.047973752,0.0048217503,1741884453.2742982
-0.2815,0.24275,0.054,-0.06269825,0.03822325,0.0027312501,1741884453.288658
-0.3095,0.16675,0.0535,-0.070266746,0.015029999,0.00051875,1741884453.303058
-0.348,-0.03175,0.05,-0.07466125,0.0016785001,0.00216675,1741884453.319573
-0.351,-0.13375,0.0495,-0.076751746,-0.020462,0.00579825,1741884453.332204
-0.33975,-0.2575,0.05925,-0.07191475,-0.03158575,0.00517275,1741884453.346742
-0.3305,-0.32925,0.05725,-0.065384,-0.0454865,0.0016175,1741884453.3614578
-0.299,-0.442,0.066,-0.05015575,-0.0785065,-0.00975025,1741884453.376072
-0.156,-0.6895,0.1505,-0.03971875,-0.093155,-0.012252751,1741884453.392171
-0.0325,-0.765,0.236,-0.01649475,-0.10968025,-0.00062550005,1741884453.405445
0.279,-0.7845,0.40025,-0.004776,-0.10888675,0.00982675,1741884453.419963
0.4225,-0.763,0.43725,0.020629998,-0.089447,0.028015248,1741884453.434334
0.60525,-0.65775,0.42275,0.03518675,-0.075805746,0.029953,1741884453.449805
0.65725,-0.54175,0.41,0.06469725,-0.059906,0.025589,1741884453.46322
0.78575,-0.177,0.43025,0.07269275,-0.054183997,0.0280915,1741884453.477758
0.86525,-0.002,0.46325,0.07519525,-0.03202825,0.0338745,1741884453.4921658
0.924,0.2365,0.4795,0.0746765,-0.016388,0.031662002,1741884453.506591
0.88625,0.308,0.45625,0.07191475,-0.0003815,0.0298005,1741884453.5209322
0.82225,0.35625,0.42225,0.05618275,0.031188998,0.036209,1741884453.535085
0.683,0.4305,0.391,0.0477905,0.045043997,0.038452253,1741884453.549778
0.612,0.48225,0.3745,0.03367625,0.0550995,0.03335575,1741884453.5636742
0.44725,0.50225,0.32575,0.02439875,0.059021,0.02848825,1741884453.580107
0.34675,0.4595,0.3055,0.01490775,0.065384,0.02333075,1741884453.593143
0.24325,0.41425,0.281,-0.0015565,0.0758515,0.01368725,1741884453.606519
0.06725,0.35875,0.223,-0.0089569995,0.077179,0.009842,1741884453.620783
0.00025,0.34025,0.19875,-0.02316275,0.072815,0.00505075,1741884453.635108
-0.1,0.29925,0.16825,-0.029663,0.0685425,0.003769,1741884453.6501691
-0.146,0.2795,0.1515,-0.04176325,0.0589295,0.0025025,1741884453.664056
-0.2485,0.231,0.0935,-0.047530998,0.053604,0.0023039998,1741884453.680198
-0.30275,0.1905,0.06725,-0.0571595,0.036972,0.0008545,1741884453.692886
-0.37625,0.063,0.04,-0.05979925,0.025115998,0.0002595,1741884453.7104142
-0.38375,0.0,0.03525,-0.061386,0.01171875,0.00119025,1741884453.721657
-0.37325,-0.04625,0.02775,-0.063202,-0.01582325,0.0034484998,1741884453.736382
-0.32325,-0.15025,0.03725,-0.0625,-0.026672252,0.00090025004,1741884453.750998
-0.29625,-0.238,0.0455,-0.055480998,-0.048446752,-0.007843,1741884453.765706
-0.2095,-0.42975,0.07925,-0.048935,-0.059265252,-0.010299751,1741884453.780478
-0.14625,-0.504,0.10675,-0.03193675,-0.075653,-0.00830075,1741884453.795189
0.0195,-0.5705,0.1715,-0.02241525,-0.08120725,-0.0060882503,1741884453.810615
0.122,-0.5755,0.1995,-0.00393675,-0.087448,0.00051875,1741884453.824405
0.384,-0.59275,0.2805,0.0055695,-0.08639525,0.00343325,1741884453.838785
0.5085,-0.5765,0.32175,0.028900249,-0.07574475,0.0024414998,1741884453.85327
0.673,-0.50025,0.364,0.0385285,-0.06793225,0.00334175,1741884453.8703492
0.74,-0.44075,0.37975,0.04515075,-0.058898997,0.00794975,1741884453.882215
0.79225,-0.35025,0.387,0.0574035,-0.035827752,0.02111825,1741884453.8966799
0.8135,-0.1055,0.3725,0.06333925,-0.022216748,0.025528,1741884453.911086
0.79025,0.0145,0.359,0.06710825,0.001068,0.03070075,1741884453.925312
0.74525,0.19425,0.341,0.06359875,0.01026925,0.03309625,1741884453.939548
0.71175,0.24675,0.33325,0.05223075,0.03132625,0.039367747,1741884453.9537652
0.59075,0.30625,0.33325,0.04745475,0.0436095,0.041137747,1741884453.970231
0.5085,0.33925,0.316,0.042923,0.0512695,0.04173275,1741884453.982202
0.42925,0.3855,0.29325,0.028289748,0.057617247,0.038955748,1741884453.996602
0.31,0.43275,0.26025,0.016632,0.060379002,0.034438998,1741884454.0107572
0.24475,0.42075,0.2415,-0.00169375,0.0668945,0.02015675,1741884454.0250869
0.09075,0.41425,0.19125,-0.0080872495,0.06823725,0.013992251,1741884454.042738
0.02725,0.41025,0.17075,-0.024047751,0.0651245,0.0071409997,1741884454.053768
-0.07775,0.38675,0.1445,-0.03300475,0.061828498,0.00561525,1741884454.070156
-0.128,0.3745,0.1305,-0.04188525,0.057983503,0.00505075,1741884454.082653
-0.17775,0.35925,0.11625,-0.0582275,0.047881998,0.0032195,1741884454.0994911
-0.2735,0.26975,0.09,-0.06513975,0.039810248,0.0005035,1741884454.111418
-0.312,0.1875,0.076,-0.07444774,0.017608749,-0.00393675,1741884454.126084
-0.34,0.00125,0.077,-0.076828,0.0041810004,-0.00296025,1741884454.142983
-0.33725,-0.0965,0.0805,-0.07630925,-0.02177425,-0.0019225,1741884454.155238
-0.3105,-0.29525,0.10575,-0.07106025,-0.03114325,-0.0059510004,1741884454.1704068
-0.29175,-0.398,0.11,-0.05650325,-0.0506135,-0.01248175,1741884454.184714
-0.20175,-0.62425,0.132,-0.0484315,-0.061523497,-0.01193225,1741884454.2001338
-0.129,-0.704,0.15625,-0.027176,-0.080657996,-0.0045777503,1741884454.214188
0.0785,-0.775,0.24775,-0.015213001,-0.085846,0.00039675,1741884454.230348
0.22025,-0.7715,0.29475,-0.0021515,-0.08683775,0.0043182503,1741884454.243318
0.346,-0.7485,0.3115,0.02595525,-0.07658375,0.008316,1741884454.259867
0.527,-0.64675,0.29725,0.039184503,-0.069213755,0.0099639995,1741884454.2723572
0.622,-0.5415,0.31025,0.05989075,-0.058776747,0.016998248,1741884454.286751
0.8255,-0.25775,0.38375,0.065887496,-0.052245997,0.0220795,1741884454.301147
0.89425,-0.113,0.41425,0.0723115,-0.02993775,0.03041075,1741884454.315596
0.92925,0.147,0.4375,0.07266225,-0.01599125,0.03256225,1741884454.330683
0.9045,0.247,0.4265,0.0662995,0.01104725,0.036499,1741884454.344237
0.78925,0.3765,0.39575,0.059784,0.026474,0.03810125,1741884454.3603761
0.71325,0.42575,0.387,0.05249025,0.03907775,0.037552,1741884454.372638
0.63425,0.4625,0.3695,0.03506475,0.0485535,0.031570498,1741884454.38681
0.442,0.47,0.30875,0.02503975,0.053238,0.028259251,1741884454.401064
0.329,0.4495,0.28625,0.00747675,0.066192746,0.020462,1741884454.415364
0.121,0.40225,0.2335,-0.000534,0.069519,0.0157165,1741884454.4304051
0.04075,0.38875,0.20175,-0.00846875,0.070068255,0.011764499,1741884454.443954
-0.0255,0.3815,0.1755,-0.024765,0.06596375,0.00798025,1741884454.46002
-0.132,0.376,0.149,-0.032959,0.061798,0.0065612504,1741884454.4727411
-0.184,0.3655,0.135,-0.049423248,0.051101748,0.002777,1741884454.487205
-0.3005,0.2685,0.094,-0.0569305,0.044113252,0.0007325,1741884454.5016031
-0.34675,0.1765,0.08225,-0.06625375,0.02351375,-0.002777,1741884454.516116
-0.389,-0.0205,0.07925,-0.06785575,0.012039251,-0.0029755002,1741884454.530742
-0.39525,-0.09975,0.07075,-0.06726075,-0.009201,-0.0014037499,1741884454.545435
-0.39675,-0.2035,0.0265,-0.06463625,-0.018097,-0.00198375,1741884454.560181
-0.3765,-0.2645,0.018,-0.055847254,-0.039215,-0.0075377496,1741884454.5749419
-0.2485,-0.47275,0.04275,-0.049469,-0.052245997,-0.011886501,1741884454.5926778
-0.14625,-0.59675,0.08025,-0.0413055,-0.06428525,-0.0152435,1741884454.604324
0.1255,-0.77225,0.2205,-0.020904498,-0.078186,-0.0110015,1741884454.619749
0.256,-0.798,0.2895,-0.009216251,-0.07852175,-0.0049285004,1741884454.633518
0.341,-0.795,0.3175,0.01628125,-0.070098996,0.001068,1741884454.649676
0.46025,-0.72775,0.3045,0.0290375,-0.066208,0.0041810004,1741884454.662334
0.54725,-0.6245,0.3105,0.05148325,-0.05912775,0.01460275,1741884454.676739
0.72475,-0.28925,0.3485,0.05966175,-0.052856497,0.0189515,1741884454.692083
0.78625,-0.125,0.35525,0.06732175,-0.03344725,0.024078252,1741884454.705626
0.82925,0.09275,0.357,0.06820675,-0.0224,0.024826,1741884454.719938
0.81975,0.15,0.357,0.0679475,-0.01222225,0.02522275,1741884454.734294
0.793,0.191,0.35425,0.062912,0.01115425,0.031784,1741884454.74976
0.72,0.273,0.36975,0.059524503,0.02412425,0.035888746,1741884454.7628942
0.665,0.3345,0.3675,0.0512695,0.038498,0.03556825,1741884454.7797701
0.53475,0.41,0.33175,0.042755,0.0433655,0.03221125,1741884454.792268
0.464,0.4,0.31125,0.0221405,0.053512502,0.0245515,1741884454.805629
0.29675,0.33675,0.27575,0.01396175,0.057724,0.02101125,1741884454.819856
0.22125,0.314,0.25625,0.0065917503,0.06054675,0.01835625,1741884454.834077
0.15725,0.303,0.235,-0.0080567505,0.06410225,0.01640325,1741884454.849865
0.05425,0.30975,0.18875,-0.015304499,0.064972,0.015442001,1741884454.862766
0.01075,0.3235,0.16825,-0.029831,0.0619355,0.01295475,1741884454.877046
-0.0755,0.3335,0.12725,-0.037674,0.05885325,0.012313751,1741884454.892183
-0.1225,0.313,0.10575,-0.0533905,0.05078125,0.00991825,1741884454.905942
-0.2205,0.23975,0.06275,-0.060135,0.04408275,0.0069885002,1741884454.92046
-0.25875,0.18775,0.04825,-0.0659485,0.0353545,0.0037537501,1741884454.934859
-0.284,0.12075,0.045,-0.07318125,0.014419501,0.0007935,1741884454.949989
-0.3045,-0.05625,0.0595,-0.075119,0.00402825,0.00175475,1741884454.963844
-0.31175,-0.1565,0.05575,-0.074737504,-0.011734,0.0054932497,1741884454.9798121
-0.34025,-0.35125,0.0285,-0.0694885,-0.02082825,0.0051574996,1741884454.993073
-0.337,-0.43375,0.02575,-0.050888002,-0.050415,-0.00538625,1741884455.0097978
-0.2325,-0.5655,0.07025,-0.040985,-0.0662995,-0.009094249,1741884455.0225449
-0.1355,-0.60975,0.1155,-0.02162175,-0.08477775,-0.00367725,1741884455.037205
0.07425,-0.61325,0.19,-0.01193225,-0.086151004,0.0019685,1741884455.0517209
0.1695,-0.594,0.2155,0.0064850003,-0.082168505,0.01013175,1741884455.066174
0.3805,-0.639,0.28275,0.01634225,-0.07908625,0.00883475,1741884455.08065
0.51,-0.65075,0.329,0.0283965,-0.0759735,0.00384525,1741884455.095055
0.64525,-0.613,0.36725,0.051513746,-0.064926244,0.0052642496,1741884455.110183
0.8315,-0.39425,0.385,0.05944825,-0.053542998,0.01519775,1741884455.123831
0.88,-0.2465,0.38275,0.07159425,-0.027679501,0.03005975,1741884455.1382651
0.93525,0.06325,0.3915,0.074768,-0.0161895,0.03047175,1741884455.15268
0.92725,0.17675,0.39025,0.0700225,0.005844,0.0313415,1741884455.166827
0.838,0.2975,0.37725,0.06346125,0.019867001,0.034851003,1741884455.181067
0.765,0.3385,0.37225,0.05711375,0.034179747,0.037506,1741884455.1952581
0.66325,0.38125,0.34675,0.046051,0.05084225,0.038025003,1741884455.209724
0.43875,0.4365,0.2775,0.0375825,0.055404752,0.038742002,1741884455.22365
0.34525,0.45075,0.256,0.016327,0.06185925,0.03578175,1741884455.2378151
0.189,0.4155,0.2315,0.0060882503,0.0636445,0.030014,1741884455.25204
0.11475,0.39125,0.22025,-0.009872501,0.0643005,0.01651,1741884455.266368
-0.00775,0.363,0.201,-0.01799,0.0629425,0.012756251,1741884455.280708
-0.05825,0.353,0.18875,-0.02671825,0.060424753,0.0110625,1741884455.2952619
-0.112,0.35075,0.171,-0.04447925,0.053131,0.009292499,1741884455.3101609
-0.22425,0.33725,0.1375,-0.0539855,0.047989,0.00874325,1741884455.32406
-0.26525,0.29725,0.1275,-0.071121246,0.030639749,0.0065765,1741884455.338437
-0.29625,0.14775,0.12125,-0.07633975,0.0194855,0.0044250004,1741884455.352813
-0.29675,0.05225,0.1265,-0.081771754,-0.000122000005,0.00204475,1741884455.367428
-0.297,-0.16625,0.1075,-0.08143625,-0.0091705,0.0016175,1741884455.382074
-0.28575,-0.2605,0.09375,-0.071701,-0.02409375,-0.0022735,1741884455.396839
-0.249,-0.413,0.06925,-0.06498725,-0.032547,-0.00328075,1741884455.4115012
-0.2055,-0.503,0.071,-0.058456503,-0.043258753,-0.00381475,1741884455.4261172
-0.13125,-0.61275,0.08625,-0.04190075,-0.066619754,-0.0042115003,1741884455.4424472
0.11075,-0.8,0.165,-0.0292815,-0.07351675,-0.003769,1741884455.455408
0.24725,-0.826,0.215,0.00115975,-0.07374575,0.00213625,1741884455.4698591
0.484,-0.7665,0.2705,0.01599125,-0.069229245,0.00585925,1741884455.484243
0.577,-0.69025,0.27175,0.0443115,-0.057251,0.00930775,1741884455.499768
0.73725,-0.4375,0.27875,0.05567925,-0.050918497,0.012405501,1741884455.513084
0.80975,-0.27225,0.29625,0.067977995,-0.03489675,0.0224,1741884455.5300841
0.896,0.04225,0.3325,0.0704345,-0.024047751,0.02421575,1741884455.542634
0.8965,0.16625,0.3395,0.07127375,-0.011886501,0.02359,1741884455.5564501
0.8465,0.3395,0.3335,0.06652825,0.012191749,0.02371225,1741884455.570745
0.79475,0.4075,0.319,0.060424753,0.02345275,0.0254975,1741884455.585056
0.715,0.4715,0.294,0.04261775,0.044189498,0.028946,1741884455.599701
0.5105,0.55075,0.24125,0.033157248,0.052887,0.028656,1741884455.61356
0.40025,0.5565,0.22425,0.015808,0.0638885,0.019333,1741884455.630194
0.168,0.496,0.19575,0.0069885002,0.06710825,0.012024,1741884455.6426098
0.05325,0.4615,0.1795,-0.0015565,0.0697785,0.0058135,1741884455.656632
-0.0525,0.44625,0.16225,-0.01814275,0.069213755,0.0,1741884455.6710699
-0.2215,0.428,0.125,-0.02804575,0.06504825,-0.000122000005,1741884455.685629
-0.29225,0.392,0.1045,-0.0497285,0.05331425,0.0009155,1741884455.7000709
-0.418,0.22625,0.06075,-0.05900575,0.044433497,0.00071725,1741884455.714557
-0.45425,0.1155,0.0395,-0.068847746,0.01670825,0.0041044997,1741884455.729862
-0.466,-0.049,0.028,-0.06852725,4.575e-05,0.008270251,1741884455.743464
-0.44225,-0.097,0.04225,-0.06555175,-0.035049498,0.01216125,1741884455.7600331
-0.33625,-0.19225,0.10525,-0.06286625,-0.049347,0.007843,1741884455.772614
-0.26925,-0.2765,0.143,-0.0594025,-0.06130975,0.0028687501,1741884455.787137
-0.0975,-0.5095,0.221,-0.04792775,-0.08203125,7.625e-05,1741884455.8017092
0.00775,-0.59925,0.2565,-0.03840625,-0.0920105,0.000763,1741884455.816143
0.139,-0.65325,0.3075,-0.014328,-0.101471,0.00109875,1741884455.830868
0.40325,-0.678,0.39475,-0.0003815,-0.098373495,-0.00065625,1741884455.845518
0.502,-0.6695,0.402,0.025115998,-0.0842895,-0.00016775,1741884455.859961
0.67175,-0.602,0.402,0.035049498,-0.0754395,0.005005,1741884455.874325
0.73975,-0.51075,0.3995,0.051498502,-0.05319225,0.01766975,1741884455.888733
0.81075,-0.2635,0.38725,0.057541,-0.04049675,0.022918751,1741884455.903164
0.81075,-0.15475,0.38375,0.066268995,-0.015533499,0.027557248,1741884455.9195578
0.77675,0.0225,0.37975,0.069793746,-0.00535575,0.027862499,1741884455.932075
0.74475,0.116,0.36975,0.0717315,0.0037995,0.029892,1741884455.946406
0.7035,0.2035,0.36125,0.06608575,0.026428249,0.0382995,1741884455.960622
0.60725,0.3415,0.368,0.059341498,0.0364075,0.03768925,1741884455.974873
0.543,0.37075,0.34925,0.042846747,0.04582225,0.0289155,1741884455.989129
0.4015,0.3735,0.285,0.034546003,0.048766997,0.024475,1741884456.003428
0.3275,0.36675,0.261,0.01976025,0.0564575,0.01829525,1741884456.019256
0.19725,0.36225,0.228,0.0123442495,0.0594635,0.01637275,1741884456.0320141
0.14425,0.37275,0.211,0.0047912505,0.061203,0.014343251,1741884456.046307
0.09625,0.39025,0.19375,-0.011078,0.06216425,0.008194,1741884456.060621
0.0115,0.41025,0.16425,-0.0199585,0.061798,0.0047912505,1741884456.075006
-0.0305,0.4015,0.1525,-0.038849,0.058609,0.00080875,1741884456.092426
-0.127,0.34725,0.1195,-0.047958247,0.055435248,0.000412,1741884456.103853
-0.167,0.29525,0.1045,-0.06286625,0.045287997,-0.0018005001,1741884456.11962
-0.218,0.16925,0.08475,-0.06796275,0.0376435,-0.0041810004,1741884456.132842
-0.23675,0.09875,0.07425,-0.07136525,0.02920525,-0.0056915004,1741884456.1495569
-0.254,0.02825,0.06825,-0.07463075,0.013061499,-0.003769,1741884456.161872
-0.293,-0.128,0.04025,-0.075241,0.00444025,-0.0017852499,1741884456.176631
-0.30075,-0.22825,0.02825,-0.07023625,-0.014053251,-0.002472,1741884456.192566
-0.25775,-0.43175,0.0345,-0.063507,-0.026413,-0.004074,1741884456.206124
-0.2035,-0.51175,0.05775,-0.04574575,-0.05249025,-0.00328075,1741884456.220832
-0.04475,-0.60225,0.1375,-0.03575125,-0.062393248,-0.001007,1741884456.235511
0.043,-0.617,0.175,-0.015213001,-0.070648246,0.0052185003,1741884456.250033
0.1875,-0.59375,0.21925,-0.0050812503,-0.07041925,0.008941749,1741884456.264553
0.25275,-0.56475,0.23225,0.013839751,-0.067031756,0.013916001,1741884456.280101
0.38075,-0.48275,0.26325,0.023224002,-0.06419375,0.0148925,1741884456.2933152
0.44575,-0.42925,0.287,0.03215025,-0.06077575,0.015579251,1741884456.309976
0.515,-0.36675,0.314,0.04666125,-0.0508575,0.016998248,1741884456.322227
0.63375,-0.21025,0.3405,0.05207825,-0.043716498,0.0177765,1741884456.336729
0.66575,-0.12475,0.33,0.05856325,-0.0271455,0.020782499,1741884456.3511732
0.69825,0.03175,0.31,0.059967,-0.01927175,0.023056,1741884456.3657532
0.714,0.1155,0.3135,0.059143003,-0.00463875,0.02658075,1741884456.380162
0.7365,0.2615,0.3485,0.056045502,0.0032655,0.02616875,1741884456.394328
0.71775,0.296,0.3515,0.044540502,0.0222015,0.02339175,1741884456.4097338
0.6095,0.276,0.33375,0.03828425,0.032409754,0.022216748,1741884456.422714
0.5395,0.25,0.31425,0.03300475,0.0399475,0.021453751,1741884456.4369438
0.47575,0.2395,0.29525,0.02412425,0.04850775,0.02006525,1741884456.451205
0.36525,0.24175,0.26425,0.018615749,0.05201725,0.0188445,1741884456.465573
0.30625,0.2255,0.24425,0.0075682504,0.05998225,0.01567075,1741884456.480191
0.1825,0.21275,0.1885,0.0027312501,0.063034,0.0148772495,1741884456.493959
0.1285,0.2185,0.15775,-0.00238025,0.064499,0.014923001,1741884456.509488
0.07725,0.22825,0.1255,-0.0128175,0.06274425,0.01463325,1741884456.522631
-0.01625,0.25525,0.07675,-0.0178375,0.06015025,0.01316825,1741884456.537044
-0.056,0.2585,0.06,-0.028289748,0.05287175,0.00665275,1741884456.55153
-0.135,0.22575,0.02825,-0.033691503,0.048477247,0.0035095,1741884456.56596
-0.1785,0.193,0.01325,-0.04451,0.03645325,0.0036162501,1741884456.580378
-0.253,0.09475,-0.003,-0.04891975,0.02908325,0.0051574996,1741884456.595008
-0.28675,0.0325,-0.006,-0.0534515,0.01083375,0.00511175,1741884456.61011
-0.34275,-0.083,-0.028,-0.05340575,0.0004425,0.003769,1741884456.6242719
-0.34475,-0.12525,-0.02825,-0.052245997,-0.00991825,0.00225825,1741884456.639067
-0.29025,-0.2015,-0.01975,-0.04747,-0.033584498,-0.0009155,1741884456.6539352
-0.24525,-0.24225,-0.01425,-0.04391475,-0.045410253,-0.00251775,1741884456.669873
-0.195,-0.28575,-0.00325,-0.03506475,-0.0630035,-0.00276175,1741884456.683431
-0.07675,-0.3865,0.053,-0.0291595,-0.069397,-0.00213625,1741884456.6996732
0.0055,-0.44375,0.10875,-0.01316825,-0.08108525,-0.0058899997,1741884456.712718
0.2485,-0.5585,0.237,-0.0042725,-0.085205,-0.00717175,1741884456.729676
0.40425,-0.59475,0.299,0.01251225,-0.07994075,-0.00175475,1741884456.742511
0.677,-0.588,0.3675,0.02186575,-0.0720215,0.0019989999,1741884456.756337
0.74875,-0.54575,0.3575,0.0398865,-0.05184925,0.009430001,1741884456.770858
0.81375,-0.38525,0.3155,0.04714975,-0.04144275,0.013916001,1741884456.785331
0.824,-0.26525,0.30075,0.0575715,-0.02041625,0.021179251,1741884456.7999942
0.81425,-0.01725,0.2955,0.060180753,-0.010528499,0.0234375,1741884456.81427
0.796,0.08375,0.2985,0.0608825,-0.0009155,0.02497875,1741884456.83009
0.7615,0.15825,0.3035,0.05564875,0.019348249,0.0281525,1741884456.842858
0.6395,0.22575,0.2795,0.050293,0.029907249,0.0302735,1741884456.859796
0.5725,0.24475,0.28,0.040969748,0.047592252,0.029266251,1741884456.871645
0.43425,0.2855,0.26,0.0363465,0.05154425,0.027237,1741884456.8859332
0.362,0.303,0.245,0.023819,0.059616,0.024063,1741884456.900147
0.2125,0.339,0.21125,0.01628125,0.0634155,0.0216675,1741884456.9143722
0.1415,0.35525,0.1915,0.008941749,0.06590275,0.0178375,1741884456.930079
0.07425,0.36975,0.169,-0.00517275,0.065414496,0.0091095,1741884456.9429388
-0.04125,0.39675,0.12675,-0.012542751,0.06233225,0.00637825,1741884456.959872
-0.0855,0.4165,0.10925,-0.029129,0.05189525,0.004547,1741884456.9719412
-0.1745,0.43575,0.084,-0.03886425,0.0462495,0.00444025,1741884456.986336
-0.21575,0.40675,0.0755,-0.057785,0.032256998,0.0027160002,1741884457.000711
-0.26425,0.28325,0.08,-0.065292254,0.022995,0.0014495,1741884457.0153432
-0.27225,0.197,0.091,-0.071411245,0.013290499,0.0012665,1741884457.030026
-0.2915,0.00075,0.09575,-0.07908625,-0.00340275,0.00514225,1741884457.044618
-0.3085,-0.07875,0.08075,-0.07975775,-0.01148975,0.007965,1741884457.059985
-0.318,-0.14125,0.05925,-0.076065004,-0.032043498,0.012802,1741884457.073903
-0.26,-0.2865,0.09275,-0.0707245,-0.04429625,0.01083375,1741884457.088445
-0.18125,-0.39125,0.1395,-0.052597,-0.0717315,-0.0054932497,1741884457.103145
0.041,-0.6305,0.242,-0.04243475,-0.07981875,-0.00839225,1741884457.1196659
0.16425,-0.715,0.293,-0.01953125,-0.08235175,0.0014037499,1741884457.132176
0.377,-0.76,0.3595,-0.0057220003,-0.078949,0.0031585,1741884457.146643
0.45375,-0.75375,0.35575,0.021408001,-0.0662995,0.0033875,1741884457.1611462
0.585,-0.68025,0.33325,0.0329285,-0.05903625,0.008072,1741884457.175493
0.656,-0.582,0.3365,0.043090753,-0.051864497,0.014328,1741884457.192653
0.719,-0.43775,0.341,0.059097253,-0.035766497,0.02409375,1741884457.204224
0.80075,-0.0945,0.3415,0.0641175,-0.0266265,0.027359,1741884457.21942
0.82,0.054,0.348,0.06697075,-0.006836,0.02851875,1741884457.233003
0.79975,0.234,0.3545,0.0659485,0.00355525,0.027237,1741884457.249664
0.765,0.3095,0.352,0.05815125,0.023285,0.027298,1741884457.261632
0.675,0.4445,0.33625,0.049621496,0.032318,0.028839001,1741884457.275834
0.61625,0.47875,0.32475,0.039169252,0.041275002,0.0290985,1741884457.292321
0.53925,0.491,0.30675,0.019333,0.0576325,0.023803748,1741884457.30442
0.351,0.4585,0.26025,0.01033025,0.06355275,0.01968375,1741884457.319521
0.26075,0.4315,0.23425,-0.00535575,0.07048025,0.01206975,1741884457.333065
0.1155,0.4085,0.19775,-0.012924249,0.072052,0.009231499,1741884457.349559
0.053,0.4,0.1815,-0.02873225,0.06965625,0.0043335,1741884457.361867
-0.0785,0.36425,0.138,-0.036499,0.06663524,0.0021819999,1741884457.3764422
-0.14425,0.32775,0.11225,-0.05134575,0.05805975,0.0007935,1741884457.3923478
-0.26325,0.2055,0.0645,-0.056991503,0.0512695,0.00057975,1741884457.40523
-0.31225,0.12875,0.05575,-0.060668997,0.04270925,-0.000229,1741884457.419683
-0.35625,0.03825,0.05175,-0.06599425,0.0189515,0.00143425,1741884457.4339452
-0.40575,-0.15625,0.03225,-0.0674285,0.00668325,0.0047150003,1741884457.4496808
-0.408,-0.2405,0.0285,-0.06277475,-0.0167695,0.00712575,1741884457.462933
-0.38825,-0.4065,0.01375,-0.0561675,-0.030899,0.0040587503,1741884457.4797802
-0.35575,-0.49125,0.0105,-0.03910825,-0.058486998,-0.00030525,1741884457.492525
-0.2175,-0.617,0.06675,-0.02978525,-0.0681,0.00289925,1741884457.5067258
-0.112,-0.64425,0.12525,-0.008194,-0.07785025,0.0110015,1741884457.5213308
0.14825,-0.6545,0.27425,0.0031889998,-0.07914725,0.0115815,1741884457.5356958
0.28675,-0.67125,0.33675,0.014267,-0.07917775,0.01095575,1741884457.550134
0.42075,-0.68575,0.373,0.0370025,-0.07330325,0.01586925,1741884457.5645409
0.66375,-0.54775,0.3905,0.0483245,-0.066360496,0.018509,1741884457.580128
0.76525,-0.37925,0.38725,0.06608575,-0.0521545,0.0219115,1741884457.593306
0.8985,-0.044,0.3845,0.070221,-0.042648252,0.023468,1741884457.610083
0.9115,0.0725,0.38025,0.07292175,-0.018585252,0.023056,1741884457.622035
0.88025,0.21,0.3735,0.07247925,-0.00614925,0.0225525,1741884457.636427
0.84375,0.25925,0.36975,0.07106025,0.0063477503,0.02316275,1741884457.650723
0.787,0.31275,0.359,0.0634155,0.029373249,0.02923575,1741884457.6649652
0.64175,0.44,0.3275,0.05593875,0.039245497,0.0327605,1741884457.6800919
0.57425,0.47625,0.31875,0.034438998,0.053604,0.03044125,1741884457.693419
0.4145,0.459,0.29525,0.02388,0.05824275,0.0250245,1741884457.709904
0.31325,0.42525,0.27425,0.0064850003,0.06687925,0.01708975,1741884457.721921
0.12725,0.37475,0.222,-0.001892,0.07023625,0.016021749,1741884457.736198
0.0575,0.37525,0.196,-0.01019275,0.07147225,0.015457249,1741884457.750638
-0.00375,0.39075,0.17425,-0.026702998,0.06710825,0.0111085,1741884457.765147
-0.12475,0.404,0.15075,-0.03598025,0.0632325,0.0075072497,1741884457.78
-0.18825,0.37475,0.14025,-0.05467225,0.05307,0.0022735,1741884457.793935
-0.3245,0.24475,0.10325,-0.0624085,0.04603575,0.00099175,1741884457.809977
-0.38475,0.1635,0.082,-0.071045,0.0249175,0.00105275,1741884457.8227048
-0.443,0.051,0.06225,-0.07354725,0.0110015,0.00413525,1741884457.837135
-0.43975,0.0155,0.062,-0.07690425,-0.00466925,0.008850001,1741884457.851577
-0.39225,-0.158,0.08975,-0.08143625,-0.033264253,0.009613,1741884457.8661408
-0.3535,-0.3265,0.1035,-0.077880755,-0.04635625,0.003296,1741884457.880762
-0.2985,-0.501,0.12175,-0.058426,-0.073608495,-0.00546275,1741884457.895474
-0.09925,-0.7665,0.19425,-0.04533375,-0.08418275,-0.00396725,1741884457.910156
0.051,-0.816,0.27225,-0.01617425,-0.091690004,0.004013,1741884457.924602
0.373,-0.768,0.38075,-0.00354,-0.09184275,0.009002751,1741884457.942361
0.48125,-0.75175,0.37575,0.02056875,-0.07994075,0.01431275,1741884457.953692
0.60475,-0.667,0.34025,0.034911998,-0.071304254,0.014663749,1741884457.970019
0.6615,-0.554,0.33475,0.06280525,-0.055435248,0.0161895,1741884457.982559
0.75375,-0.2155,0.359,0.0715485,-0.047012247,0.018692,1741884457.996941
0.79025,-0.054,0.37275,0.075027496,-0.0381775,0.02301025,1741884458.011304
0.8165,0.06275,0.38425,0.073944,-0.017105,0.030456498,1741884458.025633
0.82525,0.209,0.398,0.07304375,-0.00579825,0.031967252,1741884458.042559
0.7885,0.271,0.38575,0.0668335,0.0219115,0.03804025,1741884458.054223
0.65375,0.432,0.37625,0.06021125,0.035400502,0.040634252,1741884458.069621
0.58175,0.513,0.35725,0.0386505,0.04341125,0.0385895,1741884458.0827289
0.437,0.522,0.281,0.02616875,0.045578,0.0346985,1741884458.099226
0.346,0.50225,0.2415,0.0154115,0.049514752,0.030029248,1741884458.111229
0.25975,0.48275,0.21525,-0.00279225,0.056961,0.0212555,1741884458.12559
0.10525,0.44025,0.1905,-0.011016751,0.059082,0.01681525,1741884458.142519
0.03525,0.414,0.1785,-0.026275748,0.0572205,0.008514499,1741884458.1542752
-0.0755,0.36575,0.147,-0.033722,0.05355825,0.0064239996,1741884458.170043
-0.1265,0.345,0.124,-0.048034754,0.04591375,0.0056304997,1741884458.183363
-0.22525,0.3015,0.08825,-0.054015998,0.040863,0.0039215,1741884458.199628
-0.26725,0.2675,0.089,-0.059203997,0.0331725,3.0500001e-05,1741884458.21213
-0.3005,0.203,0.1015,-0.0689545,0.013839751,-0.00741575,1741884458.226537
-0.346,0.0005,0.12,-0.073608495,0.00491325,-0.0067902496,1741884458.242504
-0.371,-0.10525,0.1035,-0.076004,-0.0116425,-0.00289925,1741884458.2556758
-0.406,-0.28925,0.05375,-0.071899496,-0.019867001,-0.003891,1741884458.270419
-0.39525,-0.3655,0.048,-0.056808498,-0.044326752,-0.00833125,1741884458.285068
-0.2825,-0.52825,0.10475,-0.04786675,-0.057724,-0.01062,1741884458.300012
-0.19475,-0.60775,0.13875,-0.0269165,-0.079208255,-0.01091,1741884458.314493
0.04775,-0.69,0.25075,-0.0155030005,-0.085296504,-0.0050355,1741884458.33015
0.20925,-0.693,0.3395,0.00845325,-0.08709725,0.00181575,1741884458.343501
0.53425,-0.655,0.44725,0.02029425,-0.08288575,0.0012207499,1741884458.360162
0.66775,-0.62025,0.45675,0.030761749,-0.0746765,0.0028687501,1741884458.372419
0.7725,-0.555,0.4465,0.04704275,-0.0512695,0.01361075,1741884458.386831
0.8945,-0.3075,0.41275,0.052658,-0.03958125,0.018692,1741884458.40131
0.9105,-0.17375,0.4035,0.059524503,-0.01737975,0.025390498,1741884458.4157062
0.886,0.04,0.40125,0.061615,-0.0063934997,0.025970502,1741884458.4303732
0.853,0.11775,0.402,0.06166075,0.013000499,0.0269165,1741884458.444414
0.7655,0.23925,0.41575,0.059738252,0.02159125,0.02948,1741884458.460105
0.71475,0.293,0.42125,0.056686502,0.030487,0.032409754,1741884458.472907
0.55475,0.40425,0.399,0.044860747,0.050063998,0.0355835,1741884458.4871218
0.4565,0.42875,0.363,0.03518675,0.05650325,0.036255002,1741884458.50143
0.3555,0.4375,0.32575,0.01799,0.06381225,0.030334499,1741884458.515616
0.174,0.45925,0.261,0.01065075,0.06573475,0.0255585,1741884458.530219
0.10175,0.46475,0.23275,-0.0066985004,0.0687865,0.018432502,1741884458.544283
-0.03775,0.453,0.16825,-0.01605225,0.069198504,0.0158385,1741884458.560204
-0.1035,0.44475,0.13575,-0.02507025,0.06747425,0.013137749,1741884458.573174
-0.21025,0.434,0.106,-0.042511,0.0573425,0.0068512503,1741884458.587601
-0.2605,0.392,0.1025,-0.05081175,0.050644003,0.00279225,1741884458.6021278
-0.312,0.3075,0.10475,-0.06327825,0.03572075,-0.0052947504,1741884458.6165938
-0.398,0.05725,0.11275,-0.06811525,0.0258025,-0.0059205,1741884458.631101
-0.4295,-0.06825,0.094,-0.07336425,0.00369275,-0.000763,1741884458.645687
-0.46275,-0.25375,0.05175,-0.07127375,-0.00511175,-0.00019825,1741884458.660356
-0.45625,-0.32475,0.03775,-0.0570525,-0.0285035,-0.01054375,1741884458.6750238
-0.38675,-0.48,0.0385,-0.047989,-0.04408275,-0.0177765,1741884458.6924748
-0.333,-0.5495,0.06975,-0.031967252,-0.069320746,-0.020141501,1741884458.704438
-0.153,-0.6615,0.16675,-0.024947999,-0.0763245,-0.013702501,1741884458.719758
-0.041,-0.69325,0.202,-0.01637275,-0.078949,-0.0067597497,1741884458.733807
0.16875,-0.695,0.25725,0.00614925,-0.07804875,-0.00062550005,1741884458.749552
0.2925,-0.70025,0.28425,0.018020751,-0.078949,0.0023345,1741884458.762645
0.44325,-0.666,0.33,0.041031,-0.076263495,0.0025787498,1741884458.780017
0.73875,-0.44825,0.4185,0.050231997,-0.072235,0.00102225,1741884458.7924411
0.85325,-0.33675,0.4355,0.06010425,-0.05514525,0.008209251,1741884458.805898
0.98625,-0.1465,0.43875,0.0632935,-0.0425415,0.014618,1741884458.820399
1.0,-0.044,0.452,0.0687865,-0.018615749,0.02323925,1741884458.834826
0.99425,0.1325,0.4335,0.068359256,-0.005005,0.0301055,1741884458.8499331
0.97475,0.19975,0.4525,0.06549075,0.013412501,0.037490748,1741884458.8634062
0.91875,0.28725,0.4565,0.056579497,0.03793325,0.038452253,1741884458.879871
0.75175,0.409,0.4085,0.0474395,0.043273997,0.035766497,1741884458.892477
0.647,0.41375,0.3775,0.026474,0.05612175,0.03453075,1741884458.906253
0.41575,0.4265,0.33475,0.01667775,0.062622,0.033798248,1741884458.920518
0.3085,0.42725,0.31,-0.000412,0.07254025,0.02702325,1741884458.9348202
0.113,0.42475,0.24125,-0.00883475,0.076156504,0.023224002,1741884458.949861
0.0325,0.42675,0.2155,-0.0180665,0.078186,0.020691,1741884458.963416
-0.04175,0.433,0.1995,-0.037674,0.07518,0.017578252,1741884458.980009
-0.20175,0.41425,0.184,-0.04727175,0.0704955,0.01589975,1741884458.9927008
-0.28125,0.35725,0.18725,-0.062194753,0.05273425,0.009231499,1741884459.0066519
-0.40175,0.1425,0.196,-0.06776425,0.039215,0.0051574996,1741884459.021096
-0.45175,0.0305,0.17325,-0.0748595,0.010604749,0.0037995,1741884459.0354922
-0.523,-0.10325,0.1185,-0.076660246,-0.0015105,0.0059510004,1741884459.050111
-0.526,-0.16,0.12025,-0.07472225,-0.024658252,0.00393675,1741884459.0646882
-0.48625,-0.318,0.10775,-0.06877125,-0.03842175,-0.0021819999,1741884459.080269
-0.44825,-0.40675,0.08775,-0.060806252,-0.053680502,-0.009079001,1741884459.0941188
-0.38675,-0.48975,0.0875,-0.04599,-0.08149725,-0.014648501,1741884459.1100328
-0.184,-0.59425,0.169,-0.03964225,-0.089233495,-0.011383001,1741884459.123455
-0.046,-0.6235,0.228,-0.023925751,-0.08657825,0.001114,1741884459.138083
0.20625,-0.67475,0.2785,-0.0123595,-0.080841005,0.003296,1741884459.1526048
0.32,-0.7105,0.2975,0.01326,-0.0765075,-0.000122000005,1741884459.167097
0.61225,-0.73475,0.37625,0.02534475,-0.07437125,0.0021515,1741884459.181474
0.73725,-0.67225,0.425,0.048477247,-0.055694498,0.009948749,1741884459.195901
0.85375,-0.4365,0.4285,0.058136,-0.0443115,0.016388,1741884459.210289
0.89525,-0.31325,0.4255,0.07392875,-0.02186575,0.02749625,1741884459.22471
0.94475,-0.062,0.4525,0.079315245,-0.010940501,0.029327499,1741884459.239101
0.94675,0.04725,0.46775,0.080017,-0.00035100002,0.0306245,1741884459.253372
0.92225,0.1395,0.47725,0.07180775,0.02275075,0.039032,1741884459.269967
0.801,0.29325,0.47375,0.0664215,0.0375365,0.04467775,1741884459.2818182
0.70875,0.37475,0.4645,0.05416875,0.06062325,0.0475005,1741884459.296204
0.491,0.51375,0.39225,0.04385375,0.06472775,0.044754002,1741884459.3106282
0.385,0.52525,0.352,0.02056875,0.071106,0.03521725,1741884459.324992
0.163,0.52475,0.28125,0.010940501,0.0748595,0.02931225,1741884459.339394
0.06325,0.52625,0.253,0.00154125,0.07695,0.02345275,1741884459.353591
-0.02325,0.50875,0.22975,-0.018310498,0.07206725,0.012436,1741884459.370059
-0.15975,0.44525,0.1815,-0.0280915,0.06643675,0.00883475,1741884459.382506
-0.21775,0.418,0.1595,-0.047668498,0.0536195,0.007965,1741884459.396908
-0.353,0.3245,0.12725,-0.056427,0.045654252,0.0081025,1741884459.411275
-0.403,0.2395,0.1315,-0.0694885,0.022949249,0.0053709997,1741884459.4257221
-0.4345,0.058,0.14825,-0.07498175,0.0091095,0.0054475004,1741884459.4424808
-0.4305,-0.0165,0.13925,-0.0794525,-0.0038299998,0.00723275,1741884459.4546618
-0.42125,-0.09325,0.12,-0.08064275,-0.0216675,0.006775,1741884459.469913
-0.384,-0.2675,0.09925,-0.07574475,-0.030075,0.0015565,1741884459.4838989
-0.345,-0.35725,0.10625,-0.061279252,-0.05404675,-0.011764499,1741884459.499907
-0.19525,-0.573,0.1785,-0.054382253,-0.06489575,-0.013153,1741884459.5133922
-0.10475,-0.6745,0.229,-0.03477475,-0.0770875,-0.0077972496,1741884459.53004
0.10575,-0.77775,0.29125,-0.02177425,-0.07994075,-0.0047607496,1741884459.542678
0.2255,-0.7935,0.298,0.0042725,-0.080124,0.00071725,1741884459.560129
0.47,-0.793,0.32525,0.017852752,-0.07772825,0.00245675,1741884459.571483
0.58325,-0.7295,0.3495,0.0447845,-0.0681,0.00614925,1741884459.585897
0.7455,-0.5145,0.3635,0.05404675,-0.05970775,0.0109709995,1741884459.600394
0.8015,-0.38775,0.36775,0.061081,-0.049606252,0.01756275,1741884459.614812
0.84025,-0.24375,0.37625,0.07232675,-0.02896125,0.02804575,1741884459.6300328
0.88375,0.012,0.38725,0.0749055,-0.019104,0.03173825,1741884459.6437068
0.88175,0.10175,0.37825,0.07260125,0.0064545004,0.04438775,1741884459.6601422
0.82325,0.28175,0.39225,0.06909175,0.02278125,0.04969775,1741884459.6723552
0.769,0.38275,0.395,0.057785,0.0443115,0.048233002,1741884459.686569
0.63825,0.51975,0.356,0.04789725,0.051818747,0.04492175,1741884459.700819
0.5495,0.54325,0.31975,0.035797,0.05833425,0.042694,1741884459.714988
0.4475,0.53475,0.29,0.0128632495,0.06723025,0.036163248,1741884459.7300649
0.2635,0.4835,0.26975,0.0038757501,0.06855775,0.03067025,1741884459.743484
0.19925,0.4655,0.27575,-0.0129700005,0.071106,0.021041749,1741884459.760266
0.08425,0.4435,0.283,-0.022796748,0.073593244,0.0189515,1741884459.772106
0.01125,0.43475,0.273,-0.042694,0.07412725,0.01667775,1741884459.7863822
-0.155,0.4125,0.24375,-0.051437248,0.07051075,0.014099,1741884459.8007948
-0.2365,0.382,0.2285,-0.059097253,0.06475825,0.0099639995,1741884459.815177
-0.315,0.32425,0.2095,-0.07159425,0.048766997,0.0020905002,1741884459.830065
-0.4575,0.13375,0.1895,-0.0767975,0.037857,0.0023497501,1741884459.8439739
-0.50525,0.01425,0.17625,-0.0849915,0.00494375,0.01165775,1741884459.859688
-0.516,-0.23075,0.129,-0.085891746,-0.0115205,0.015747,1741884459.873068
-0.49525,-0.33625,0.11275,-0.0767365,-0.03828425,0.014572251,1741884459.887674
-0.41425,-0.518,0.1225,-0.06796275,-0.051880002,0.011321999,1741884459.902266
-0.3215,-0.595,0.155,-0.04623425,-0.080368,0.009445249,1741884459.916901
-0.0415,-0.7085,0.241,-0.0343475,-0.09075925,0.010894749,1741884459.931475
0.12975,-0.728,0.286,-0.02182,-0.096176244,0.01222225,1741884459.945987
0.307,-0.7055,0.32425,0.003891,-0.09152225,0.011734,1741884459.960495
0.6065,-0.602,0.343,0.01460275,-0.0835725,0.01390075,1741884459.974899
0.71425,-0.57125,0.33575,0.03309625,-0.0645905,0.0158845,1741884459.992533
0.84275,-0.4695,0.3235,0.043869,-0.056945752,0.012832751,1741884460.003649
0.87575,-0.3685,0.32625,0.061676,-0.040039003,0.014510999,1741884460.019307
0.88525,-0.08,0.32475,0.065918,-0.029373249,0.02023325,1741884460.032568
0.86525,0.0595,0.3155,0.067886256,-0.006256,0.02920525,1741884460.0469
0.791,0.28975,0.315,0.06646725,0.0043182503,0.02996825,1741884460.061107
0.744,0.37525,0.3185,0.06257625,0.0139465,0.030334499,1741884460.075268
0.685,0.44775,0.31525,0.048995998,0.03376775,0.0331725,1741884460.092479
0.5405,0.55375,0.27375,0.040145747,0.0428925,0.033325247,1741884460.1039512
0.45975,0.57575,0.2355,0.0202485,0.05284125,0.0288085,1741884460.119702
0.29575,0.548,0.1765,0.010452249,0.054580748,0.024932751,1741884460.132545
0.2225,0.514,0.1615,-0.0059815003,0.0558015,0.015274,1741884460.1469069
0.0875,0.4485,0.1505,-0.01197825,0.0556335,0.00862125,1741884460.161281
0.03225,0.41425,0.14575,-0.01722725,0.05366525,0.0017852499,1741884460.175581
-0.0135,0.38675,0.1355,-0.029663,0.04689025,-0.0045625,1741884460.192415
-0.106,0.34375,0.1165,-0.037277248,0.04429625,-0.0037079998,1741884460.204569
-0.16225,0.314,0.1095,-0.050705,0.037887502,-0.0035095,1741884460.2198222
-0.26625,0.20025,0.11025,-0.05461125,0.03164675,-0.00614925,1741884460.233662
-0.30125,0.125,0.12075,-0.05729675,0.01564025,-0.013092,1741884460.249739
-0.364,-0.03925,0.1375,-0.05770875,0.00846875,-0.013000499,1741884460.2631109
-0.39275,-0.12925,0.12025,-0.055664003,-0.0073242504,-0.0076905,1741884460.280052
-0.39275,-0.30675,0.0585,-0.05163575,-0.0169525,-0.008209251,1741884460.292608
-0.34925,-0.3985,0.04475,-0.0460205,-0.02854925,-0.0102235,1741884460.310014
-0.19325,-0.5475,0.092,-0.0318755,-0.0511475,-0.009597749,1741884460.321974
-0.09475,-0.584,0.13025,-0.023650998,-0.05862425,-0.0060577504,1741884460.3366468
0.0145,-0.59725,0.16625,-0.0065002497,-0.06652825,0.0028074998,1741884460.351169
0.25525,-0.6125,0.228,0.0027312501,-0.06890875,0.0035095,1741884460.365679
0.38175,-0.62325,0.24925,0.022171,-0.0698395,0.0002595,1741884460.380107
0.64125,-0.59475,0.2895,0.030761749,-0.067093,0.0015565,1741884460.394472
0.7655,-0.536,0.319,0.04635625,-0.05349725,0.00817875,1741884460.4101079
0.934,-0.335,0.358,0.053482,-0.042648252,0.012207,1741884460.42327
0.94525,-0.214,0.353,0.064743,-0.015579251,0.0203095,1741884460.437668
0.8535,0.046,0.31925,0.067871004,-0.0036162501,0.0237885,1741884460.451999
0.809,0.199,0.32,0.06817625,0.0059205,0.027526751,1741884460.466369
0.76675,0.35,0.328,0.060241748,0.023528999,0.033081003,1741884460.480586
0.63725,0.5605,0.31325,0.05264275,0.03335575,0.03335575,1741884460.494786
0.54975,0.6245,0.2885,0.03291325,0.04971325,0.030426001,1741884460.509799
0.34925,0.67225,0.225,0.021469,0.0538025,0.026840251,1741884460.523274
0.2515,0.65025,0.194,0.0005645,0.05703725,0.01460275,1741884460.537471
0.10125,0.56975,0.174,-0.00811775,0.057602,0.00788875,1741884460.551819
0.055,0.5175,0.1795,-0.017044,0.05726625,0.0033875,1741884460.5660648
0.017,0.4695,0.17925,-0.035903998,0.053680502,0.001892,1741884460.580408
-0.06725,0.3925,0.157,-0.044433497,0.051513746,0.0022125002,1741884460.594945
-0.11125,0.34675,0.14825,-0.057312,0.04515075,0.00059500005,1741884460.6101818
-0.178,0.227,0.16525,-0.06144725,0.039734002,-0.00157175,1741884460.623871
-0.20125,0.155,0.181,-0.066681,0.028244,-0.0058287503,1741884460.638345
-0.239,-0.00475,0.19675,-0.06849675,0.02363575,-0.0050812503,1741884460.652881
-0.2695,-0.07425,0.17325,-0.06958,0.01832575,-0.00267025,1741884460.669926
-0.30225,-0.1555,0.1335,-0.0671845,0.0026854998,-0.00204475,1741884460.6820538
-0.31125,-0.37275,0.0825,-0.062561,-0.0089875,-0.0048979996,1741884460.6968079
-0.26775,-0.46975,0.0965,-0.047973752,-0.03512575,-0.010314999,1741884460.7114408
-0.132,-0.605,0.13275,-0.0395355,-0.045715246,-0.009521499,1741884460.7261708
-0.05675,-0.64825,0.1305,-0.02215575,-0.05865475,-0.0015565,1741884460.742493
0.1225,-0.7025,0.11775,-0.012634249,-0.061905,0.0019989999,1741884460.7553558
0.2355,-0.694,0.1205,0.0075682504,-0.0641175,0.0029755002,1741884460.770168
0.49125,-0.6505,0.17025,0.01719675,-0.06355275,0.002472,1741884460.784194
0.603,-0.64,0.20075,0.03654475,-0.055603,-0.0019225,1741884460.799832
0.72175,-0.55825,0.2135,0.0468445,-0.04869075,-0.0030669998,1741884460.8132539
0.74,-0.464,0.20875,0.055953998,-0.040802,0.00108325,1741884460.830119
0.74075,-0.337,0.2075,0.06861875,-0.02339175,0.017028749,1741884460.8424268
0.7295,-0.054,0.22075,0.0731965,-0.0166625,0.020477248,1741884460.856478
0.7405,0.0725,0.2445,0.076187246,-0.0064850003,0.0193635,1741884460.8707771
0.76875,0.25275,0.2915,0.07351675,0.0005035,0.02064525,1741884460.8849769
0.75525,0.30875,0.298,0.063675,0.019439751,0.023117,1741884460.899925
0.6625,0.38,0.27875,0.057494998,0.029220501,0.02345275,1741884460.91346
0.60075,0.40975,0.2615,0.050293,0.0379945,0.024063,1741884460.930044
0.532,0.43725,0.2455,0.03329475,0.051864497,0.02497875,1741884460.942444
0.36525,0.428,0.21725,0.02445975,0.05714425,0.0236665,1741884460.956278
0.2765,0.39525,0.20475,0.008377,0.0642395,0.0186005,1741884460.9704452
0.14625,0.33875,0.19225,0.00070200005,0.064926244,0.01705925,1741884460.9846778
0.10425,0.32225,0.19225,-0.0142365,0.06073,0.014785751,1741884460.999721
0.01725,0.31525,0.1835,-0.02114875,0.058136,0.012695249,1741884461.013365
-0.03775,0.317,0.17175,-0.0281525,0.055847254,0.010452249,1741884461.030061
-0.10075,0.30625,0.155,-0.0417175,0.050293,0.00694275,1741884461.0423748
-0.25275,0.23275,0.13025,-0.04739375,0.045761,0.0045012496,1741884461.059318
-0.32975,0.1665,0.12725,-0.05682375,0.0302735,0.001831,1741884461.071038
-0.437,0.03725,0.10625,-0.0598755,0.018920999,0.002777,1741884461.085496
-0.4525,-0.00475,0.08375,-0.062729,-0.006607,0.0045625,1741884461.100086
-0.41675,-0.10075,0.054,-0.062683,-0.018692,0.004547,1741884461.1146839
-0.38425,-0.1685,0.04925,-0.059021,-0.042419497,0.0037995,1741884461.129933
-0.27125,-0.334,0.087,-0.054992747,-0.0542145,0.0027160002,1741884461.143865
-0.18875,-0.4105,0.131,-0.049209498,-0.064148,0.00108325,1741884461.1601868
-0.0965,-0.47375,0.172,-0.034606997,-0.075698756,0.0009155,1741884461.1730409
0.115,-0.57625,0.216,-0.0261535,-0.0782775,0.00238025,1741884461.187501
0.23725,-0.62075,0.2225,-0.00587475,-0.08143625,-0.0016175,1741884461.2020931
0.50975,-0.70775,0.2335,0.0056915004,-0.08174125,-0.00764475,1741884461.216521
0.643,-0.73775,0.25075,0.02810675,-0.07398976,-0.009872501,1741884461.23103
0.846,-0.68725,0.2805,0.03807075,-0.06475825,-0.00314325,1741884461.245606
0.901,-0.592,0.2755,0.057494998,-0.041626,0.011169501,1741884461.2606149
0.92625,-0.30275,0.26075,0.0662385,-0.029846251,0.015579251,1741884461.274473
0.918,-0.131,0.2625,0.07286075,-0.0189515,0.0193635,1741884461.288946
0.90775,0.0275,0.2745,0.07696525,0.0010375,0.024887,1741884461.303278
0.85325,0.232,0.28875,0.07478325,0.0123595,0.02674875,1741884461.320323
0.78775,0.3005,0.2915,0.0634765,0.038314752,0.033141997,1741884461.3317518
0.60325,0.42975,0.272,0.05502325,0.0480805,0.0362855,1741884461.345964
0.50825,0.47775,0.252,0.03291325,0.058273252,0.03575125,1741884461.360754
0.31875,0.52025,0.221,0.02200325,0.0614165,0.03053275,1741884461.374418
0.23575,0.52725,0.217,0.01165775,0.064086996,0.0237885,1741884461.388675
0.16725,0.51975,0.2185,-0.010147001,0.06617726,0.014938249,1741884461.4029398
0.0535,0.499,0.226,-0.0213775,0.06495675,0.01322925,1741884461.419693
-0.0105,0.4845,0.22,-0.04273975,0.05947875,0.011398249,1741884461.431736
-0.1505,0.419,0.20225,-0.052139252,0.0552215,0.01026925,1741884461.4461188
-0.2145,0.35775,0.19925,-0.06587225,0.041153,0.0049590003,1741884461.460614
-0.32825,0.16275,0.19775,-0.0701295,0.03193675,0.00245675,1741884461.475161
-0.37025,0.06075,0.18675,-0.07324225,0.021759002,0.0031585,1741884461.4924428
-0.4005,-0.113,0.133,-0.076751746,-0.0012665,0.0123595,1741884461.504299
-0.38925,-0.2065,0.10725,-0.0758515,-0.0115967505,0.01460275,1741884461.519682
-0.369,-0.311,0.09175,-0.06658925,-0.031662002,0.0110625,1741884461.533559
-0.26075,-0.529,0.14025,-0.058838002,-0.04438775,0.0076599997,1741884461.5496829
-0.16625,-0.607,0.1855,-0.0398865,-0.067276,0.00320425,1741884461.562645
0.0245,-0.6925,0.19775,-0.0308075,-0.07244875,0.005844,1741884461.579977
0.10325,-0.709,0.1615,-0.010757499,-0.07339475,0.0115815,1741884461.59274
0.2905,-0.67175,0.12225,0.0015105,-0.07421875,0.008514499,1741884461.60616
0.40625,-0.64825,0.14175,0.02433775,-0.0771485,0.0018615,1741884461.620773
0.6155,-0.61875,0.24875,0.033966,-0.0748595,0.0029145,1741884461.635137
0.696,-0.572,0.2965,0.04331975,-0.068802,0.00694275,1741884461.649995
0.7605,-0.4765,0.32325,0.06115725,-0.0470885,0.020324752,1741884461.6643121
0.8065,-0.17525,0.3295,0.06877125,-0.033966,0.024887,1741884461.680013
0.8005,-0.046,0.3265,0.07542425,-0.0138855,0.02622975,1741884461.6931431
0.8025,0.14775,0.349,0.07453925,-0.0065155,0.02832025,1741884461.710043
0.799,0.24125,0.37125,0.06652825,0.01216125,0.0364075,1741884461.721834
0.72775,0.39375,0.377,0.060195997,0.024688749,0.03945925,1741884461.736043
0.66675,0.4565,0.36675,0.043899503,0.0484315,0.0397645,1741884461.750355
0.50575,0.51725,0.323,0.0343475,0.055786252,0.03692625,1741884461.76454
0.4015,0.51125,0.28725,0.0242005,0.061279252,0.033141997,1741884461.779986
0.29775,0.48975,0.25875,0.0053405,0.069992,0.02525325,1741884461.792953
0.13725,0.451,0.23075,-0.0027465,0.071395755,0.0207215,1741884461.8100412
0.0805,0.44,0.22175,-0.018692,0.06719975,0.011901749,1741884461.821495
-0.02525,0.4285,0.2,-0.02711475,0.06437675,0.0085602505,1741884461.8359418
-0.09025,0.40575,0.189,-0.0355835,0.062622,0.00564575,1741884461.850369
-0.24525,0.30575,0.15175,-0.05072025,0.057312,0.00099175,1741884461.864911
-0.32075,0.239,0.12875,-0.05612175,0.051452752,-0.00019825,1741884461.88011
-0.384,0.16725,0.1175,-0.0637665,0.031952,0.00083925005,1741884461.8938801
-0.467,0.01725,0.11175,-0.0668945,0.01805125,0.002365,1741884461.9100428
-0.48125,-0.05875,0.10275,-0.0689545,-0.010147001,0.004837,1741884461.922843
-0.461,-0.206,0.08325,-0.06678775,-0.0224305,0.00514225,1741884461.937464
-0.4275,-0.288,0.07425,-0.057907,-0.046646,0.005249,1741884461.9520938
-0.30125,-0.44775,0.092,-0.0513,-0.05833425,0.00378425,1741884461.966681
-0.20925,-0.52525,0.122,-0.03433225,-0.077362,-0.00057975,1741884461.981494
0.06325,-0.657,0.22875,-0.024704,-0.08374025,-0.00184625,1741884461.996073
0.23725,-0.701,0.285,-0.014587499,-0.08743275,-0.003296,1741884462.010758
0.57425,-0.75075,0.32575,0.0068969997,-0.083557,-0.003769,1741884462.025219
0.7105,-0.736,0.3055,0.017608749,-0.07652275,-0.00331125,1741884462.0425012
0.805,-0.68325,0.26625,0.039199747,-0.05935675,-0.00177,1741884462.0542028
0.915,-0.465,0.228,0.047821,-0.0505065,0.002655,1741884462.069967
0.93975,-0.321,0.23425,0.058136,-0.03019725,0.0156555,1741884462.083088
0.9125,-0.07225,0.26475,0.0611115,-0.018509,0.021026501,1741884462.0998368
0.8815,0.02375,0.28325,0.0652465,0.002655,0.02601625,1741884462.111865
0.78675,0.20025,0.29225,0.064804,0.0127105,0.02870175,1741884462.1260622
0.737,0.288,0.28925,0.06102,0.022094749,0.03353875,1741884462.1425269
0.6895,0.362,0.2885,0.046737753,0.039611753,0.04037475,1741884462.1544309
0.561,0.45775,0.27175,0.03866575,0.047699,0.038940497,1741884462.1699991
0.47925,0.4725,0.2575,0.021087749,0.0608215,0.030548,1741884462.182975
0.30875,0.443,0.22925,0.0128175,0.065307505,0.025772,1741884462.199379
0.23425,0.4375,0.221,-0.00251775,0.06944275,0.0180665,1741884462.2115011
0.121,0.448,0.21925,-0.010788,0.0689545,0.015090999,1741884462.225895
0.06975,0.449,0.2205,-0.01953125,0.06781,0.0124665005,1741884462.242482
0.01225,0.44275,0.216,-0.037155252,0.06573475,0.008285499,1741884462.254573
-0.1315,0.378,0.187,-0.04505925,0.0636445,0.00662225,1741884462.269896
-0.20025,0.319,0.17175,-0.056305,0.05230725,0.0036315,1741884462.283412
-0.315,0.18925,0.17525,-0.06100475,0.0420075,0.0034484998,1741884462.299708
-0.3695,0.09375,0.17225,-0.06832875,0.019806,0.00228875,1741884462.3121479
-0.46075,-0.119,0.1665,-0.06861875,0.01062,-3.0500001e-05,1741884462.326881
-0.499,-0.2185,0.14575,-0.06646725,-0.00074775,-0.00169375,1741884462.3425741
-0.50275,-0.38575,0.09925,-0.05697625,-0.03273,-0.003128,1741884462.356301
-0.4505,-0.4425,0.07625,-0.0501405,-0.05043025,-0.0059967497,1741884462.3709571
-0.36425,-0.4915,0.06975,-0.037170503,-0.06802375,-0.00289925,1741884462.385605
-0.11325,-0.62025,0.164,-0.0319215,-0.067214996,0.0068969997,1741884462.400361
0.007,-0.687,0.20925,-0.012375,-0.0683135,0.00897225,1741884462.414903
0.17825,-0.80625,0.22125,0.002411,-0.07292175,-0.00305175,1741884462.430345
0.2845,-0.8435,0.2305,0.02943425,-0.0820465,-0.014160249,1741884462.444055
0.53025,-0.842,0.25375,0.04100025,-0.081695504,-0.0062407497,1741884462.4596741
0.66725,-0.71075,0.2765,0.062530495,-0.069992,0.0046234997,1741884462.4731252
0.887,-0.2305,0.3075,0.071228,-0.06301875,0.0065155,1741884462.4876769
0.96025,-0.04525,0.32825,0.07662975,-0.0435485,0.0142365,1741884462.5020642
1.0,0.16625,0.35775,0.07572925,-0.030777,0.017547501,1741884462.516334
0.99475,0.27075,0.354,0.073166,-0.0178375,0.021286,1741884462.5306911
0.974,0.38725,0.3425,0.06056225,0.010024999,0.033264253,1741884462.5449321
0.87825,0.55275,0.33625,0.05154425,0.02537525,0.036255002,1741884462.560124
0.7815,0.58075,0.3085,0.032348752,0.04164125,0.03025825,1741884462.573517
0.5525,0.529,0.2535,0.02114875,0.04747,0.02693175,1741884462.587741
0.43125,0.47825,0.24725,0.0102235,0.054245,0.024261499,1741884462.601983
0.21475,0.37225,0.25025,-0.0075225,0.06425475,0.01628125,1741884462.6162539
0.13175,0.332,0.2445,-0.0150605,0.065292254,0.012420749,1741884462.63051
0.065,0.2975,0.2315,-0.029693501,0.063613996,0.010879501,1741884462.644866
-0.0685,0.2485,0.19475,-0.03627025,0.0621185,0.01092525,1741884462.659672
-0.15275,0.2145,0.17625,-0.047119252,0.05476375,0.007782,1741884462.6736991
-0.32875,0.08475,0.1425,-0.0507965,0.047622748,0.0057220003,1741884462.688281
-0.394,0.00725,0.122,-0.054718,0.026535,0.0061035,1741884462.702674
-0.4675,-0.14125,0.071,-0.055832002,0.0136565,0.0084379995,1741884462.719291
-0.47875,-0.2195,0.03775,-0.055542,0.000473,0.00985725,1741884462.731755
-0.4645,-0.296,0.01675,-0.046814,-0.02445975,0.0031127501,1741884462.746281
-0.356,-0.4095,0.01475,-0.0395965,-0.037063498,-0.0034942501,1741884462.760917
-0.28025,-0.4485,0.02825,-0.025787251,-0.0566405,-0.00839225,1741884462.775622
-0.11425,-0.47025,0.043,-0.01908875,-0.06280525,-0.0062712496,1741884462.7929559
-0.0145,-0.4715,0.049,-0.0049590003,-0.072265506,-0.00579825,1741884462.805142
0.252,-0.5155,0.11375,0.003296,-0.076171756,-0.011184749,1741884462.819755
0.4095,-0.5625,0.16375,0.020599252,-0.075592004,-0.019012501,1741884462.834238
0.70675,-0.60675,0.2345,0.02848825,-0.069320746,-0.01620475,1741884462.8498712
0.82125,-0.57125,0.2455,0.04350275,-0.04992675,-0.0019225,1741884462.863282
0.946,-0.37175,0.2555,0.05084225,-0.0391235,0.00561525,1741884462.880036
0.9635,-0.2285,0.263,0.05711375,-0.02832025,0.012619001,1741884462.892763
0.963,-0.0765,0.2715,0.06245425,-0.0065917503,0.02354425,1741884462.906637
0.8915,0.148,0.2735,0.0615845,0.00488275,0.026886,1741884462.9210272
0.82175,0.2065,0.27675,0.05552675,0.02873225,0.031997748,1741884462.935304
0.6625,0.2855,0.285,0.051391497,0.037887502,0.03385925,1741884462.9499562
0.574,0.33125,0.27175,0.0383605,0.049286,0.035873502,1741884462.9638588
0.39775,0.39475,0.241,0.02896125,0.05387875,0.0366515,1741884462.9799738
0.30525,0.39525,0.2285,0.0194855,0.0588685,0.03521725,1741884462.992641
0.20875,0.384,0.214,0.003418,0.064865,0.026413,1741884463.006743
0.0665,0.39125,0.19875,-0.003769,0.06283575,0.02241525,1741884463.021049
0.02075,0.418,0.19675,-0.019394,0.054397497,0.01510625,1741884463.035389
-0.0835,0.43175,0.1815,-0.028534,0.0509795,0.0122985,1741884463.04989
-0.1455,0.4095,0.16975,-0.04751575,0.04319775,0.009491,1741884463.06439
-0.271,0.293,0.15425,-0.05555725,0.037155252,0.00798025,1741884463.080097
-0.3285,0.2055,0.15375,-0.061386,0.02996825,0.00646975,1741884463.093138
-0.4005,0.0395,0.14075,-0.06871025,0.0109709995,0.00662225,1741884463.109836
-0.40675,-0.03575,0.11675,-0.0712585,-0.001419,0.00764475,1741884463.122129
-0.396,-0.10725,0.07825,-0.0702515,-0.02436825,0.0046539996,1741884463.1368709
-0.3285,-0.29025,0.0155,-0.06678775,-0.033722,9.15e-05,1741884463.15155
-0.266,-0.41875,0.01975,-0.0547485,-0.05410775,-0.011612001,1741884463.1661482
-0.06225,-0.70075,0.106,-0.046142504,-0.063324004,-0.014663749,1741884463.180843
0.066,-0.8075,0.14975,-0.022949249,-0.071167,-0.009094249,1741884463.1955369
0.32475,-0.88625,0.19975,-0.00846875,-0.07014475,-0.0064239996,1741884463.210079
0.4325,-0.85025,0.1915,0.0219575,-0.06460575,-0.01104725,1741884463.224763
0.58675,-0.7145,0.16,0.0342865,-0.0611725,-0.01020825,1741884463.242387
0.65075,-0.62925,0.172,0.053421002,-0.051452752,0.0001525,1741884463.2539022
0.72875,-0.39575,0.223,0.06172175,-0.04452525,0.00593575,1741884463.270071
0.75375,-0.2505,0.24875,0.068924,-0.036560003,0.01171875,1741884463.283055
0.77125,-0.10425,0.27225,0.07753,-0.01956175,0.021087749,1741884463.299304
0.76025,0.147,0.3075,0.07772825,-0.01091,0.0243225,1741884463.311755
0.74025,0.2475,0.3135,0.0683135,0.00567625,0.031265248,1741884463.3259661
0.68025,0.41675,0.29825,0.060195997,0.014572251,0.034606997,1741884463.342443
0.62425,0.474,0.275,0.040161252,0.03256225,0.037384,1741884463.3544981
0.47325,0.51825,0.231,0.029266251,0.04019175,0.036941502,1741884463.370104
0.3925,0.5125,0.21825,0.018463248,0.04524225,0.035553,1741884463.383276
0.3195,0.49325,0.21025,-0.001175,0.0505675,0.02793875,1741884463.399688
0.19725,0.4395,0.20475,-0.009781,0.0525055,0.02230825,1741884463.4119182
0.14175,0.40475,0.19475,-0.026474,0.0519715,0.014343251,1741884463.426372
0.03975,0.33,0.1625,-0.034423754,0.0506135,0.013214,1741884463.4424498
-0.01075,0.29925,0.14975,-0.04891975,0.046142504,0.013931249,1741884463.455345
-0.10875,0.231,0.13375,-0.05467225,0.041793752,0.012985251,1741884463.469899
-0.1545,0.18125,0.125,-0.06144725,0.02964775,0.0054780003,1741884463.48426
-0.229,0.0415,0.11825,-0.0634765,0.0228425,0.0023497501,1741884463.499802
-0.26075,-0.028,0.107,-0.06555175,0.01469425,0.0017242499,1741884463.5132852
-0.28675,-0.088,0.08925,-0.066665746,-0.00289925,0.00245675,1741884463.530081
-0.29825,-0.23425,0.0745,-0.06404125,-0.0112915,-6.1000002e-05,1741884463.542637
-0.2845,-0.3155,0.067,-0.05293275,-0.03005975,-0.009719751,1741884463.559974
-0.234,-0.4655,0.0545,-0.04695125,-0.0391235,-0.0112,1741884463.571904
-0.196,-0.531,0.05975,-0.03331,-0.05603025,-0.00672925,1741884463.586644
-0.0555,-0.5985,0.1085,-0.0241395,-0.06248475,-0.00494375,1741884463.601323
0.0405,-0.58975,0.12725,-0.00411975,-0.067520246,-0.0045777503,1741884463.6158452
0.24725,-0.56175,0.13275,0.00514225,-0.06802375,-0.004074,1741884463.630445
0.36375,-0.56125,0.1535,0.023528999,-0.06890875,-0.008255,1741884463.645053
0.63,-0.5335,0.21525,0.03273,-0.0673065,-0.011123749,1741884463.660109
0.7695,-0.47275,0.24275,0.04043575,-0.06257625,-0.010101249,1741884463.673921
0.88525,-0.38175,0.259,0.0502015,-0.043396,0.00369275,1741884463.688339
0.972,-0.2135,0.26475,0.053527746,-0.02970875,0.00991825,1741884463.702752
0.953,-0.13575,0.25775,0.05947875,-0.0050812503,0.01622,1741884463.719539
0.8845,0.02175,0.25175,0.06062325,0.00469975,0.020019501,1741884463.7314382
0.84175,0.10475,0.261,0.0574035,0.022873,0.0291595,1741884463.74577
0.71725,0.2195,0.284,0.053100497,0.03259275,0.03244025,1741884463.760108
0.63525,0.2495,0.2905,0.04774475,0.041992247,0.03456125,1741884463.774167
0.5475,0.269,0.28875,0.03500375,0.05697625,0.03556825,1741884463.788403
0.3495,0.2725,0.2555,0.028061,0.063034,0.03474425,1741884463.802895
0.24475,0.26275,0.2265,0.0152435,0.071228,0.032516498,1741884463.819419
0.07275,0.2815,0.17725,0.00976575,0.07221975,0.030487,1741884463.8316789
0.01075,0.30675,0.159,-0.0021057501,0.066803,0.024047751,1741884463.846082
-0.08925,0.34125,0.13725,-0.008773751,0.062194753,0.020049999,1741884463.8605409
-0.1395,0.34625,0.1255,-0.022949249,0.051712003,0.013061499,1741884463.874922
-0.2355,0.30775,0.09325,-0.030334499,0.045166,0.01127625,1741884463.8924532
-0.27725,0.2735,0.07525,-0.036972,0.03768925,0.0105742505,1741884463.9037209
-0.312,0.23325,0.0635,-0.0475005,0.0203705,0.0093385,1741884463.91958
-0.35425,0.1405,0.0475,-0.051788248,0.009781,0.007553,1741884463.9325519
-0.3565,0.098,0.04175,-0.057418752,-0.010879501,0.0034637498,1741884463.947062
-0.329,0.0015,0.04675,-0.058715753,-0.020019501,0.00204475,1741884463.96164
-0.31325,-0.06825,0.04625,-0.05691525,-0.03762825,-0.0037079998,1741884463.976337
-0.27125,-0.237,0.0565,-0.054062,-0.046737753,-0.007553,1741884463.992434
-0.2265,-0.3335,0.07875,-0.045227002,-0.06489575,-0.010681249,1741884464.005573
-0.05275,-0.506,0.14825,-0.038437,-0.07276925,-0.01145925,1741884464.020287
0.08,-0.59225,0.18975,-0.02977,-0.07901,-0.01351925,1741884464.0348349
0.22525,-0.69075,0.22875,-0.00918575,-0.08370975,-0.02105725,1741884464.0499258
0.459,-0.86925,0.2515,0.0018615,-0.080917254,-0.02105725,1741884464.063946
0.54325,-0.8965,0.2435,0.02722175,-0.069976754,-0.00694275,1741884464.0801039
0.7085,-0.71225,0.23575,0.04129025,-0.0651855,0.00016775,1741884464.092939
0.782,-0.5325,0.24175,0.0629425,-0.051513746,0.0091095,1741884464.1098938
0.878,-0.16375,0.2675,0.06849675,-0.04129025,0.0135955,1741884464.121613
0.895,-0.0005,0.285,0.07136525,-0.0186005,0.022766002,1741884464.1360362
0.87675,0.25425,0.28875,0.06953425,-0.007187,0.026672252,1741884464.150531
0.84225,0.338,0.28875,0.065414496,0.0059205,0.030029248,1741884464.1648471
0.78475,0.4075,0.28525,0.0526275,0.026092501,0.030548,1741884464.1800141
0.64425,0.49875,0.2515,0.043686002,0.031433,0.02857975,1741884464.193424
0.5735,0.502,0.24025,0.0213775,0.043167,0.0236665,1741884464.209773
0.39825,0.4525,0.2415,0.01054375,0.050460752,0.0203095,1741884464.222219
0.29875,0.41475,0.2435,-0.006775,0.061569247,0.0133667495,1741884464.23651
0.1295,0.36325,0.2245,-0.014663749,0.0631255,0.011764499,1741884464.250894
0.0795,0.35575,0.216,-0.0229035,0.0623475,0.011749251,1741884464.2652302
0.0355,0.35025,0.20775,-0.03901675,0.05805975,0.01071175,1741884464.280084
-0.07075,0.3035,0.17975,-0.04660025,0.05505375,0.0093385,1741884464.2939048
-0.11525,0.267,0.171,-0.06045525,0.04359425,0.00767525,1741884464.3099039
-0.1815,0.17625,0.17125,-0.06587225,0.03645325,0.0064850003,1741884464.322714
-0.2175,0.10475,0.1755,-0.074005246,0.0236665,0.0052947504,1741884464.337336
-0.32175,-0.08875,0.1375,-0.07649225,0.01599125,0.0062407497,1741884464.351837
-0.37225,-0.17875,0.10675,-0.07392875,-0.00108325,0.00694275,1741884464.3664289
-0.413,-0.3015,0.0505,-0.069198504,-0.0125275,0.004547,1741884464.381063
-0.3995,-0.361,0.03375,-0.0631715,-0.026092501,-0.0005645,1741884464.3958342
-0.36175,-0.4315,0.03675,-0.0483855,-0.055069,-0.009643501,1741884464.410507
-0.19525,-0.6,0.1165,-0.03974925,-0.06634525,-0.0115205,1741884464.425101
-0.0885,-0.667,0.16675,-0.019927999,-0.076263495,-0.0093385,1741884464.442373
0.135,-0.7035,0.2325,-0.009552,-0.07566825,-0.00579825,1741884464.45451
0.24225,-0.7065,0.239,0.01086425,-0.0719605,0.0001525,1741884464.47014
0.47275,-0.71625,0.245,0.0219115,-0.07095325,-0.00080875,1741884464.4835289
0.58525,-0.69725,0.25725,0.04467775,-0.066452004,-0.0040587503,1741884464.499264
0.79625,-0.5745,0.30475,0.05363475,-0.06039425,0.0,1741884464.512326
0.8875,-0.44525,0.3235,0.066986,-0.04090875,0.0139770005,1741884464.52663
0.9535,-0.14975,0.321,0.07115175,-0.02861025,0.01893625,1741884464.542461
0.9285,-0.0475,0.31175,0.07315075,-0.01643375,0.023346001,1741884464.555414
0.88575,0.02025,0.3085,0.07260125,0.00579825,0.032852247,1741884464.569985
0.7725,0.13,0.32075,0.0708465,0.01766975,0.03701775,1741884464.583928
0.69625,0.18375,0.32075,0.0631715,0.03601075,0.043578997,1741884464.5996742
0.5445,0.27375,0.30475,0.05679325,0.041610748,0.04533375,1741884464.6124249
0.474,0.28425,0.2955,0.04031375,0.0512085,0.044113252,1741884464.626752
0.3235,0.25725,0.28075,0.0333405,0.056335498,0.04100025,1741884464.642407
0.2455,0.248,0.264,0.02731325,0.06100475,0.0375365,1741884464.655127
0.18375,0.2495,0.24775,0.014557,0.06457525,0.034362752,1741884464.669856
0.10125,0.30575,0.229,0.007965,0.06378175,0.032043498,1741884464.6835232
0.042,0.33775,0.2085,-0.0067597497,0.061325002,0.022873,1741884464.6996748
-0.09275,0.33025,0.1575,-0.01475525,0.05874625,0.01864625,1741884464.712328
-0.15325,0.3145,0.1305,-0.022064252,0.05461125,0.015167249,1741884464.726893
-0.2525,0.29125,0.081,-0.035766497,0.04216,0.0123595,1741884464.742265
-0.2925,0.27625,0.0705,-0.04240425,0.03445425,0.012832751,1741884464.755748
-0.32825,0.2505,0.06975,-0.054062,0.01652525,0.00968925,1741884464.770205
-0.37275,0.13025,0.07275,-0.05935675,0.00617975,0.00671375,1741884464.784663
-0.379,0.0585,0.06375,-0.06608575,-0.013214,0.00621025,1741884464.799788
-0.36475,-0.00525,0.048,-0.067031756,-0.021560749,0.0073242504,1741884464.813762
-0.34725,-0.01425,0.04725,-0.066665746,-0.039276,0.005249,1741884464.829799
-0.29425,-0.095,0.08225,-0.065857,-0.048172,0.0013885,1741884464.8428211
-0.256,-0.21375,0.125,-0.06163025,-0.0652465,-0.0066374997,1741884464.859586
-0.06325,-0.55575,0.25925,-0.05517575,-0.07171625,-0.0095672505,1741884464.872285
0.07875,-0.6925,0.3095,-0.045303248,-0.07563775,-0.01091,1741884464.88692
0.2305,-0.786,0.346,-0.018859752,-0.07870475,-0.0135955,1741884464.901514
0.5465,-0.92575,0.38575,-0.0044555003,-0.079971254,-0.01705925,1741884464.9161432
0.6825,-0.963,0.37675,0.023407,-0.07510375,-0.012634249,1741884464.930749
0.8515,-0.843,0.34275,0.0379485,-0.067596495,-0.00334175,1741884464.945195
0.8895,-0.65775,0.32675,0.064926244,-0.045807,0.0114744995,1741884464.9597812
0.8945,-0.22525,0.28875,0.073593244,-0.034256,0.015396,1741884464.97402
0.9055,-0.0465,0.29625,0.080917254,-0.014007499,0.021759002,1741884464.988323
0.895,0.22875,0.3055,0.080062754,-0.00302125,0.02592475,1741884465.002701
0.8465,0.332,0.2965,0.0754395,0.010940501,0.03158575,1741884465.016916
0.78,0.43375,0.281,0.059692502,0.032943748,0.039322,1741884465.0312588
0.62275,0.5735,0.21725,0.04953,0.03904725,0.0398255,1741884465.045495
0.53425,0.5965,0.19175,0.02581775,0.050536998,0.0345,1741884465.059856
0.3425,0.5575,0.1655,0.01431275,0.05558775,0.028411752,1741884465.074198
0.23625,0.4895,0.15825,-0.0052337497,0.061401248,0.015854,1741884465.0885088
0.07225,0.3695,0.15275,-0.0142365,0.0612945,0.0135955,1741884465.1028109
0.02725,0.33725,0.1545,-0.023376498,0.059723,0.014145001,1741884465.1193972
-0.0145,0.327,0.1535,-0.039688,0.053482,0.01548775,1741884465.131665
-0.10225,0.32325,0.158,-0.047057997,0.048660252,0.013549751,1741884465.1460512
-0.13575,0.291,0.17225,-0.06144725,0.03660575,0.00485225,1741884465.160372
-0.2045,0.14975,0.18825,-0.06710825,0.03070075,0.0010375,1741884465.174814
-0.24375,0.0675,0.19025,-0.0743865,0.018402,0.00198375,1741884465.189332
-0.30325,-0.1365,0.18775,-0.07539375,0.0088195,0.00283825,1741884465.203917
-0.311,-0.2295,0.16975,-0.0675355,-0.012115501,-0.00485225,1741884465.219266
-0.26675,-0.338,0.116,-0.0616455,-0.02200325,-0.0070495,1741884465.233322
-0.22075,-0.3655,0.0935,-0.056579497,-0.03096,-0.006012,1741884465.249651
-0.1355,-0.4685,0.06825,-0.0473175,-0.045654252,-0.004074,1741884465.2625742
-0.1095,-0.53725,0.062,-0.04069525,-0.052063,-0.00590525,1741884465.2798982
-0.08225,-0.59375,0.06075,-0.02351375,-0.06352225,-0.002655,1741884465.2926311
0.0595,-0.59925,0.10925,-0.0139465,-0.06849675,0.00279225,1741884465.3063521
0.17475,-0.57625,0.14775,0.0050965,-0.0769805,0.00254825,1741884465.320816
0.41525,-0.59025,0.21475,0.014724749,-0.07737725,-0.001007,1741884465.335362
0.526,-0.595,0.246,0.033370998,-0.06761175,0.0023345,1741884465.3499572
0.735,-0.46975,0.2965,0.042663503,-0.0596465,0.0065765,1741884465.364195
0.801,-0.351,0.2985,0.056152247,-0.03955075,0.014557,1741884465.379979
0.87575,-0.1585,0.29525,0.0602265,-0.02867125,0.01800525,1741884465.392999
0.8825,-0.06,0.2995,0.063919,-0.01794425,0.019806,1741884465.409935
0.8615,0.031,0.3,0.0644225,0.004242,0.024841249,1741884465.421716
0.753,0.14375,0.2735,0.060974,0.0158385,0.029892,1741884465.435893
0.67625,0.198,0.255,0.051651,0.03677375,0.0364075,1741884465.4502022
0.52125,0.28475,0.22075,0.045227002,0.04353325,0.03730775,1741884465.464395
0.45125,0.3005,0.2075,0.029907249,0.052719,0.03781125,1741884465.480125
0.3175,0.31325,0.17975,0.0219575,0.056549,0.038437,1741884465.492914
0.2475,0.335,0.1705,0.014587499,0.06010425,0.03762825,1741884465.507074
0.185,0.362,0.16925,0.000229,0.062255748,0.029220501,1741884465.52151
0.08525,0.3965,0.16775,-0.007431,0.060668997,0.023528999,1741884465.535819
0.018,0.39575,0.15425,-0.022949249,0.056305,0.015442001,1741884465.550337
-0.112,0.37,0.1185,-0.03096,0.052658,0.015167249,1741884465.564728
-0.1595,0.3585,0.11,-0.04515075,0.04087825,0.01419075,1741884465.580052
-0.22625,0.3065,0.1215,-0.050674498,0.0328675,0.00962825,1741884465.5935109
-0.24075,0.25125,0.13825,-0.05574025,0.0243225,0.00419625,1741884465.6098392
-0.249,0.181,0.156,-0.065277,0.0117035,0.0019989999,1741884465.622296
-0.282,0.0305,0.1545,-0.069107,0.00697325,0.00585925,1741884465.6366851
-0.2995,-0.05175,0.13,-0.070358254,-0.0072632497,0.014648501,1741884465.651289
-0.2925,-0.19375,0.09425,-0.066452004,-0.01791375,0.0148925,1741884465.665924
-0.25775,-0.252,0.10975,-0.053710997,-0.04391475,0.0059205,1741884465.68051
-0.092,-0.41975,0.20275,-0.046371497,-0.056335498,3.0500001e-05,1741884465.695196
0.00925,-0.5085,0.23075,-0.02920525,-0.068283,-0.00343325,1741884465.7100348
0.168,-0.6385,0.213,-0.020034749,-0.06817625,0.00061025,1741884465.724204
0.2525,-0.67175,0.204,-0.0100555,-0.067413256,0.00466925,1741884465.738726
0.369,-0.6895,0.209,0.01330575,-0.0687865,0.00051875,1741884465.753097
0.66175,-0.69275,0.239,0.025268499,-0.068222,-0.0040435,1741884465.769832
0.795,-0.664,0.26575,0.0450135,-0.054580748,-0.0021515,1741884465.7821949
0.922,-0.522,0.2805,0.053542998,-0.041824248,0.0041044997,1741884465.796614
0.9045,-0.40675,0.25975,0.06929025,-0.014038,0.019042999,1741884465.811017
0.81925,-0.10875,0.22225,0.0763855,-0.00317375,0.0236665,1741884465.8256378
0.8055,0.07125,0.22525,0.08114625,0.011825499,0.026397752,1741884465.842311
0.8005,0.334,0.24725,0.0769195,0.02091975,0.027771,1741884465.8542159
0.763,0.4055,0.25525,0.070221,0.031997748,0.028946,1741884465.869815
0.6995,0.46375,0.25925,0.053527746,0.0533905,0.0299225,1741884465.882644
0.5215,0.55725,0.24275,0.043578997,0.061828498,0.03111275,1741884465.896835
0.431,0.59025,0.22825,0.02082825,0.07342525,0.032470748,1741884465.911227
0.25725,0.602,0.22225,0.009216251,0.076416,0.02861025,1741884465.925378
0.185,0.557,0.2335,-0.0112,0.080459505,0.0139770005,1741884465.942456
0.05225,0.43725,0.2395,-0.020111,0.08135975,0.0100707505,1741884465.953921
-0.0065,0.40375,0.2355,-0.028946,0.079483,0.010452249,1741884465.9699159
-0.06125,0.3725,0.2285,-0.04609675,0.0701295,0.01322925,1741884465.9826958
