acc_x,acc_y,acc_z,gyro_x,gyro_y,gyro_z,timestamp
0.23925,0.01425,-0.06125,-0.00358575,-0.001892,0.0041044997,1741884856.6738958
0.23925,0.01175,-0.0605,-0.0019685,-0.00137325,0.0032347501,1741884856.686738
0.23975,0.01125,-0.05475,-0.00042725,-0.00115975,0.00238025,1741884856.701118
0.24275,0.01425,-0.03725,3.0500001e-05,-0.00083925005,0.00204475,1741884856.715462
0.245,0.01575,-0.033,0.0012207499,0.00131225,0.000824,1741884856.72989
0.248,0.01325,-0.0415,0.001648,0.00276175,0.0002135,1741884856.744195
0.248,0.009,-0.0515,0.00367725,0.0047455,-0.00077825,1741884856.759447
0.24325,0.001,-0.065,0.0047607496,0.004837,-0.00105275,1741884856.77301
0.242,0.00025,-0.06325,0.0051574996,0.00437925,-0.00112925,1741884856.787468
0.24175,0.0015,-0.05775,0.00460825,0.0034484998,-0.00112925,1741884856.801984
0.24075,0.0045,-0.0495,0.004486,0.0034942501,-0.0012970001,1741884856.816478
0.23925,0.0055,-0.04925,0.004547,0.0042572496,-0.0014037499,1741884856.8310452
0.23825,0.00425,-0.05075,0.003769,0.00466925,-0.00077825,1741884856.8456619
0.238,0.0065,-0.0525,0.00019825,0.0052947504,0.0017242499,1741884856.859919
0.2345,0.0245,-0.06225,-0.00067150005,0.00531,0.0019685,1741884856.874252
0.2345,0.0235,-0.067,0.0,0.00419625,0.0001525,1741884856.89011
0.23875,0.01125,-0.066,3.0500001e-05,0.0034484998,-0.00039675,1741884856.902945
0.2415,0.01075,-0.05975,-0.00010675,0.0029449998,-0.00048825,1741884856.9186711
0.2445,0.01525,-0.05275,0.00045775,0.00352475,-0.0011445,1741884856.931873
0.25125,0.02075,-0.0505,0.00051875,0.0042725,-0.001587,1741884856.9462929
0.252,0.01975,-0.058,-0.00067150005,0.0053405,-0.00115975,1741884856.960799
0.24425,0.01,-0.08625,-0.0009765,0.0052642496,-0.000763,1741884856.9753642
0.237,0.01,-0.09975,0.0003205,0.00384525,-0.0007325,1741884856.989671
0.2225,0.02775,-0.1225,0.00059500005,0.0023497501,-0.001175,1741884857.003938
0.20225,0.0355,-0.14425,0.0002595,-0.00010675,-0.0019989999,1741884857.019056
0.074,0.0645,-0.282,0.001648,-0.01222225,-0.00460825,1741884857.033088
-0.03625,0.0905,-0.42075,0.00364675,-0.029358,-0.0059510004,1741884857.048865
-0.15975,0.1125,-0.5785,0.00105275,-0.1046905,-0.0114135,1741884857.062196
-0.48625,0.05475,-0.704,-0.009903,-0.156601,-0.014389,1741884857.0789518
-0.66975,-0.04575,-0.6,-0.0262145,-0.2532805,-0.01048275,1741884857.0917811
-0.95975,-0.19675,-0.26975,-0.02183525,-0.28370675,0.0013275,1741884857.106474
-1.0,-0.114,-0.125,-0.0202485,-0.31425476,0.028534,1741884857.121176
-1.0,0.107,0.2245,-0.02417,-0.322586,0.03250125,1741884857.135757
-0.9985,0.10025,0.48925,-0.019165002,-0.31672674,0.02330025,1741884857.1502578
-0.777,0.0125,1.0,-0.035797,-0.29069525,0.021560749,1741884857.1647801
-0.52125,0.05275,1.0,-0.065979,-0.1912385,0.0482025,1741884857.179358
-0.2095,0.26375,1.0,-0.0390625,-0.12403875,0.056717,1741884857.193744
-0.2545,0.34925,0.945,-0.0060882503,-0.05783075,0.04765325,1741884857.209176
-0.3505,0.3705,0.77175,0.0075682504,0.020218,0.01396175,1741884857.222662
-0.37075,0.17525,0.37225,0.000885,0.03120425,0.00238025,1741884857.2381911
-0.2735,0.0735,0.34325,0.00305175,0.03598025,-0.0081025,1741884857.2512379
-0.12075,0.051,0.3855,0.0081635,0.04034425,-0.0089569995,1741884857.265715
-0.102,0.0675,0.375,0.009796251,0.05488575,-0.01368725,1741884857.280065
-0.10825,0.0505,0.3495,0.0065917503,0.061676,-0.01864625,1741884857.294483
-0.123,0.042,0.3435,0.00402825,0.066360496,-0.02359,1741884857.309682
-0.146,0.0395,0.31975,0.00543225,0.065567,-0.0238495,1741884857.323471
-0.175,0.00775,0.21375,0.0052795,0.05941775,-0.018448,1741884857.3400981
-0.158,-0.011,0.1855,0.002243,0.047943,-0.01026925,1741884857.352395
-0.0665,-0.018,0.249,0.0038757501,0.0456695,-0.00982675,1741884857.366891
-0.02425,-0.00725,0.296,0.008484,0.051071253,-0.011734,1741884857.381423
-0.00125,0.0315,0.3235,0.012741,0.058090247,-0.013336251,1741884857.3958862
-0.013,0.046,0.3085,0.017334,0.072052,-0.0177155,1741884857.410233
-0.0455,0.0395,0.26325,0.01805125,0.076065004,-0.017974751,1741884857.424851
-0.041,0.0275,0.24725,0.017730748,0.07772825,-0.015335,1741884857.439887
-0.0205,0.015,0.248,0.01361075,0.07753,-0.0047150003,1741884857.4536698
0.0195,0.009,0.28225,0.01177975,0.07890325,0.00036625,1741884857.4691389
0.03775,0.01775,0.292,0.0095672505,0.0894775,0.00444025,1741884857.482133
0.09025,0.03825,0.30825,0.0077210004,0.095581,0.0024414998,1741884857.4963222
0.095,0.0325,0.2985,0.00494375,0.098663256,-0.0043335,1741884857.510695
0.06525,-0.0075,0.22275,0.0037079998,0.09544375,-0.0047302498,1741884857.525002
0.06225,-0.02275,0.18375,0.00302125,0.09167475,-0.002365,1741884857.540415
0.09175,-0.025,0.15075,0.0065917503,0.0860595,0.0037537501,1741884857.5538921
0.10275,-0.00875,0.12975,0.010498,0.08370975,0.0045165,1741884857.5693598
0.1085,0.004,0.104,0.0158845,0.0765685,0.0024414998,1741884857.582627
0.117,-0.00575,0.05375,0.01576225,0.07244875,0.001648,1741884857.596902
0.12375,-0.017,0.035,0.0126495,0.06292725,0.002777,1741884857.611285
0.15075,-0.01475,0.02925,0.0125885,0.05821225,0.00408925,1741884857.625729
0.16125,-0.0045,0.02975,0.016632,0.051528998,0.00511175,1741884857.6408708
0.17425,0.01875,0.02675,0.01799,0.04907225,0.004486,1741884857.654309
0.1795,0.028,0.01975,0.01734925,0.0470275,0.00369275,1741884857.669396
0.18275,0.02475,0.0015,0.01187125,0.04122925,0.0031127501,1741884857.6827688
0.196,-0.009,-0.024,0.00924675,0.03677375,0.0033875,1741884857.698644
0.20775,-0.01625,-0.01175,0.00982675,0.031372,0.00343325,1741884857.7116601
0.2135,-0.0035,-0.00325,0.013046251,0.030838,0.0025025,1741884857.72602
0.213,0.00325,-0.015,0.014800999,0.0295105,0.001648,1741884857.740256
0.216,0.01175,-0.0315,0.011917,0.0290985,0.00238025,1741884857.7546802
0.216,0.00625,-0.03175,0.0084379995,0.029144252,0.00320425,1741884857.7691982
0.214,-0.00025,-0.03475,0.0057677496,0.027252251,0.00340275,1741884857.783262
0.2,0.01,-0.067,0.0069885002,0.023803748,0.0025787498,1741884857.799466
0.19075,0.01925,-0.08525,0.0073547503,0.013793999,-0.0001525,1741884857.811999
0.1645,0.03475,-0.10625,0.00631725,0.0086975,-0.00154125,1741884857.826496
0.13275,0.04975,-0.13025,0.0053405,-0.0035095,-0.00485225,1741884857.8410811
0.003,0.099,-0.28775,0.00292975,-0.014785751,-0.00668325,1741884857.8556569
-0.0905,0.12675,-0.43125,-0.001709,-0.034011748,-0.0090485,1741884857.8702269
-0.19525,0.14725,-0.56875,-0.0114440005,-0.103363,-0.02098075,1741884857.884955
-0.4495,0.09475,-0.66575,-0.015213001,-0.15013126,-0.03149425,1741884857.8995972
-0.585,0.06825,-0.587,-0.0179595,-0.2347565,-0.047485247,1741884857.914216
-0.84075,0.10375,-0.29325,-0.02091975,-0.26213074,-0.046157748,1741884857.929677
-0.9485,0.15325,-0.1555,-0.04306025,-0.30033875,-0.0352325,1741884857.943598
-1.0,-0.019,0.2905,-0.03913875,-0.3127595,-0.03306575,1741884857.959765
-0.9715,-0.20975,0.7125,-0.0036315,-0.29240423,-0.021988,1741884857.972987
-0.6385,-0.2435,1.0,-0.01351925,-0.251236,-0.00930775,1741884857.990292
-0.4815,-0.17725,1.0,-0.03622425,-0.13346875,0.009369001,1741884858.0020921
-0.29175,-0.13275,0.98675,-0.018402,-0.0794525,0.011612001,1741884858.0166469
-0.27875,-0.041,0.95825,0.015289251,-0.00723275,0.017501751,1741884858.031116
-0.22925,0.1655,0.679,0.019333,0.013153,0.016235251,1741884858.0454059
-0.1685,0.18075,0.528,0.017501751,0.028442498,0.010101249,1741884858.059785
-0.1165,0.12825,0.42225,0.00531,0.05336,-0.0052947504,1741884858.0739682
-0.0905,-0.02025,0.28875,-0.00125125,0.061996497,-0.00924675,1741884858.0905018
-0.10275,-0.07625,0.242,-0.00798025,0.069122255,-0.0079955,1741884858.1030989
-0.15125,-0.09025,0.1415,-0.010513251,0.06906125,-0.00485225,1741884858.1192489
-0.14775,-0.0665,0.12675,-0.01747125,0.057418752,-0.0025025,1741884858.1322858
-0.08575,-0.02725,0.13975,-0.017120251,0.045715246,-0.00292975,1741884858.146862
-0.05225,-0.02275,0.15725,-0.0077667497,0.02575675,-0.00062550005,1741884858.16144
-0.01375,-0.01425,0.19175,-0.003891,0.02114875,3.0500001e-05,1741884858.175957
-0.0105,-0.01025,0.201,0.00061025,0.01991275,-0.00131225,1741884858.1909518
-0.01075,-0.01425,0.213,0.0080872495,0.024108998,-0.0065917503,1741884858.205007
-0.017,-0.0345,0.2405,0.009140001,0.02645875,-0.00788875,1741884858.219489
-0.026,-0.04125,0.2475,0.010788,0.02796925,-0.0065765,1741884858.233942
-0.0235,-0.03625,0.2905,0.011535751,0.028594999,-0.0044250004,1741884858.249706
-0.0155,-0.017,0.31775,0.00985725,0.031784,0.00033575002,1741884858.262867
-0.007,0.01725,0.331,0.007019,0.03359975,0.001175,1741884858.279567
0.00825,0.01075,0.33875,-0.0005035,0.03971875,0.00096125,1741884858.291491
0.04125,-0.02475,0.3715,-0.0028074998,0.045516998,0.00105275,1741884858.305867
0.04375,-0.032,0.37125,-0.00317375,0.05201725,0.00108325,1741884858.320251
0.0375,-0.028,0.3535,-0.00070200005,0.06172175,0.00109875,1741884858.334653
0.04075,-0.02,0.30825,0.00019825,0.063705504,0.001419,1741884858.3498728
0.0525,-0.026,0.29025,0.0007935,0.0635375,0.0037995,1741884858.363109
0.06925,-0.0135,0.27075,0.001007,0.0639495,0.00514225,1741884858.3796911
0.07825,-0.0,0.26775,0.00267025,0.069168,0.00238025,1741884858.391644
0.10175,-0.014,0.24725,0.00358575,0.071685754,-0.00077825,1741884858.406065
0.1065,-0.0255,0.22075,0.00381475,0.0724945,-0.00289925,1741884858.4204721
0.10775,-0.03625,0.1975,0.00302125,0.06896975,-0.00251775,1741884858.435065
0.12175,-0.05175,0.17375,0.00355525,0.067093,-0.00062550005,1741884858.450235
0.12825,-0.06,0.1635,0.009017999,0.064361505,0.0033570002,1741884858.4638069
0.136,-0.04975,0.14675,0.0115967505,0.062759496,0.0049742498,1741884858.4796941
0.14175,-0.0295,0.1495,0.0115205,0.06248475,0.0065002497,1741884858.4926772
0.1485,-0.00875,0.139,0.010513251,0.06410225,0.0059510004,1741884858.506923
0.15,-0.00725,0.111,0.009734999,0.064468496,0.0049590003,1741884858.521333
0.15525,-0.01225,0.0835,0.0090485,0.059311002,0.00543225,1741884858.535653
0.16575,-0.034,0.072,0.009369001,0.056305,0.0076142503,1741884858.550258
0.18625,-0.036,0.08575,0.015075751,0.056289747,0.01054375,1741884858.5641978
0.1865,-0.0285,0.0825,0.01965325,0.05953975,0.00903325,1741884858.579301
0.16625,-0.0295,0.05875,0.025268499,0.062912,0.00791925,1741884858.5928261
0.16075,-0.025,-0.00175,0.02525325,0.060287498,0.01020825,1741884858.609279
0.1635,-0.008,-0.03225,0.023071252,0.0558015,0.01351925,1741884858.6216671
0.16025,0.01575,-0.05375,0.00991825,0.048294,0.019012501,1741884858.63595
0.14625,0.04075,-0.0725,0.00201425,0.045944247,0.01930225,1741884858.650374
0.13475,0.039,-0.0915,0.00077825,0.036987253,0.01322925,1741884858.664673
0.10175,0.04425,-0.16075,0.006775,0.02864075,0.008514499,1741884858.679306
0.06975,0.06375,-0.2115,0.0113525,0.0063325,0.00276175,1741884858.6933692
-0.08375,0.12475,-0.48625,0.0033722501,-0.012191749,0.002411,1741884858.709414
-0.20875,0.14,-0.6855,-0.010086001,-0.04441825,0.0011445,1741884858.722534
-0.48975,0.12725,-0.759,-0.02870175,-0.15625,-0.015213001,1741884858.739855
-0.67225,0.1055,-0.6315,-0.026184,-0.214981,-0.0265655,1741884858.751957
-0.8625,0.08025,-0.4625,-0.01358025,-0.287445,-0.033157248,1741884858.766624
-1.0,0.059,-0.0835,-0.01086425,-0.3055115,-0.028839001,1741884858.781373
-1.0,0.05025,0.12525,-0.0074004997,-0.3258515,-0.02763375,1741884858.795985
-0.9935,-0.1825,0.73425,-0.0039825,-0.32563776,-0.03097525,1741884858.8106508
-0.93625,-0.3215,1.0,-0.03518675,-0.28067026,-0.01326,1741884858.8252149
-0.4755,-0.30225,1.0,-0.05302425,-0.2295685,0.01753225,1741884858.840018
-0.26025,-0.15475,1.0,-0.0019225,-0.0863495,0.047958247,1741884858.854377
-0.26175,0.19375,0.88075,0.02127075,-0.017212,0.036422748,1741884858.869312
-0.3325,0.25,0.61025,0.015289251,0.04806525,0.008590749,1741884858.88316
-0.24425,0.10625,0.18575,0.008209251,0.048995998,0.00065625,1741884858.898974
-0.14975,0.05175,0.18925,0.0057220003,0.0436095,-0.0022125002,1741884858.9119968
-0.0865,0.0325,0.23875,0.00747675,0.04104625,-0.00399775,1741884858.926363
-0.061,-0.04075,0.281,0.0060882503,0.0462495,-0.0065155,1741884858.94085
-0.077,-0.0855,0.27075,0.0,0.05903625,-0.010147001,1741884858.9553869
-0.12575,-0.08775,0.235,-0.00283825,0.06185925,-0.0097045,1741884858.970072
-0.137,-0.055,0.21625,-0.00216675,0.05230725,-0.005844,1741884858.9846468
-0.1165,-0.013,0.153,0.0002135,0.04100025,-0.00399775,1741884858.9996648
-0.083,-0.02575,0.15575,0.00434875,0.023650998,-0.001236,1741884859.01355
-0.00675,-0.081,0.26025,0.0042572496,0.02268975,0.00071725,1741884859.029454
0.009,-0.096,0.31475,0.0027160002,0.02705375,0.00358575,1741884859.042376
0.005,-0.08875,0.344,0.00242625,0.04403675,0.0077515002,1741884859.0593128
-0.049,-0.0255,0.31475,0.0052947504,0.051956248,0.00671375,1741884859.071245
-0.07025,0.00825,0.28975,0.008788999,0.059203997,-0.0002135,1741884859.085641
-0.047,0.01175,0.3045,0.0073547503,0.05947875,-0.0032195,1741884859.100235
-0.015,-0.01,0.33075,-0.0007325,0.06169125,-0.000473,1741884859.114986
0.02475,-0.0395,0.34625,-0.0044250004,0.064621,0.0035704998,1741884859.129803
0.03275,-0.0555,0.34175,-0.0071409997,0.075241,0.0123595,1741884859.143766
0.03875,-0.0365,0.2965,-0.00672925,0.082275495,0.01631175,1741884859.1598048
0.031,-0.00875,0.26375,-0.0057677496,0.086456254,0.017746,1741884859.17261
0.02725,0.0075,0.236,-0.0064545004,0.08171075,0.0124665005,1741884859.1868238
0.06,0.00775,0.2135,-0.008148249,0.07577525,0.00833125,1741884859.201154
0.0785,0.0025,0.20225,-0.00883475,0.06469725,0.00364675,1741884859.2155619
0.10875,-0.01325,0.18525,-0.00717175,0.061676,0.00308225,1741884859.22999
0.12125,-0.01825,0.1855,-0.00086975005,0.06301875,0.0027465,1741884859.244378
0.1385,-0.01925,0.18825,0.0025634998,0.065094,0.0022735,1741884859.2598982
0.1375,-0.01775,0.17325,0.005539,0.0666045,0.00213625,1741884859.2729468
0.1315,-0.01775,0.141,0.007599,0.06384275,0.00393675,1741884859.290074
0.13225,-0.021,0.08275,0.0054015,0.05941775,0.0061950004,1741884859.301562
0.14625,-0.01575,0.07525,-0.000763,0.049636748,0.010147001,1741884859.3159559
0.1885,0.0055,0.114,-0.001526,0.04739375,0.0106965,1741884859.330373
0.195,0.01475,0.13425,0.0042115003,0.0518035,0.0076599997,1741884859.344864
0.18575,0.01225,0.11575,0.008727999,0.05416875,0.0050355,1741884859.3598158
0.1855,0.001,0.09175,0.012024,0.054245,0.0031127501,1741884859.3732438
0.187,-0.0095,0.06775,0.01187125,0.0487975,0.0038757501,1741884859.389879
0.182,-0.0055,0.027,0.01013175,0.04379275,0.0065765,1741884859.4018319
0.198,0.0035,0.0255,0.00930775,0.03559875,0.011260999,1741884859.416172
0.21025,0.017,0.01625,0.0094604995,0.034606997,0.010559,1741884859.430463
0.2005,0.0175,-0.00375,0.00770575,0.0345765,0.0066985004,1741884859.444843
0.176,0.02225,-0.06625,0.00744625,0.03373725,0.0057220003,1741884859.459284
0.1655,0.03,-0.10325,0.00830075,0.0310975,0.0052947504,1741884859.473647
0.15125,0.044,-0.13325,0.0075835,0.02029425,0.0034790002,1741884859.4899788
0.11125,0.075,-0.1975,0.003662,0.012405501,0.00148,1741884859.502233
0.0655,0.10125,-0.26825,-0.0095672505,-0.013778751,-0.0055695,1741884859.516804
-0.139,0.13525,-0.517,-0.018188499,-0.0401305,-0.012024,1741884859.531541
-0.2705,0.1185,-0.5975,-0.03117375,-0.13081351,-0.0321045,1741884859.546171
-0.5985,0.0135,-0.54625,-0.030243,-0.18247975,-0.03869625,1741884859.56098
-0.7605,-0.04325,-0.43125,-0.0158385,-0.2636565,-0.03059375,1741884859.5757382
-0.954,-0.052,-0.183,-0.012146,-0.2923125,-0.02212525,1741884859.590522
-1.0,0.00025,-0.05075,-0.012329,-0.33085626,-0.015029999,1741884859.605147
-1.0,-0.06975,0.46275,-0.00514225,-0.33961475,-0.01475525,1741884859.6198459
-0.97625,-0.20275,0.83,-0.0025025,-0.33370975,-0.011749251,1741884859.634453
-0.6045,-0.26575,1.0,-0.0512695,-0.25102225,0.03666675,1741884859.649761
-0.451,-0.13375,1.0,-0.0467225,-0.17033376,0.05935675,1741884859.6636329
-0.421,0.04875,0.9805,0.016632,0.0048979996,0.036972,1741884859.6796732
-0.473,0.2415,0.57725,0.017044,0.04689025,0.01914975,1741884859.6924841
-0.4055,0.171,0.363,-0.00080875,0.04818725,-0.00077825,1741884859.7094998
-0.1815,0.0285,0.29,-0.00080875,0.043808,-0.0021515,1741884859.7214332
-0.11625,0.036,0.29525,0.001953,0.05169675,-0.00358575,1741884859.7358348
-0.08475,0.02825,0.2885,-4.575e-05,0.059387248,-0.009231499,1741884859.750371
-0.09625,-0.01575,0.291,-0.0069274995,0.07510375,-0.020874001,1741884859.7649221
-0.15225,-0.073,0.254,-0.008407501,0.07858275,-0.0217285,1741884859.7794728
-0.17,-0.07225,0.20525,-0.00662225,0.076156504,-0.01927175,1741884859.794066
-0.16525,-0.06575,0.1625,-3.0500001e-05,0.05735775,-0.013000499,1741884859.80971
-0.08175,-0.07175,0.147,0.0005645,0.0477905,-0.010803251,1741884859.823125
-0.04,-0.073,0.175,0.00535575,0.040954497,-0.0066374997,1741884859.84016
-0.0085,-0.04775,0.22525,0.0085602505,0.04261775,-0.00596625,1741884859.8522089
-0.002,-0.03525,0.2455,0.01330575,0.04948425,-0.0065002497,1741884859.8668458
-0.00725,-0.0165,0.262,0.01445,0.053177,-0.00585925,1741884859.8813791
-0.0125,-0.0155,0.2625,0.012176501,0.057433996,-0.00228875,1741884859.895814
-0.002,-0.03525,0.2745,0.0081635,0.058014,0.00109875,1741884859.910263
0.012,-0.0415,0.29875,0.00289925,0.058898997,0.0057372497,1741884859.9246001
0.02475,-0.03575,0.33175,-0.00520325,0.0680695,0.01251225,1741884859.939639
0.03775,0.002,0.3475,-0.005783,0.0762025,0.011810251,1741884859.9532459
0.04,0.017,0.3205,-0.0052337497,0.08760075,0.00579825,1741884859.969273
0.061,-0.03075,0.27375,-0.00671375,0.08828725,0.0053405,1741884859.982053
0.0785,-0.05275,0.267,-0.009948749,0.087875254,0.011856,1741884859.996473
0.09975,-0.0335,0.2455,-0.00833125,0.08828725,0.01452625,1741884860.010998
0.1055,-0.01925,0.22675,-0.001007,0.08839425,0.014587499,1741884860.025297
0.11025,-0.009,0.2025,0.00228875,0.0879365,0.013000499,1741884860.039992
0.109,-0.00575,0.17975,0.0045165,0.087082,0.010604749,1741884860.053946
0.107,-0.00475,0.14025,0.0035704998,0.082489,0.00811775,1741884860.069354
0.122,-0.0055,0.05725,0.0001525,0.077316254,0.0085602505,1741884860.082772
0.14625,-0.005,0.0385,-0.0034637498,0.0640565,0.00891125,1741884860.0992022
0.1805,0.00125,0.0515,-9.15e-05,0.059524503,0.008026,1741884860.11164
0.1835,0.01075,0.06875,0.0106355,0.0568695,0.00402825,1741884860.125862
0.17475,0.02975,0.052,0.01206975,0.056381248,0.0018615,1741884860.140193
0.17775,0.02275,0.02075,0.009445249,0.05400075,0.00059500005,1741884860.154392
0.188,0.00475,-0.002,0.00024425,0.045608502,0.00225825,1741884860.169336
0.20075,-0.018,-0.0115,-0.00036625,0.043335,0.003891,1741884860.1832268
0.19775,-0.015,-0.02275,0.0081635,0.04011525,0.00440975,1741884860.198956
0.199,-0.00075,-0.02725,0.01142875,0.03771975,0.003891,1741884860.2121549
0.201,0.0055,-0.017,0.01326,0.034652747,0.00355525,1741884860.226549
0.2,0.00725,-0.013,0.013778751,0.03353875,0.0038757501,1741884860.2408152
0.19325,0.006,-0.0315,0.014495751,0.032074,0.00428775,1741884860.255148
0.1855,0.00325,-0.0615,0.014419501,0.02607725,0.0053405,1741884860.26943
0.1655,0.01175,-0.0995,0.0123595,0.02227775,0.0061950004,1741884860.283815
0.15025,0.02825,-0.1065,0.0095672505,0.013122501,0.0059510004,1741884860.299505
0.08975,0.07825,-0.148,0.00842275,0.006668,0.0038299998,1741884860.312536
0.0335,0.1065,-0.22975,-0.0047912505,-0.01667775,-0.00444025,1741884860.329268
-0.137,0.11625,-0.50675,-0.01628125,-0.0411225,-0.0109709995,1741884860.34195
-0.2435,0.09425,-0.594,-0.024078252,-0.12413025,-0.03097525,1741884860.356596
-0.4875,0.063,-0.5325,-0.021698,-0.1723175,-0.039672747,1741884860.371279
-0.628,0.06825,-0.407,-0.02459725,-0.21449275,-0.04243475,1741884860.3858838
-0.75075,0.09875,-0.2495,-0.049179003,-0.2745515,-0.027740499,1741884860.4005198
-0.964,0.15925,0.02225,-0.058197,-0.296463,-0.0153655,1741884860.415156
-1.0,0.1,0.153,-0.02360525,-0.32873526,-0.0024872501,1741884860.4298692
-1.0,-0.12425,0.642,0.0102235,-0.3351745,-0.0055085,1741884860.4443462
-0.9725,-0.17525,0.92175,0.0013275,-0.307373,-0.00408925,1741884860.4596999
-0.543,-0.31375,1.0,-0.03376775,-0.26538074,0.01490775,1741884860.47343
-0.354,-0.2495,1.0,-0.0285035,-0.09968575,0.04783625,1741884860.490124
-0.39025,0.1265,0.88575,0.0020295,-0.009643501,0.03810125,1741884860.502531
-0.47225,0.234,0.595,0.006256,0.06301875,0.0079955,1741884860.516843
-0.37125,0.13425,0.1025,-0.0055695,0.055236753,-0.000885,1741884860.531316
-0.2445,0.06625,0.1075,-0.008377,0.04216,-0.00381475,1741884860.545732
-0.1505,0.0545,0.17825,0.00372325,0.03604125,-0.0021057501,1741884860.560152
-0.079,0.074,0.297,0.006256,0.041687,-0.0049742498,1741884860.5746508
-0.08125,0.0415,0.31675,0.00163275,0.055191003,-0.014679,1741884860.589942
-0.1335,-0.02925,0.29325,0.0017852499,0.06100475,-0.0168,1741884860.60349
-0.17175,-0.037,0.2465,0.009521499,0.06062325,-0.01475525,1741884860.619227
-0.19725,-0.0505,0.1145,0.009674,0.0532075,-0.0133667495,1741884860.632527
-0.16725,-0.0615,0.0865,0.008484,0.0346985,-0.01042175,1741884860.646967
-0.08275,-0.06,0.15775,0.00846875,0.02793875,-0.008026,1741884860.661442
-0.04925,-0.05125,0.221,0.0081635,0.02436825,-0.0057220003,1741884860.675933
-0.02875,-0.04575,0.2825,0.0053405,0.02993775,-0.00305175,1741884860.690412
-0.029,-0.019,0.33875,0.00340275,0.03787225,-0.00331125,1741884860.705021
-0.04025,-0.0095,0.34075,0.0070037497,0.05485525,-0.0042572496,1741884860.719532
-0.07625,0.00625,0.30425,0.0076599997,0.0604705,-0.0029907501,1741884860.7339451
-0.07675,0.01725,0.29225,0.0048674997,0.0643005,-0.0022735,1741884860.749543
-0.015,-0.0075,0.34625,0.00254825,0.065689005,-0.002533,1741884860.762822
0.0185,-0.012,0.37125,-0.0048979996,0.077423,0.00071725,1741884860.779605
0.04725,0.0115,0.36325,-0.0072175004,0.086319,0.0,1741884860.7915342
0.05125,0.00275,0.339,-0.00791925,0.093612745,-0.00276175,1741884860.805988
0.05125,-0.0215,0.3075,-0.0068512503,0.09747325,-0.0042115003,1741884860.820426
0.04025,-0.036,0.24725,-0.00567625,0.0947265,-0.001526,1741884860.834917
0.0445,-0.01525,0.2305,-0.004242,0.085907,0.000534,1741884860.8498602
0.094,0.0065,0.22875,-0.002777,0.082672,-0.00177,1741884860.863708
0.114,-0.00425,0.22425,0.0003205,0.0811615,-0.0033264998,1741884860.879821
0.129,-0.027,0.20725,0.00059500005,0.082260005,-0.0018005001,1741884860.8925362
0.129,-0.0365,0.18775,0.00108325,0.08367925,-3.0500001e-05,1741884860.9068868
0.12475,-0.048,0.15825,0.0044555003,0.083786,0.0047302498,1741884860.921342
0.12125,-0.052,0.10875,0.0061339997,0.0822295,0.0078735,1741884860.9356391
0.11575,-0.029,0.08825,0.007553,0.076599,0.010849,1741884860.950057
0.12375,0.00275,0.0395,0.0068665,0.0712585,0.0093995,1741884860.9642391
0.14675,-0.00625,0.0315,0.0055085,0.060928248,0.0062255003,1741884860.979201
0.1765,-0.0105,0.0375,0.0075377496,0.05867,0.00555425,1741884860.9928901
0.17625,0.00175,0.03375,0.0112915,0.057312,0.0049895,1741884861.0089889
0.17225,0.0105,0.02125,0.015090999,0.052902248,0.0055695,1741884861.021442
0.16975,0.00175,-0.0125,0.01339725,0.05015575,0.00712575,1741884861.035709
0.16875,-0.00525,-0.02625,0.0072785,0.04533375,0.01136775,1741884861.050148
0.16575,-0.00125,-0.047,0.00546275,0.042328,0.012771499,1741884861.064519
0.15975,0.01225,-0.05025,0.00646975,0.03492725,0.011810251,1741884861.079696
0.1355,0.04275,-0.07275,0.00720225,0.0315095,0.00962825,1741884861.093143
0.1215,0.04425,-0.09625,0.0072937496,0.027404752,0.007187,1741884861.1094651
0.10475,0.0395,-0.1215,0.004303,0.015029999,0.00384525,1741884861.121942
0.05175,0.048,-0.18075,0.0021515,0.0065002497,0.0021972498,1741884861.1362402
-0.00075,0.06325,-0.236,-0.0025940002,-0.0204925,-0.0012817499,1741884861.150935
-0.1825,0.086,-0.42525,-0.0072632497,-0.04470825,-0.0025025,1741884861.1656
-0.2935,0.0875,-0.5115,-0.015533499,-0.12539676,-0.013916001,1741884861.1803122
-0.5365,0.038,-0.5065,-0.02006525,-0.171875,-0.021636998,1741884861.194997
-0.66225,-0.0075,-0.41825,-0.02360525,-0.2417755,-0.022232,1741884861.209759
-0.888,-0.013,-0.131,-0.0203705,-0.26776126,-0.01637275,1741884861.2244768
-0.972,0.009,0.03325,-0.00770575,-0.30850226,-0.011398249,1741884861.2403462
-1.0,-0.09775,0.50225,0.0020599999,-0.3184815,-0.010803251,1741884861.253487
-0.975,-0.23025,0.811,0.00590525,-0.3155365,-0.0067597497,1741884861.2697878
-0.5005,-0.3085,1.0,-0.0257415,-0.25064075,0.028656,1741884861.282711
-0.29575,-0.20075,1.0,-0.030639749,-0.18843076,0.052566502,1741884861.299268
-0.24275,-0.03225,0.99975,0.0128632495,-0.05233775,0.046737753,1741884861.3116999
-0.334,0.24775,0.8215,0.016098,-0.00334175,0.029266251,1741884861.326106
-0.31475,0.239,0.61075,0.0024872501,0.02964775,0.0078125,1741884861.3404522
-0.1505,0.1275,0.34675,0.0031889998,0.031967252,0.00369275,1741884861.354801
-0.0975,0.1115,0.302,0.00617975,0.041061502,-0.0013885,1741884861.369555
-0.06175,0.069,0.272,0.004303,0.046646,-0.006302,1741884861.38372
-0.071,0.0305,0.2735,0.0020295,0.05134575,-0.01210025,1741884861.3995469
-0.097,-0.0045,0.274,0.00267025,0.0559845,-0.01876825,1741884861.412792
-0.15225,-0.05075,0.2295,0.0045165,0.0542755,-0.01741025,1741884861.4298089
-0.15725,-0.05925,0.189,-0.001526,0.04373175,-0.012771499,1741884861.441901
-0.10775,-0.061,0.139,-0.00067150005,0.036560003,-0.010757499,1741884861.459372
-0.06825,-0.06275,0.17075,0.008865249,0.026397752,-0.00590525,1741884861.471115
-0.01875,-0.042,0.243,0.009079001,0.0264435,-0.0050355,1741884861.485615
-0.00975,-0.02275,0.268,0.0078735,0.032821752,-0.00868225,1741884861.500149
-0.02075,0.00175,0.286,0.008194,0.036422748,-0.0103455,1741884861.514533
-0.0355,-0.00075,0.28,0.008209251,0.040619,-0.008194,1741884861.529599
-0.04725,-0.03475,0.28325,0.006775,0.041137747,-0.0052795,1741884861.543509
-0.0345,-0.0515,0.29925,0.004242,0.0413055,-0.0014495,1741884861.560065
-0.0185,-0.0505,0.31275,-0.00054925,0.0427705,0.0049895,1741884861.5725079
0.00525,-0.025,0.3135,-0.00102225,0.0443115,0.004776,1741884861.586949
0.01975,-0.018,0.31,-0.0019225,0.04812625,0.00193775,1741884861.6013482
0.0525,-0.02075,0.321,-0.0029449998,0.0506135,0.0024414998,1741884861.6157901
0.0685,-0.03025,0.336,-0.0033264998,0.0585785,0.00744625,1741884861.630244
0.063,-0.012,0.327,-0.00325,0.0639495,0.00982675,1741884861.644619
0.04375,0.01025,0.29625,-0.00302125,0.07266225,0.0060577504,1741884861.659622
0.056,-0.00975,0.2445,-0.00367725,0.073532,0.00096125,1741884861.6732821
0.07575,-0.04025,0.22925,-0.0052642496,0.072525,-0.00181575,1741884861.690086
0.09275,-0.06375,0.22075,-0.0067445002,0.069992,0.0029755002,1741884861.702237
0.12075,-0.06725,0.22125,-0.0052185003,0.07029725,0.0072937496,1741884861.7166238
0.12075,-0.0585,0.21125,0.001648,0.073135495,0.0129395,1741884861.730963
0.109,-0.03125,0.16275,0.004074,0.07327275,0.01339725,1741884861.7452438
0.10975,-0.013,0.13525,0.0031889998,0.07073975,0.01260375,1741884861.759677
0.13625,-0.0065,0.10325,0.00077825,0.068161,0.012557999,1741884861.773792
0.15325,-0.01175,0.105,-0.001587,0.06504825,0.013092,1741884861.7900019
0.168,-0.016,0.11525,0.0003205,0.0619355,0.014587499,1741884861.80242
0.1755,0.00025,0.1235,0.0056915004,0.06289675,0.01396175,1741884861.8166342
0.17125,0.0135,0.10925,0.0139770005,0.065597504,0.011886501,1741884861.830799
0.15725,0.027,0.0495,0.012039251,0.06451425,0.011825499,1741884861.845021
0.1615,0.0165,0.026,0.0069580004,0.060928248,0.012024,1741884861.859255
0.17675,0.0035,0.01825,-0.00067150005,0.052414,0.012252751,1741884861.8734589
0.18925,0.0035,0.01325,0.0021819999,0.049942,0.01121525,1741884861.8908858
0.18325,0.01375,0.0085,0.013214,0.04653925,0.0065765,1741884861.901958
0.1645,0.03875,-0.007,0.014495751,0.045410253,0.0047607496,1741884861.916296
0.1525,0.0365,-0.03625,0.00883475,0.04055775,0.00399775,1741884861.930621
0.13475,0.02875,-0.11525,0.0059205,0.03433225,0.0043944996,1741884861.9449549
0.1195,0.035,-0.1445,0.0049590003,0.026092501,0.004593,1741884861.9593852
0.08725,0.0555,-0.17425,0.0070495,0.0068207504,0.0030669998,1741884861.973558
-0.03525,0.11475,-0.29525,0.0073242504,-0.0071105,0.00086975005,1741884861.989435
-0.111,0.129,-0.39675,0.00024425,-0.05859375,-0.01127625,1741884862.0027971
-0.28175,0.091,-0.515,-0.0054932497,-0.09750375,-0.02153025,1741884862.0191412
-0.38925,0.037,-0.5,-0.015274,-0.177948,-0.034606997,1741884862.0321128
-0.604,-0.0185,-0.3445,-0.017578252,-0.20950325,-0.03244025,1741884862.0469089
-0.693,-0.007,-0.23425,-0.016448999,-0.25766,-0.016845752,1741884862.061677
-0.909,0.0075,-0.0245,-0.012207,-0.27828977,-0.01278675,1741884862.0764
-0.995,-0.0545,0.11625,0.0065307496,-0.30888376,-0.01498425,1741884862.091011
-1.0,-0.24625,0.64975,0.0106965,-0.31089774,-0.0106355,1741884862.105599
-0.9375,-0.2645,0.936,0.0045777503,-0.29774475,0.000122000005,1741884862.120116
-0.62075,-0.18175,1.0,-0.014343251,-0.22752374,0.03208925,1741884862.134706
-0.4355,-0.1205,1.0,-0.00399775,-0.18042,0.041992247,1741884862.149577
-0.31875,-0.0425,0.99275,0.021942249,-0.0612945,0.03515625,1741884862.163949
-0.38525,0.08175,0.779,0.01744075,-0.00463875,0.02671825,1741884862.179017
-0.42525,0.0965,0.5045,0.00991825,0.043045,0.009948749,1741884862.192636
-0.30275,0.0925,0.203,0.01042175,0.04341125,0.00296025,1741884862.2069492
-0.20575,0.0855,0.2035,0.0081025,0.040466253,-0.00737,1741884862.222189
-0.09075,0.0015,0.26275,0.004242,0.04403675,-0.01171875,1741884862.236094
-0.087,-0.05375,0.2825,0.00157175,0.050491247,-0.01469425,1741884862.25039
-0.15,-0.076,0.2805,0.0072175004,0.06573475,-0.0157165,1741884862.264933
-0.18825,-0.04575,0.24575,0.013412501,0.07038875,-0.014938249,1741884862.279837
-0.21875,-0.0235,0.18,0.015854,0.06381225,-0.01092525,1741884862.295153
-0.20975,-0.04775,0.0615,0.0066985004,0.05426025,-0.00712575,1741884862.3084202
-0.168,-0.072,0.0595,-0.0085602505,0.03205875,-0.00384525,1741884862.323107
-0.06175,-0.09575,0.19325,-0.00328075,0.02537525,-0.0033264998,1741884862.337748
-0.028,-0.097,0.2645,0.0027465,0.0285035,-0.0015105,1741884862.352949
-0.02975,-0.0815,0.32275,0.00308225,0.036209,-0.00109875,1741884862.366388
-0.05375,-0.054,0.32475,0.006302,0.050964247,-0.0030365,1741884862.380886
-0.08675,-0.00975,0.3175,0.008316,0.054382253,-0.0047302498,1741884862.395521
-0.0855,0.001,0.31175,0.00830075,0.05517575,-0.0054015,1741884862.410409
-0.072,0.006,0.30675,0.0021515,0.053329498,-0.0039825,1741884862.424449
-0.02,-0.01775,0.31,-0.0016175,0.05255125,-0.0026092501,1741884862.442003
-0.0005,-0.029,0.315,-0.00712575,0.054123,0.0013275,1741884862.453644
0.01,-0.04025,0.31125,-0.007965,0.056518503,0.0025634998,1741884862.470774
0.01325,-0.04775,0.30225,-0.008072,0.06213375,0.00437925,1741884862.482502
0.02375,-0.05125,0.2615,-0.008499251,0.06365975,0.00643925,1741884862.4996428
0.031,-0.054,0.23625,-0.00968925,0.061355498,0.013214,1741884862.511221
0.05475,-0.0635,0.20025,-0.0103455,0.05844125,0.017425502,1741884862.52559
0.06275,-0.058,0.18775,-0.010879501,0.05555725,0.021576,1741884862.541111
0.06825,-0.04725,0.17775,-0.012634249,0.0521545,0.0272675,1741884862.5545049
0.0965,-0.02625,0.196,-0.01469425,0.05189525,0.02796925,1741884862.570037
0.12275,-0.00875,0.22625,-0.01728825,0.05570975,0.02359,1741884862.583404
0.1465,0.0165,0.2505,-0.0153655,0.05935675,0.018585252,1741884862.6004128
0.13725,0.02025,0.235,-0.00912475,0.064926244,0.00723275,1741884862.611985
0.124,0.00825,0.192,-0.00646975,0.066192746,0.0027312501,1741884862.6263602
0.127,-0.0025,0.17975,-0.00453175,0.066986,-0.00010675,1741884862.641581
0.1395,-0.01575,0.1785,-0.0022125002,0.068374746,-0.00093075,1741884862.655377
0.16675,-0.025,0.2015,-0.00108325,0.0707855,0.00045775,1741884862.6700852
0.161,-0.01325,0.19425,0.00270075,0.077835,0.0032347501,1741884862.6841788
0.14525,0.021,0.14375,0.0032195,0.0794525,0.00340275,1741884862.700475
0.14275,0.0305,0.1025,0.0013427499,0.07453925,0.0016632499,1741884862.7126882
0.15625,0.017,0.0315,-6.1000002e-05,0.0691375,0.0015105,1741884862.729741
0.171,0.01075,0.0205,0.0008545,0.06083675,0.00105275,1741884862.741355
0.1745,0.01575,0.02175,0.0047912505,0.05912775,-0.0001525,1741884862.755692
0.1665,0.02475,0.01675,0.00947575,0.0581665,-0.0013275,1741884862.77004
0.155,0.0305,0.001,0.0109709995,0.05526725,-0.00175475,1741884862.784437
0.14075,0.0095,-0.061,0.0070647504,0.0516815,-0.0007935,1741884862.799924
0.1425,-0.003,-0.0915,0.00019825,0.040893503,0.00289925,1741884862.813285
0.1345,0.00575,-0.13375,0.00057975,0.034973253,0.00466925,1741884862.829528
0.1205,0.03125,-0.14775,0.0023345,0.020996,0.00440975,1741884862.8422
0.07825,0.07675,-0.1735,0.000412,0.012420749,0.0020905002,1741884862.856512
0.04525,0.0785,-0.2075,-0.002243,0.0026092501,-0.00099175,1741884862.870896
-0.01225,0.073,-0.276,-0.00314325,-0.02711475,-0.0066985004,1741884862.8856168
-0.188,0.03925,-0.4945,-0.00355525,-0.05325325,-0.010818499,1741884862.900398
-0.291,0.03375,-0.55075,-0.0071409997,-0.13348399,-0.02804575,1741884862.915128
-0.538,0.038,-0.4645,-0.01036075,-0.176468,-0.03456125,1741884862.929875
-0.67325,0.01075,-0.36975,-0.02575675,-0.24552925,-0.02560425,1741884862.9444008
-0.9295,-0.05125,-0.11175,-0.03536975,-0.272766,-0.01095575,1741884862.960584
-1.0,-0.04075,0.04925,-0.040237498,-0.315796,0.018859752,1741884862.974043
-1.0,-0.05525,0.41825,-0.01918025,-0.329422,0.024658252,1741884862.991963
-1.0,-0.11075,0.67825,0.0178375,-0.318222,0.0211945,1741884863.0030951
-0.7825,-0.16675,1.0,-0.00270075,-0.28771976,0.03244025,1741884863.0208352
-0.5555,-0.1435,1.0,-0.028427,-0.18865974,0.0687865,1741884863.032316
-0.35275,0.0765,0.9845,-0.0030975002,-0.116943255,0.059249748,1741884863.046849
-0.42775,0.199,0.8685,0.013137749,-0.03955075,0.03878775,1741884863.061446
-0.50825,0.2255,0.5865,0.00546275,0.037552,0.008941749,1741884863.075726
-0.41875,0.09075,0.15675,0.004486,0.037277248,0.0012055,1741884863.0915132
-0.30225,0.044,0.17475,0.0084379995,0.0285035,0.00016775,1741884863.104481
-0.15875,0.042,0.28575,0.009231499,0.03067025,-0.00039675,1741884863.120585
-0.1355,0.033,0.3005,0.0071105,0.0427705,-0.0109709995,1741884863.133298
-0.153,-0.01875,0.271,0.0077972496,0.04939275,-0.018020751,1741884863.149919
-0.183,-0.0355,0.23875,0.01171875,0.054580748,-0.02272025,1741884863.1626098
-0.22225,-0.06475,0.101,0.021789499,0.05476375,-0.01864625,1741884863.1799061
-0.20475,-0.0805,0.06925,0.02159125,0.049286,-0.013031,1741884863.191824
-0.16525,-0.086,0.08625,0.01339725,0.035049498,-0.004303,1741884863.2066119
-0.079,-0.072,0.199,0.009597749,0.0313415,-0.0026092501,1741884863.221047
-0.04975,-0.068,0.2535,0.0065917503,0.0372925,-0.0041504996,1741884863.23559
-0.05375,-0.0535,0.28925,0.00794975,0.044815,-0.00587475,1741884863.2500548
-0.07675,-0.0465,0.27875,0.0052185003,0.057494998,-0.0077515002,1741884863.2646458
-0.109,-0.03625,0.25925,0.00688175,0.060287498,-0.0067597497,1741884863.279813
-0.11525,-0.03925,0.2735,0.013717749,0.05929575,-0.0004425,1741884863.293618
-0.09375,-0.02925,0.2985,0.011016751,0.056839,0.001114,1741884863.310112
-0.061,-0.02875,0.32025,0.0075072497,0.0550995,0.00010675,1741884863.322471
-0.02575,-0.03175,0.341,0.00054925,0.0588685,-0.0019225,1741884863.336908
0.00925,-0.03925,0.348,-0.0020295,0.063705504,-0.0011445,1741884863.351394
0.013,-0.04575,0.342,-0.003418,0.0763245,0.0018615,1741884863.365953
0.0055,-0.07075,0.301,-0.0032195,0.0819245,0.0045165,1741884863.3804018
0.00875,-0.08,0.2785,-0.00671375,0.086456254,0.01496875,1741884863.395606
0.03275,-0.04975,0.25375,-0.00897225,0.087143,0.01968375,1741884863.409963
0.04975,-0.0325,0.25175,-0.01054375,0.0867615,0.02067575,1741884863.423787
0.09875,-0.019,0.27775,-0.011123749,0.08718875,0.018280001,1741884863.440456
0.112,-0.0215,0.28575,-0.0114440005,0.08972175,0.01531975,1741884863.452812
0.10075,-0.01925,0.26675,-0.00975025,0.0952605,0.01098625,1741884863.469829
0.075,-0.01625,0.16675,-0.008773751,0.09364325,0.010086001,1741884863.481546
0.08925,-0.019,0.133,-0.0075682504,0.08563225,0.010314999,1741884863.4958878
0.1235,-0.02,0.1225,-0.005005,0.082550004,0.01004025,1741884863.5103512
0.12925,-0.02025,0.12475,0.0027312501,0.078735255,0.0074004997,1741884863.524656
0.13125,-0.002,0.09975,0.0052337497,0.078262255,0.0061950004,1741884863.5412512
0.1285,0.00475,0.065,0.0068969997,0.07507325,0.00621025,1741884863.553177
0.14075,0.00875,-0.00525,0.0058287503,0.0701905,0.006836,1741884863.569922
0.1565,0.00825,-0.02725,0.0045165,0.063568,0.00715625,1741884863.581812
0.17175,0.004,-0.02775,0.0043639997,0.051834,0.00717175,1741884863.596063
0.177,0.003,0.00225,0.005539,0.049377497,0.00671375,1741884863.610346
0.17225,0.0085,0.002,0.007431,0.04776,0.004013,1741884863.6248178
0.16975,0.0065,-0.039,0.0070952503,0.04574575,0.00317375,1741884863.640938
0.16925,0.0045,-0.0605,0.0053252503,0.03550725,0.00343325,1741884863.653578
0.1575,0.01475,-0.0865,0.00402825,0.028442498,0.0032347501,1741884863.669943
0.14575,0.01725,-0.09925,0.00238025,0.02168275,0.002777,1741884863.682375
0.129,0.02325,-0.112,0.0002595,0.011031999,0.0017242499,1741884863.69914
0.07725,0.044,-0.17,0.000122000005,0.005249,0.0009155,1741884863.711147
0.045,0.057,-0.22725,-0.00485225,-0.016861,-0.0011445,1741884863.7258282
-0.012,0.0735,-0.3135,-0.010513251,-0.03477475,-0.00305175,1741884863.741245
-0.05175,0.079,-0.31675,-0.017654499,-0.0806885,-0.00975025,1741884863.75514
-0.17075,0.05725,-0.2875,-0.01921075,-0.10774225,-0.014846751,1741884863.770445
-0.246,0.03675,-0.2735,-0.02041625,-0.16047674,-0.0254975,1741884863.7845361
-0.4085,0.00475,-0.20575,-0.01693725,-0.183014,-0.027771,1741884863.799663
-0.4845,0.009,-0.14575,-0.013839751,-0.20452875,-0.027298,1741884863.813827
-0.64,0.03975,-0.0075,-0.021759002,-0.245346,-0.0215455,1741884863.829111
-0.74525,0.02925,0.07225,-0.023498502,-0.26304626,-0.020355249,1741884863.843084
-0.85325,-0.0145,0.204,-0.000885,-0.2833405,-0.024383498,1741884863.859829
-0.85375,-0.12025,0.69825,0.00811775,-0.282364,-0.0239715,1741884863.872472
-0.75775,-0.14825,0.93925,-0.0203095,-0.24630725,-0.00242625,1741884863.8870761
-0.45975,-0.2425,1.0,-0.0298005,-0.21157825,0.014679,1741884863.9016562
-0.34875,-0.262,1.0,0.008727999,-0.10278325,0.028137252,1741884863.9161978
-0.38875,-0.07975,0.8365,0.019394,-0.038390998,0.026672252,1741884863.930921
-0.43075,0.0305,0.5815,0.01991275,0.030243,0.01855475,1741884863.945248
-0.31675,0.131,0.28775,0.0219575,0.03578175,0.01251225,1741884863.960041
-0.22925,0.1315,0.29275,0.019775499,0.034438998,0.008773751,1741884863.973901
-0.16625,0.0965,0.30825,0.008026,0.037048247,0.0003815,1741884863.9909492
-0.1015,-0.01675,0.3495,0.00637825,0.04521175,-0.00505075,1741884864.002808
-0.105,-0.055,0.356,0.008667,0.064468496,-0.00833125,1741884864.019356
-0.159,-0.0605,0.31725,0.01266475,0.07241825,-0.00747675,1741884864.031817
-0.1885,-0.05375,0.259,0.017135499,0.076553255,-0.00354,1741884864.046287
-0.20175,-0.05975,0.12075,0.01368725,0.07194525,-0.00115975,1741884864.060904
-0.17475,-0.068,0.10675,-0.0014037499,0.055724997,0.0014037499,1741884864.0754712
-0.07575,-0.083,0.1555,-0.0074920002,0.0487365,0.00086975005,1741884864.091033
-0.03275,-0.0955,0.21375,-0.00585925,0.04521175,0.0014495,1741884864.104393
-0.02675,-0.08725,0.268,0.00077825,0.04989625,0.00737,1741884864.1198442
-0.04975,-0.0755,0.26125,0.0032655,0.05488575,0.009781,1741884864.133205
-0.06925,-0.0695,0.2495,0.00428775,0.059372,0.014145001,1741884864.149377
-0.08225,-0.03975,0.239,0.00070200005,0.05770875,0.016739,1741884864.161994
-0.0685,-0.023,0.2485,-0.00672925,0.050888002,0.014389,1741884864.179373
0.0065,-0.03325,0.30975,-0.009216251,0.04853825,0.010940501,1741884864.1911192
0.0505,-0.04775,0.35325,-0.0138245,0.053482,0.01062,1741884864.205575
0.07525,-0.03775,0.38625,-0.013992251,0.0606995,0.01187125,1741884864.2201118
0.05625,-0.0275,0.3565,-0.012039251,0.068161,0.01142875,1741884864.234554
0.038,-0.02625,0.31,-0.008941749,0.07547,0.008133001,1741884864.2494888
0.04425,-0.032,0.23975,-0.009719751,0.0751495,0.00773625,1741884864.263287
0.0715,-0.03675,0.24375,-0.011398249,0.073883004,0.008636501,1741884864.279648
0.1255,-0.03875,0.29525,-0.010299751,0.07646175,0.0087585,1741884864.292238
0.12375,-0.0265,0.2925,-0.00283825,0.08576975,0.0074615004,1741884864.3067331
0.09775,-0.00125,0.21975,-0.00029,0.08795175,0.00579825,1741884864.3210921
0.0965,-0.00625,0.17875,-0.00283825,0.08377075,0.0047912505,1741884864.335495
0.12875,-0.0355,0.13675,-0.00491325,0.07972725,0.0061645,1741884864.350163
0.1495,-0.03775,0.14025,-0.005005,0.076934755,0.00767525,1741884864.364392
0.15825,-0.0305,0.15,0.00177,0.07754525,0.008926501,1741884864.3796291
0.1415,0.004,0.1295,0.004547,0.07902525,0.008346501,1741884864.392928
0.13125,0.011,0.08025,-4.575e-05,0.076553255,0.00715625,1741884864.409763
0.14425,-0.0205,-0.01425,-0.00408925,0.07115175,0.007553,1741884864.421677
0.15725,-0.03475,-0.031,-0.0020295,0.057586752,0.0077210004,1741884864.436197
0.16775,-0.0225,-0.02225,0.003891,0.0529785,0.0070495,1741884864.4505448
0.15975,-0.00175,-0.028,0.010086001,0.050171003,0.0059967497,1741884864.4649012
0.15225,0.011,-0.046,0.0126495,0.04335025,0.0044555003,1741884864.47986
0.15275,0.01425,-0.0865,0.009430001,0.037445,0.0049895,1741884864.493403
0.14975,0.01725,-0.104,0.0052185003,0.022705,0.0068969997,1741884864.509763
0.126,0.04,-0.1385,0.0042725,0.015304499,0.0065155,1741884864.5220978
0.10775,0.05525,-0.15475,0.0043335,-0.00027475,0.00102225,1741884864.5364742
0.05,0.0675,-0.19175,0.0052642496,-0.0103455,-0.00378425,1741884864.550981
-0.00375,0.06625,-0.21825,0.00514225,-0.022461,-0.008651749,1741884864.565653
-0.12075,0.039,-0.293,0.0078125,-0.057953,-0.015304499,1741884864.580296
-0.17875,0.03475,-0.35125,0.0094604995,-0.08161925,-0.018707251,1741884864.594904
-0.25475,0.05275,-0.393,0.0013275,-0.13615425,-0.030853251,1741884864.6094599
-0.4525,0.0965,-0.3185,-0.0055085,-0.1676635,-0.038879503,1741884864.6241732
-0.53675,0.07925,-0.211,-0.0114744995,-0.23129275,-0.051513746,1741884864.6388721
-0.71225,-0.01275,0.03725,-0.012085,-0.25596625,-0.051498502,1741884864.653541
-0.837,-0.04475,0.1715,-0.0037537501,-0.28410348,-0.0470885,1741884864.6695611
-0.97525,-0.20525,0.5365,0.00062550005,-0.28654474,-0.045471247,1741884864.6827788
-0.90725,-0.2615,0.7765,-0.023178,-0.26091,-0.03364575,1741884864.6996381
-0.57675,-0.2585,1.0,-0.038757253,-0.2366485,-0.0166625,1741884864.712275
-0.37725,-0.29875,1.0,-0.0170745,-0.1663665,0.017868,1741884864.729611
-0.168,-0.19925,0.98425,0.010391249,-0.1088105,0.023346001,1741884864.741295
-0.22675,-0.05825,0.87975,0.020782499,-0.042175252,0.0245515,1741884864.7557771
-0.38875,0.1045,0.3505,0.0074004997,0.041931253,0.020019501,1741884864.7701602
-0.36125,0.098,0.1955,0.0053405,0.04881275,0.01206975,1741884864.784535
-0.288,0.06275,0.18275,0.003891,0.035949748,0.001953,1741884864.799628
-0.15625,-0.024,0.31825,0.0016785001,0.0334015,0.0011445,1741884864.813178
-0.11575,-0.05875,0.37625,-0.00216675,0.04815675,0.00064075,1741884864.829162
-0.11975,-0.0745,0.381,-0.001709,0.059203997,-0.00024425,1741884864.842239
-0.14425,-0.06275,0.34475,0.00570675,0.07437125,-0.00514225,1741884864.856919
-0.1965,-0.043,0.23725,0.00930775,0.07621775,-0.00741575,1741884864.871388
-0.2085,-0.04975,0.17675,0.0099639995,0.07427975,-0.0088195,1741884864.885847
-0.19575,-0.06725,0.13125,-0.0046539996,0.06166075,-0.009017999,1741884864.9004412
-0.113,-0.10775,0.123,-0.00953675,0.05319225,-0.0070647504,1741884864.9151192
-0.06825,-0.11925,0.17675,-0.00245675,0.0416565,0.000534,1741884864.929858
-0.0285,-0.09875,0.2555,-3.0500001e-05,0.04148875,0.0032347501,1741884864.944196
-0.02425,-0.07875,0.27025,0.0007325,0.049377497,0.0034790002,1741884864.959702
-0.02625,-0.049,0.2625,-0.00146475,0.0542145,0.0028229998,1741884864.973293
-0.03075,-0.047,0.2525,-0.0080872495,0.05982975,0.0037995,1741884864.9877691
-0.01325,-0.05225,0.268,-0.01048275,0.06044,0.0054475004,1741884865.002259
0.0055,-0.0435,0.28675,-0.010803251,0.060485747,0.00839225,1741884865.016694
0.0355,-0.013,0.306,-0.009094249,0.060791,0.00833125,1741884865.031075
0.046,-0.0015,0.301,-0.0072937496,0.06121825,0.0071409997,1741884865.045451
0.053,-0.00025,0.28825,-0.0064545004,0.060668997,0.003952,1741884865.060839
0.059,-0.0275,0.242,-0.00717175,0.05918875,0.0033264998,1741884865.07433
0.06275,-0.044,0.224,-0.0078125,0.05656425,0.00640875,1741884865.091288
0.079,-0.048,0.20925,-0.00694275,0.05593875,0.008651749,1741884865.1032372
0.08475,-0.03325,0.20175,-0.004242,0.05549625,0.009552,1741884865.1202822
0.11125,-0.014,0.198,-0.00381475,0.055252,0.00839225,1741884865.131948
0.1305,-0.01075,0.20675,-0.00411975,0.05549625,0.0072937496,1741884865.1465018
0.14325,-0.00975,0.2135,-0.0033722501,0.058471747,0.00637825,1741884865.1608691
0.14925,-0.01225,0.2005,-0.002243,0.06004325,0.00646975,1741884865.175253
0.14475,-0.01525,0.18,-0.00065625,0.061615,0.0077972496,1741884865.193026
0.1405,-0.019,0.13275,-0.000122000005,0.060379002,0.008773751,1741884865.204073
0.1465,-0.0105,0.1195,0.00048825,0.05484,0.00880425,1741884865.220289
0.1585,0.0145,0.1145,0.0009155,0.05255125,0.00738525,1741884865.232645
0.16575,0.01175,0.112,0.00283825,0.050125,0.00242625,1741884865.246882
0.18175,-0.01275,0.09925,0.0048065,0.04969775,0.00035100002,1741884865.261142
0.187,-0.0215,0.0815,0.0069885002,0.04930125,-0.000473,1741884865.275609
0.19125,-0.02575,0.06225,0.0072175004,0.0446015,0.001526,1741884865.2916071
0.2055,-0.00925,0.047,0.00494375,0.04072575,0.0033264998,1741884865.30428
0.211,-0.00625,0.054,0.000229,0.0347595,0.0072785,1741884865.319884
0.215,-0.01725,0.07375,-0.00077825,0.033508252,0.0090637505,1741884865.332865
0.2055,-0.0205,0.06925,0.00077825,0.034408502,0.010849,1741884865.349746
0.18975,-0.02125,0.03,0.00225825,0.0351715,0.01019275,1741884865.361567
0.18375,-0.02125,0.00325,0.00279225,0.03489675,0.008712751,1741884865.375892
0.17775,-0.02075,-0.0185,0.0033570002,0.030136,0.0066985004,1741884865.39083
0.15675,-0.00775,-0.05525,0.0027465,0.02664175,0.0067902496,1741884865.4046779
0.14,0.00325,-0.07425,0.001892,0.015808,0.006302,1741884865.419725
0.09075,0.02775,-0.13,0.0015565,0.00830075,0.00520325,1741884865.43347
0.04775,0.0385,-0.18575,-0.000946,-0.01326,0.0023345,1741884865.449579
-0.09875,0.05075,-0.347,-0.0020295,-0.031479,0.00065625,1741884865.462522
-0.193,0.06425,-0.4045,-0.003769,-0.057556253,-0.0027312501,1741884865.479438
-0.288,0.08225,-0.424,-0.00773625,-0.13830575,-0.01326,1741884865.491829
-0.43975,0.058,-0.304,-0.0133667495,-0.18112175,-0.01481625,1741884865.506505
-0.514,0.034,-0.193,-0.0259095,-0.2381135,-0.0033722501,1741884865.5211499
-0.734,0.0055,0.0495,-0.026184,-0.2546235,0.0042115003,1741884865.535659
-0.8275,-0.025,0.196,-0.008850001,-0.26921076,0.00204475,1741884865.550251
-0.75975,-0.13525,0.67325,-0.0004425,-0.2683715,-0.003296,1741884865.564946
-0.56525,-0.149,0.93725,-0.00874325,-0.238144,0.006012,1741884865.579632
-0.1865,-0.0525,1.0,-0.017181499,-0.2026215,0.0241395,1741884865.594269
-0.15375,-0.00075,1.0,0.0019225,-0.10449225,0.04087825,1741884865.6096718
-0.26025,0.10425,0.852,0.012054499,-0.05532825,0.02952575,1741884865.623172
-0.302,0.12275,0.677,0.013778751,-0.01756275,0.016143749,1741884865.637593
-0.3095,0.09275,0.50775,0.012329,0.01193225,0.0052795,1741884865.651859
-0.23725,0.02625,0.34325,0.014618,0.0154725,0.0054932497,1741884865.666267
-0.19175,0.04725,0.33025,0.017303498,0.02374275,0.0033722501,1741884865.680578
-0.124,0.1045,0.34775,0.01593025,0.028305,-0.00169375,1741884865.6949692
-0.111,0.091,0.35375,0.01026925,0.036316004,-0.01490775,1741884865.709729
-0.1295,0.01875,0.349,0.0090485,0.04090875,-0.0190735,1741884865.723871
-0.13925,-0.009,0.339,0.012924249,0.050659247,-0.019027751,1741884865.7408671
-0.1435,-0.02775,0.284,0.014785751,0.05464175,-0.017517,1741884865.7529879
-0.1455,-0.031,0.24225,0.013717749,0.057312,-0.01649475,1741884865.7693388
-0.141,-0.04425,0.20575,0.00143425,0.057953,-0.0141145,1741884865.782089
-0.09925,-0.07975,0.17,-0.00419625,0.056045502,-0.0125885,1741884865.796672
-0.072,-0.094,0.19425,-0.0007935,0.051574748,-0.00717175,1741884865.811241
-0.03675,-0.0825,0.261,0.001007,0.051513746,-0.0030365,1741884865.825672
-0.03475,-0.054,0.26875,0.0035704998,0.054947,0.0033722501,1741884865.841496
-0.0345,-0.00875,0.26125,0.00396725,0.056289747,0.0044555003,1741884865.854476
-0.0315,-0.001,0.25825,-0.000229,0.05717475,0.00538625,1741884865.8696299
-0.01475,-0.01075,0.25475,-0.0028687501,0.056900002,0.0057220003,1741884865.883564
0.00675,-0.02575,0.2635,-0.0044555003,0.0566405,0.0060882503,1741884865.89949
0.036,-0.0365,0.28125,-0.0044250004,0.0586395,0.008148249,1741884865.912438
0.07975,-0.02625,0.31025,-0.0032655,0.0622405,0.0097045,1741884865.929425
0.08225,-0.01225,0.306,-0.0031889998,0.0743255,0.011612001,1741884865.941259
0.0615,0.016,0.247,-0.00494375,0.079238996,0.010849,1741884865.9555671
0.06225,0.0025,0.2205,-0.00794975,0.07934575,0.009292499,1741884865.969907
0.08875,-0.0465,0.1955,-0.0084379995,0.07699575,0.011260999,1741884865.984253
0.0975,-0.04975,0.187,-0.00747675,0.07510375,0.01412975,1741884865.998539
0.10975,-0.003,0.172,-0.001587,0.07061775,0.015686,1741884866.012971
0.11975,0.029,0.16775,0.00033575002,0.067093,0.0129395,1741884866.0272708
0.1335,0.046,0.16275,-0.0025787498,0.06245425,0.0054475004,1741884866.041567
0.16025,0.03525,0.15975,-0.0052642496,0.062393248,0.004303,1741884866.055987
0.16925,0.03075,0.16025,-0.00466925,0.06478875,0.00317375,1741884866.070188
0.16375,0.00375,0.13075,-0.0011445,0.06575,0.002472,1741884866.0844119
0.15175,-0.00575,0.09775,0.0019225,0.064834505,0.0026092501,1741884866.0991948
0.1505,0.00025,0.0405,0.0029145,0.0570525,0.0045165,1741884866.112994
0.16275,0.00875,0.03325,0.0016175,0.0520325,0.00570675,1741884866.129566
0.17525,0.019,0.04075,-0.000763,0.045898497,0.007553,1741884866.141576
0.18625,0.0305,0.0605,0.000534,0.045410253,0.0065155,1741884866.155797
0.18525,0.0305,0.053,0.004547,0.04521175,0.00242625,1741884866.169971
0.19125,0.0115,0.0125,0.00463875,0.043747,0.00177,1741884866.1843631
0.1985,0.008,-0.00475,0.00402825,0.041366503,0.0020752498,1741884866.199648
0.20325,0.01475,-0.01675,0.00355525,0.036239497,0.0040435,1741884866.2131908
0.20575,0.03425,-0.0135,0.00364675,0.034011748,0.005005,1741884866.229565
0.20425,0.043,-0.00525,0.007782,0.029251,0.0034790002,1741884866.2417762
0.186,0.04675,-0.02825,0.00962825,0.02664175,0.0021515,1741884866.2560792
0.178,0.045,-0.0535,0.007187,0.021026501,0.00146475,1741884866.270462
0.1675,0.04375,-0.1025,0.0052947504,0.017212,0.00154125,1741884866.2847931
0.15925,0.04275,-0.11875,0.00390625,0.0123595,0.0016632499,1741884866.299266
0.1475,0.04175,-0.12825,0.00187675,0.00027475,0.00187675,1741884866.3133671
0.10875,0.03825,-0.1555,0.001114,-0.0068665,0.0015565,1741884866.329513
0.07775,0.04,-0.18725,-0.001953,-0.0265045,0.00048825,1741884866.3423638
-0.004,0.06975,-0.27125,-0.0049742498,-0.04129025,-0.00027475,1741884866.359275
-0.04525,0.07,-0.3075,-0.011764499,-0.08453375,-0.005005,1741884866.371733
-0.1645,0.04075,-0.322,-0.01257325,-0.11407475,-0.01026925,1741884866.386365
-0.25125,0.01825,-0.2845,-0.009277251,-0.176422,-0.022186251,1741884866.401176
-0.439,-0.0105,-0.16225,-0.0075835,-0.20253,-0.024261499,1741884866.415958
-0.5245,-0.00825,-0.08725,-0.0110625,-0.246765,-0.0148925,1741884866.430763
-0.73875,-0.0065,0.0785,-0.00975025,-0.26336676,-0.009781,1741884866.4454138
-0.804,-0.05925,0.2465,0.0138702495,-0.269867,-0.011123749,1741884866.4600708
-0.67575,-0.16075,0.743,0.023819,-0.2603455,-0.01513675,1741884866.47473
-0.5405,-0.16575,0.956,0.02085875,-0.24380499,-0.01525875,1741884866.4911711
-0.3985,-0.151,1.0,-0.0069885002,-0.18400575,0.013321,1741884866.503881
-0.3145,-0.09075,0.991,-0.005783,-0.1425935,0.02711475,1741884866.519427
-0.33975,-0.06,0.88925,0.007187,-0.057449248,0.02268975,1741884866.532994
-0.35925,-0.019,0.58075,0.0073395,-0.02711475,0.01756275,1741884866.5494468
-0.32675,0.0035,0.4735,0.009613,0.0021819999,0.01554875,1741884866.5619688
-0.2135,0.069,0.407,0.010528499,0.0099639995,0.014709501,1741884866.576273
-0.163,0.0915,0.405,0.0070647504,0.02607725,0.00782775,1741884866.590898
-0.12825,0.07925,0.37075,0.00614925,0.035034247,0.0021515,1741884866.6048498
-0.13325,0.04725,0.355,0.006256,0.043273997,-0.003891,1741884866.6197839
-0.1445,0.0095,0.3485,0.007019,0.057983503,-0.01216125,1741884866.633876
-0.17325,-0.036,0.299,0.008407501,0.064361505,-0.013183501,1741884866.649536
-0.1815,-0.0465,0.24025,0.0065002497,0.06864925,-0.011139,1741884866.66288
-0.164,-0.0645,0.14675,-0.00090025004,0.065857,-0.00975025,1741884866.679421
-0.13825,-0.07475,0.131,-0.0077972496,0.0559235,-0.0072480002,1741884866.692137
-0.08325,-0.08575,0.18125,-0.00193775,0.05154425,-0.0049742498,1741884866.7068648
-0.062,-0.0855,0.22525,0.00617975,0.049682498,-0.00036625,1741884866.721353
-0.0385,-0.058,0.28675,0.0076295,0.052383497,0.00143425,1741884866.7357912
-0.04,-0.0375,0.29125,0.008361749,0.056259252,0.0027160002,1741884866.750175
-0.0455,-0.02425,0.2805,0.005783,0.06100475,0.0048979996,1741884866.764543
-0.042,-0.02725,0.25125,0.00148,0.0602265,0.00773625,1741884866.779906
-0.0335,-0.0275,0.24675,-0.0073242504,0.056472752,0.013992251,1741884866.7934668
0.001,-0.023,0.269,-0.008209251,0.05662525,0.013778751,1741884866.809891
0.024,-0.017,0.27975,-0.00587475,0.06333925,0.01019275,1741884866.822219
0.056,-0.01025,0.28875,-0.0047150003,0.06802375,0.0086975,1741884866.836597
0.07475,-0.02175,0.29925,-0.0060272496,0.076080255,0.008194,1741884866.8510761
0.08975,-0.04525,0.28625,-0.007553,0.07902525,0.01036075,1741884866.865474
0.07825,-0.047,0.2525,-0.009094249,0.079773,0.013488751,1741884866.87987
0.071,-0.04125,0.22025,-0.0112305,0.0729065,0.0179595,1741884866.894272
0.10075,-0.02,0.20775,-0.010940501,0.06887825,0.018509,1741884866.9096189
0.11425,0.00575,0.21075,-0.0065155,0.0684205,0.01452625,1741884866.922946
0.1125,0.04,0.183,-0.00372325,0.0680695,0.008727999,1741884866.9399722
0.12,0.0335,0.163,-0.0051574996,0.061340246,0.00148,1741884866.951735
0.1535,-0.003,0.14225,-0.0073242504,0.057846002,0.0025787498,1741884866.966113
0.16325,-0.01675,0.13675,-0.0074615004,0.0559235,0.00437925,1741884866.9805188
0.1725,-0.0245,0.13625,-0.00228875,0.0569305,0.00611875,1741884866.9948559
0.185,-0.016,0.14175,0.000824,0.058548,0.0067902496,1741884867.00947
0.17525,0.00475,0.12875,0.0048979996,0.061340246,0.00744625,1741884867.0234509
0.14875,0.02875,0.0665,0.004486,0.06074525,0.007309,1741884867.037649
0.15225,0.026,0.045,-0.00013725001,0.05410775,0.0068207504,1741884867.0519629
0.173,0.0145,0.03675,-0.0005035,0.051574748,0.0068512503,1741884867.066334
0.1775,0.01425,0.034,0.0021515,0.0508575,0.00668325,1741884867.080522
0.176,0.02,0.026,0.009903,0.051422,0.00494375,1741884867.094783
0.17,0.03875,-0.0025,0.0100555,0.05078125,0.00413525,1741884867.1096718
0.17325,0.046,-0.0135,0.0049895,0.046584997,0.00393675,1741884867.123455
0.18175,0.0255,-0.04225,0.00169375,0.04373175,0.004776,1741884867.1377559
0.18675,0.00675,-0.05075,-0.00010675,0.037902746,0.0062255003,1741884867.152138
0.18425,0.0055,-0.0575,0.00279225,0.03559875,0.0054932497,1741884867.166417
0.17875,0.026,-0.06125,0.0072480002,0.033249002,0.0036162501,1741884867.180762
0.1685,0.055,-0.07125,0.011078,0.026657,0.0002595,1741884867.195074
0.12475,0.09175,-0.109,0.0068055,0.021789499,0.00039675,1741884867.209974
0.09375,0.094,-0.13925,-0.0052185003,0.0075377496,0.0020905002,1741884867.2237482
-0.0195,0.10475,-0.289,-0.00830075,-0.0036010002,0.0020752498,1741884867.2408378
-0.09425,0.09125,-0.4015,-0.011734,-0.047592252,-0.003952,1741884867.252922
-0.22575,0.0525,-0.4965,-0.0160675,-0.08297725,-0.012085,1741884867.269038
-0.30125,0.053,-0.45025,-0.01985175,-0.16737375,-0.029663,1741884867.282252
-0.50425,0.07925,-0.21975,-0.0177155,-0.20812975,-0.032135,1741884867.299039
-0.624,0.06525,-0.10425,-0.017273001,-0.2423095,-0.0273895,1741884867.311629
-0.888,-0.08625,0.1315,-0.0166015,-0.29176325,-0.011764499,1741884867.3264809
-0.9735,-0.1675,0.3025,-0.00691225,-0.30508426,-0.009719751,1741884867.3411462
-0.982,-0.231,0.53475,0.025421249,-0.300232,-0.01504525,1741884867.3557298
-0.6335,-0.217,1.0,0.021347,-0.280777,-0.01251225,1741884867.370338
-0.444,-0.1505,1.0,-0.0138245,-0.21025075,0.014328,1741884867.384832
-0.28775,-0.104,1.0,-0.014160249,-0.165207,0.024047751,1741884867.3995872
-0.29225,-0.07175,0.975,0.01193225,-0.0701905,0.020019501,1741884867.4139469
-0.31325,0.01625,0.71875,0.012329,-0.031723,0.0162505,1741884867.429572
-0.28775,0.05525,0.526,0.00794975,0.010803251,0.011078,1741884867.4426482
-0.18275,0.11225,0.30375,0.010162249,0.019287001,0.0075682504,1741884867.458896
-0.13725,0.112,0.2815,0.011169501,0.024063,0.003128,1741884867.47134
-0.10975,0.08775,0.287,0.0073395,0.033584498,-0.0059815003,1741884867.4858088
-0.102,0.003,0.2995,0.0059815003,0.03987125,-0.00889575,1741884867.500308
-0.11775,-0.02225,0.2865,0.009079001,0.0533905,-0.010498,1741884867.514742
-0.16025,-0.0335,0.19775,0.0112,0.056900002,-0.0093995,1741884867.52938
-0.1675,-0.0425,0.155,0.00744625,0.0534515,-0.00453175,1741884867.543732
-0.13925,-0.059,0.13475,0.00279225,0.048233002,-0.0018005001,1741884867.5584571
-0.10925,-0.06475,0.15675,-0.0026092501,0.03730775,0.00067150005,1741884867.572951
-0.05875,-0.06525,0.21775,-0.00444025,0.03479,0.00077825,1741884867.587444
-0.05075,-0.05375,0.22925,-0.00416575,0.03479,0.000412,1741884867.601949
-0.054,-0.03925,0.23875,0.003662,0.03837575,-0.0020752498,1741884867.616459
-0.06925,-0.0235,0.2445,0.0049742498,0.039855998,-0.0030669998,1741884867.630985
-0.069,-0.0305,0.245,0.00068675,0.04034425,-0.00160225,1741884867.645592
-0.03475,-0.05975,0.278,-0.00302125,0.041061502,0.0012970001,1741884867.660078
-0.01675,-0.064,0.30175,-0.0080567505,0.047851503,0.009903,1741884867.674547
-0.00375,-0.0335,0.31575,-0.008636501,0.05349725,0.013061499,1741884867.690702
-0.00725,-0.00725,0.3065,-0.00665275,0.06573475,0.013382,1741884867.703732
-0.00775,0.024,0.2815,-0.0062865,0.0690155,0.0111085,1741884867.7196102
0.0075,0.01625,0.2735,-0.010727,0.0669555,0.00830075,1741884867.732536
0.06925,-0.04475,0.296,-0.015090999,0.06448375,0.0110932505,1741884867.7469509
0.094,-0.05925,0.30875,-0.0194245,0.06343075,0.017181499,1741884867.76135
0.099,-0.05425,0.3055,-0.02124025,0.066513,0.03025825,1741884867.775765
0.0555,-0.00125,0.25275,-0.019027751,0.0681,0.03038025,1741884867.790747
0.03925,0.031,0.222,-0.01567075,0.06646725,0.015915,1741884867.804461
0.09175,0.038,0.22275,-0.01525875,0.06431575,0.007553,1741884867.819762
0.133,0.03325,0.239,-0.01295475,0.06416325,0.000183,1741884867.833062
0.1575,0.0365,0.24825,-0.008407501,0.0674285,-0.000183,1741884867.8494651
0.14525,0.0335,0.233,-0.00201425,0.07254025,-0.00109875,1741884867.861789
0.127,0.024,0.207,0.008346501,0.07978825,-0.00488275,1741884867.8762681
0.10725,0.01225,0.139,0.008499251,0.078537,-0.0046234997,1741884867.8909702
0.114,0.008,0.11075,0.00242625,0.06820675,0.001648,1741884867.9047449
0.14525,0.0055,0.092,0.00090025004,0.06327825,0.004242,1741884867.9191859
0.152,0.0195,0.08875,0.00505075,0.057983503,0.003952,1741884867.93312
0.15375,0.0445,0.06875,0.00737,0.055893,0.00254825,1741884867.949226
0.15125,0.044,0.051,0.00794975,0.053542998,0.0009765,1741884867.961791
0.15575,0.0365,0.0315,0.006775,0.046569753,-0.0016785001,1741884867.976022
0.17225,0.023,-0.00125,0.0070952503,0.041610748,-0.0019989999,1741884867.9908412
0.1725,0.02325,-0.011,0.00924675,0.032180753,-0.0002135,1741884868.004938
0.15475,0.0305,-0.0115,0.0091095,0.02882375,0.0016785001,1741884868.019491
0.13375,0.02475,-0.019,0.0054780003,0.02186575,0.0046845004,1741884868.03376
0.1005,-0.008,-0.0815,0.0037385002,0.01646425,0.0041504996,1741884868.0494
0.08425,0.0045,-0.1325,0.00494375,0.0099639995,0.00270075,1741884868.0625489
0.0355,0.0615,-0.20875,0.010894749,-0.00770575,-0.001007,1741884868.079287
-0.1515,0.14375,-0.4575,0.006775,-0.02613825,-0.00396725,1741884868.091744
-0.2385,0.10225,-0.5475,-0.016113251,-0.09661875,-0.01911925,1741884868.106327
-0.411,0.0025,-0.4485,-0.020813,-0.14152525,-0.029663,1741884868.121032
-0.4965,-0.01725,-0.3135,-0.00723275,-0.22113025,-0.039382998,1741884868.135853
-0.6765,0.044,-0.03075,-0.0045012496,-0.25029,-0.036316004,1741884868.150497
-0.78375,0.0395,0.13025,-0.0060577504,-0.2798615,-0.0266875,1741884868.165149
-0.93725,-0.1155,0.56275,0.0034942501,-0.28079224,-0.026474,1741884868.1798341
-0.881,-0.222,0.8125,0.0025940002,-0.264511,-0.02633675,1741884868.194437
-0.5365,-0.30575,1.0,-0.011764499,-0.24258424,-0.016021749,1741884868.209732
-0.35675,-0.33725,1.0,-0.02189625,-0.208435,0.0043944996,1741884868.22383
-0.20325,-0.14925,0.9905,0.0062712496,-0.101654,0.041626,1741884868.240839
-0.2445,0.06275,0.93425,0.026672252,-0.0401765,0.038971,1741884868.252887
-0.282,0.21875,0.76275,0.022873,0.035492,0.01077275,1741884868.269359
-0.25675,0.19075,0.36225,0.011306751,0.0453645,0.000534,1741884868.281823
-0.20525,0.1095,0.283,0.0046234997,0.048766997,-0.0062865,1741884868.2962408
-0.128,0.0095,0.267,0.00520325,0.051391497,-0.0050812503,1741884868.310648
-0.1185,-0.016,0.2705,0.0025025,0.06102,-0.00444025,1741884868.325272
-0.127,-0.05125,0.25425,0.00064075,0.0655365,-0.00631725,1741884868.3402119
-0.13475,-0.05625,0.23675,-0.0051880004,0.06726075,-0.009262,1741884868.354413
-0.1405,-0.0685,0.15025,-0.0042572496,0.06274425,-0.0077667497,1741884868.36935
-0.12825,-0.078,0.12375,-0.00048825,0.05567925,-0.00419625,1741884868.383502
-0.10475,-0.0835,0.1195,7.625e-05,0.040756248,0.0018005001,1741884868.399416
-0.047,-0.07725,0.16375,-1.5250001e-05,0.035553,0.003296,1741884868.4124029
-0.0325,-0.0585,0.18825,0.00112925,0.03193675,0.0045012496,1741884868.426759
-0.029,-0.029,0.23125,0.00187675,0.032013,0.0029755002,1741884868.4412348
-0.0235,-0.02825,0.25325,0.00048825,0.03338625,0.00045775,1741884868.4556422
-0.01825,-0.0315,0.28575,-0.00112925,0.03456125,0.0016175,1741884868.470117
-0.0175,-0.02875,0.29325,-0.0029755002,0.03721625,0.0062865,1741884868.4846048
-0.011,-0.01925,0.29325,-0.0028687501,0.03898625,0.008209251,1741884868.499263
-0.00525,-0.01475,0.2965,-0.0027160002,0.041381747,0.00941475,1741884868.513725
0.00975,-0.01,0.308,-0.00590525,0.04792775,0.008773751,1741884868.529532
0.0585,-0.009,0.33875,-0.00868225,0.052139252,0.00694275,1741884868.542511
0.07,-0.021,0.33675,-0.013351499,0.062209997,0.0048217503,1741884868.556959
0.06625,-0.02375,0.297,-0.01402275,0.0670625,0.00488275,1741884868.5714822
0.06925,-0.0315,0.28525,-0.0119630005,0.0699615,0.0048979996,1741884868.5858219
0.08975,-0.05275,0.26425,-0.01065075,0.06829825,0.00708,1741884868.600298
0.08975,-0.04325,0.24625,-0.008255,0.067031756,0.0129395,1741884868.6147761
0.099,-0.024,0.22225,-0.007431,0.06817625,0.01330575,1741884868.6295779
0.122,-0.03125,0.2255,-0.00723275,0.07003775,0.01239025,1741884868.6451561
0.14475,-0.035,0.2325,-0.00671375,0.077789254,0.012329,1741884868.658973
0.13475,-0.013,0.21,-0.0042725,0.08206175,0.011901749,1741884868.672406
0.11175,-0.0,0.16975,-0.00105275,0.08197025,0.01071175,1741884868.6868322
0.10275,0.03425,0.10125,-0.0031889998,0.07734675,0.01033025,1741884868.701233
0.12425,0.04075,0.098,-0.0072785,0.0680085,0.00621025,1741884868.71552
0.15725,0.022,0.11325,-0.00535575,0.066268995,0.00334175,1741884868.7299578
0.15175,0.01675,0.1025,-0.0013885,0.06643675,0.00102225,1741884868.744341
0.139,0.0135,0.079,0.00535575,0.06643675,-0.0003815,1741884868.759826
0.131,0.01975,0.0125,0.0050202496,0.0631255,0.00099175,1741884868.773067
0.1465,0.023,-0.0095,-0.0026245,0.050888002,0.0070495,1741884868.7875211
0.173,0.012,-0.01,-0.0049285004,0.04505925,0.009658749,1741884868.802016
0.1755,0.01675,-0.009,-0.00177,0.037170503,0.008850001,1741884868.81631
0.15975,0.0395,-0.03625,0.0015565,0.035019003,0.0065612504,1741884868.830615
0.15525,0.04575,-0.0515,0.0041044997,0.03341675,0.003891,1741884868.845109
0.15325,0.05925,-0.07625,0.00579825,0.028473,-0.0009765,1741884868.859894
0.14925,0.0575,-0.08675,0.0043944996,0.02342225,-0.0020599999,1741884868.874121
0.14575,0.0515,-0.09625,0.0,0.009521499,-0.0023039998,1741884868.8908422
0.1275,0.03625,-0.1165,-0.00029,0.00216675,-0.0029907501,1741884868.9030242
0.1,0.03625,-0.137,0.0029449998,-0.013564999,-0.0060272496,1741884868.9191182
-0.017,0.05625,-0.2435,0.0041504996,-0.0247955,-0.0068665,1741884868.931999
-0.104,0.05825,-0.3305,-0.00378425,-0.06839,-0.0116425,1741884868.946678
-0.303,-0.01075,-0.46375,-0.00846875,-0.104278505,-0.018035999,1741884868.961526
-0.3925,-0.0515,-0.448,-0.00665275,-0.188324,-0.02940375,1741884868.976256
-0.556,-0.01175,-0.27275,-0.0037385002,-0.22424325,-0.0279235,1741884868.991046
-0.678,0.0595,-0.13525,-0.00590525,-0.2529755,-0.020202748,1741884869.005713
-0.96075,0.008,0.18825,-0.01019275,-0.29382324,-0.0064239996,1741884869.020222
-1.0,-0.12425,0.505,0.003418,-0.29971325,-0.00912475,1741884869.034948
-0.861,-0.26725,0.85275,0.012619001,-0.26959226,-0.0053709997,1741884869.050941
-0.301,-0.268,1.0,-0.002884,-0.2311555,0.012847999,1741884869.064091
-0.24025,-0.198,1.0,0.0,-0.1212005,0.0356445,1741884869.079711
-0.29875,-0.04425,0.939,0.01640325,-0.0684815,0.0274505,1741884869.093531
-0.30125,0.0325,0.82075,0.01823425,-0.00390625,0.013717749,1741884869.110027
-0.226,0.08675,0.5155,0.012176501,0.0102235,0.01013175,1741884869.12242
-0.18225,0.08675,0.405,0.008346501,0.029220501,0.0058135,1741884869.136829
-0.1305,0.108,0.2955,0.008712751,0.03668225,0.0034942501,1741884869.151248
-0.11525,0.103,0.28375,0.00811775,0.041610748,-0.00061025,1741884869.1658392
-0.121,0.02025,0.261,0.002655,0.0451355,-0.0097045,1741884869.180327
-0.12825,-0.029,0.236,7.625e-05,0.045700002,-0.011535751,1741884869.1949592
-0.12875,-0.0655,0.205,-0.0040587503,0.0448455,-0.009216251,1741884869.20976
-0.118,-0.09075,0.142,-0.0058287503,0.04243475,-0.006363,1741884869.224036
-0.106,-0.086,0.12725,-0.0061645,0.033249002,-0.0023345,1741884869.240784
-0.0685,-0.0675,0.15775,-0.0055237496,0.028259251,-0.0020599999,1741884869.2532191
-0.05325,-0.06,0.18825,-0.0033264998,0.0228425,-0.00289925,1741884869.269542
-0.03825,-0.04775,0.23675,-0.0022735,0.022766002,-0.00352475,1741884869.2823958
-0.0345,-0.042,0.253,-0.00119025,0.0254975,-0.00367725,1741884869.298837
-0.0365,-0.0275,0.28025,-0.00125125,0.027709998,-0.002884,1741884869.311531
-0.0405,-0.016,0.29275,-0.00099175,0.03053275,-0.0016632499,1741884869.326129
-0.0335,-0.0015,0.3245,-0.001114,0.0368805,0.00027475,1741884869.340746
-0.0245,0.00175,0.3295,-0.0025787498,0.03901675,0.0005035,1741884869.355121
-0.01475,0.0005,0.32875,-0.0045165,0.041366503,-0.00070200005,1741884869.3696241
0.0145,-0.02125,0.3345,-0.00488275,0.042984,-0.0012055,1741884869.384175
0.027,-0.033,0.33875,-0.0056609996,0.04954525,0.001114,1741884869.3995368
0.04025,-0.03675,0.32825,-0.006363,0.0537415,0.00402825,1741884869.413239
0.037,-0.0285,0.30775,-0.00935375,0.06001275,0.009521499,1741884869.4294899
0.03775,-0.02475,0.2685,-0.011398249,0.0608215,0.00968925,1741884869.442307
0.0535,-0.0425,0.26,-0.01564025,0.06166075,0.00883475,1741884869.4589021
0.0745,-0.03375,0.2395,-0.01651,0.063400246,0.00976575,1741884869.471084
0.088,-0.02175,0.24475,-0.014648501,0.065155,0.009719751,1741884869.4855192
0.111,-0.019,0.26325,-0.007187,0.068847746,0.0065002497,1741884869.499883
0.12675,-0.00425,0.257,-0.005783,0.07162475,0.0057372497,1741884869.514286
0.1195,-0.0,0.23225,-0.0089875,0.0732575,0.00637825,1741884869.529732
0.12925,-0.01975,0.1855,-0.01148975,0.071289,0.008209251,1741884869.543128
0.14025,-0.028,0.172,-0.01165775,0.0690765,0.013839751,1741884869.559511
0.13925,-0.0085,0.15,-0.0088195,0.06987,0.0154115,1741884869.5718908
0.129,0.0145,0.1385,-0.0053252503,0.070633,0.0147705,1741884869.586277
0.1245,0.03325,0.128,-0.001068,0.07038875,0.008941749,1741884869.6006
0.1255,0.03975,0.1015,-0.00125125,0.069793746,0.0062712496,1741884869.614936
0.12125,0.031,0.083,-0.0051269997,0.06533825,0.0053709997,1741884869.6296341
0.12075,0.0175,0.05025,-0.0067445002,0.060806252,0.0063325,1741884869.643739
0.12625,0.01775,0.0425,-0.0022125002,0.05087275,0.0042572496,1741884869.659046
0.131,0.0455,0.0215,0.0022277501,0.046264753,0.0017395001,1741884869.672276
0.131,0.0605,0.00725,0.0052337497,0.04202275,-0.00045775,1741884869.6867158
0.1335,0.069,-0.0055,0.0034637498,0.0338745,-0.00201425,1741884869.7010748
0.143,0.067,-0.02925,0.0005035,0.029251,-0.0012817499,1741884869.715508
0.14125,0.05875,-0.0455,-0.00109875,0.01867675,0.00074775,1741884869.73002
0.12225,0.0595,-0.09425,0.00048825,0.0129395,0.00065625,1741884869.744236
0.10275,0.0715,-0.135,0.00531,-0.00109875,-0.001236,1741884869.759378
0.01575,0.09425,-0.296,0.0048979996,-0.010162249,-0.00148,1741884869.7733161
-0.05175,0.07525,-0.395,-0.002777,-0.0460205,-0.0043335,1741884869.790524
-0.22575,0.01625,-0.5435,-0.00640875,-0.07804875,-0.011016751,1741884869.802521
-0.31375,0.0085,-0.5485,-0.00579825,-0.118393,-0.02127075,1741884869.818882
-0.51675,-0.03575,-0.3705,-0.00541675,-0.2013245,-0.029846251,1741884869.832006
-0.633,-0.03675,-0.189,-0.0075072497,-0.23559575,-0.020934999,1741884869.848703
-0.7765,-0.0155,0.005,0.00381475,-0.28442374,-0.00090025004,1741884869.861439
-1.0,-0.1235,0.4255,0.01927175,-0.29618827,-0.00019825,1741884869.8760152
-0.98175,-0.22675,0.75425,0.021469,-0.2756195,0.0071105,1741884869.89065
-0.49475,-0.242,1.0,0.0084379995,-0.24125674,0.018753,1741884869.905123
-0.26025,-0.19575,1.0,-0.0061950004,-0.1519775,0.040145747,1741884869.9197178
-0.19625,-0.037,0.967,0.0084379995,-0.10211175,0.0382995,1741884869.93428
-0.26625,0.0425,0.85975,0.025268499,-0.0148315,0.021636998,1741884869.949329
-0.32125,0.10775,0.48575,0.020996,0.0075835,0.01504525,1741884869.963022
-0.2745,0.107,0.37275,0.017044,0.0177765,0.009674,1741884869.979412
-0.21475,0.103,0.3295,0.011627249,0.026428249,0.0031889998,1741884869.9916558
-0.1355,0.07625,0.31975,0.008712751,0.031433,-0.0002595,1741884870.006124
-0.1225,0.04175,0.317,0.0049590003,0.042801,-0.009445249,1741884870.0205061
-0.144,-0.03825,0.2885,0.004013,0.047958247,-0.01197825,1741884870.0350358
-0.1615,-0.05825,0.25725,-0.00105275,0.05485525,-0.00852975,1741884870.0496671
-0.169,-0.05675,0.16525,-0.0037537501,0.05426025,-0.004547,1741884870.0642471
-0.15325,-0.054,0.13525,-0.00367725,0.043578997,-4.575e-05,1741884870.079777
-0.09275,-0.06025,0.1635,-0.0020752498,0.037048247,-0.00048825,1741884870.09351
-0.063,-0.06775,0.2005,-0.00065625,0.03155525,-0.0017852499,1741884870.109527
-0.031,-0.064,0.26475,-0.00045775,0.03370675,-0.0014495,1741884870.122732
-0.038,-0.04925,0.273,6.1000002e-05,0.03762825,-0.0008545,1741884870.1371489
-0.05275,-0.033,0.266,0.00054925,0.043518003,-0.0009765,1741884870.151602
-0.06925,-0.01525,0.2385,-0.00065625,0.044342,-0.00067150005,1741884870.1661592
-0.067,-0.018,0.23475,-0.0046845004,0.043808,0.00169375,1741884870.180636
-0.029,-0.03075,0.26275,-0.00590525,0.043701246,0.001892,1741884870.195125
-0.0025,-0.03,0.2835,-0.0053709997,0.047912497,0.00065625,1741884870.209623
0.02475,-0.02125,0.30725,-0.00466925,0.051956248,0.00013725001,1741884870.2240121
0.0315,-0.0155,0.31075,-0.0058899997,0.0605315,0.0001525,1741884870.240434
0.04575,0.0025,0.3085,-0.0070647504,0.0641785,0.000885,1741884870.252806
0.05775,0.00025,0.3055,-0.008255,0.06681825,0.0023039998,1741884870.269093
0.06775,-0.00925,0.30025,-0.012085,0.0683135,0.00723275,1741884870.281646
0.08075,-0.031,0.272,-0.014145001,0.067566,0.0095672505,1741884870.2960231
0.086,-0.04325,0.25475,-0.01658625,0.066452004,0.01148975,1741884870.310314
0.0995,-0.04875,0.22875,-0.01728825,0.067276,0.0115815,1741884870.324712
0.0985,-0.024,0.21425,-0.01693725,0.070922755,0.0091705,1741884870.34047
0.09675,0.02575,0.185,-0.014938249,0.07096875,0.0049285004,1741884870.3535092
0.11425,0.02275,0.17675,-0.0128175,0.06890875,7.625e-05,1741884870.3691468
0.13375,0.018,0.168,-0.01083375,0.0642395,-0.004074,1741884870.3823218
0.14875,0.00325,0.14575,-0.009597749,0.06349175,-0.00352475,1741884870.396922
0.15375,-0.005,0.1365,-0.00662225,0.0615845,-0.0004425,1741884870.411372
0.15925,-0.0125,0.09875,-0.00485225,0.0589905,0.00054925,1741884870.425772
0.16525,-0.01725,0.08125,-0.00059500005,0.054062,0.001526,1741884870.440376
0.18475,-0.0075,0.099,0.00143425,0.05470275,0.00157175,1741884870.454421
0.18,0.01425,0.10075,0.0011445,0.057006747,0.0013427499,1741884870.469045
0.155,0.05575,0.07775,-0.0037537501,0.05599975,0.0013580001,1741884870.483005
0.16425,0.04275,0.06275,-0.010681249,0.053542998,0.00184625,1741884870.498564
0.182,0.013,0.05675,-0.01586925,0.04841625,0.00543225,1741884870.511629
0.17175,-0.03275,0.01325,-0.011306751,0.047592252,0.0057525,1741884870.525992
0.159,-0.02475,-0.0205,0.0030975002,0.043747,-1.5250001e-05,1741884870.5404959
0.13925,0.026,-0.0615,0.00744625,0.03913875,-0.0025787498,1741884870.554889
0.12325,0.04775,-0.0745,0.00738525,0.025115998,-0.004837,1741884870.569298
0.06925,0.0795,-0.12575,0.0050965,0.0158385,-0.00543225,1741884870.5837271
0.02125,0.08725,-0.17575,0.00384525,0.0054015,-0.0054932497,1741884870.599233
-0.047,0.07925,-0.26025,0.0060272496,-0.026550248,-0.0045165,1741884870.612824
-0.204,0.03775,-0.427,0.0037079998,-0.053588748,-0.00564575,1741884870.6294012
-0.2785,0.02725,-0.43,-0.00561525,-0.12672426,-0.010757499,1741884870.6421561
-0.42725,-0.028,-0.3115,-0.0063325,-0.165573,-0.011535751,1741884870.659005
-0.4985,-0.051,-0.213,-0.012024,-0.2295075,-0.00033575002,1741884870.671681
-0.692,-0.04575,0.04725,-0.0105742505,-0.25421152,0.006546,1741884870.686304
-0.7675,-0.0845,0.22925,0.023697,-0.27766424,0.0054932497,1741884870.700928
-0.76025,-0.15975,0.6935,0.037170503,-0.274063,0.0032655,1741884870.715394
-0.62875,-0.11975,0.9175,0.0094604995,-0.246811,0.0072937496,1741884870.72988
-0.327,-0.068,1.0,-0.0102235,-0.22230525,0.013031,1741884870.7444701
-0.22625,-0.106,1.0,-0.01431275,-0.18858325,0.01965325,1741884870.759569
-0.1795,-0.11125,0.99675,0.011764499,-0.09477225,0.02507025,1741884870.773707
-0.24725,0.0165,0.86875,0.01705925,-0.0434265,0.023468,1741884870.7905111
-0.30925,0.0735,0.68075,0.017151,0.02159125,0.013061499,1741884870.802486
-0.31075,0.10725,0.368,0.0166015,0.03279125,0.0062865,1741884870.819058
-0.2565,0.09925,0.32575,0.010818499,0.040420502,-0.003891,1741884870.831491
-0.1335,0.03125,0.36825,0.00691225,0.0451965,-0.00662225,1741884870.845919
-0.09425,-0.00425,0.394,0.00364675,0.062149,-0.009552,1741884870.860377
-0.085,-0.02625,0.39125,0.004547,0.072342,-0.0100555,1741884870.874881
-0.11125,-0.018,0.35875,0.00520325,0.08135975,-0.010009751,1741884870.8905559
-0.141,-0.011,0.29775,0.004837,0.089264,-0.00852975,1741884870.9039118
-0.1625,-0.018,0.20075,0.009002751,0.087082,-0.00535575,1741884870.919148
-0.1525,-0.044,0.17375,0.00668325,0.0726165,0.0029449998,1741884870.932908
-0.08725,-0.1025,0.17725,-0.00036625,0.064331,0.00543225,1741884870.9493089
-0.0445,-0.11275,0.2105,-0.0072632497,0.05783075,0.0068207504,1741884870.962004
0.00925,-0.08375,0.27075,-0.0053252503,0.0596465,0.0068969997,1741884870.979085
0.0065,-0.04475,0.27525,0.00059500005,0.06573475,0.00561525,1741884870.990814
-0.017,0.0045,0.24325,0.0029449998,0.067047,0.00390625,1741884871.005111
-0.0135,-0.00325,0.224,0.00302125,0.06575,0.003128,1741884871.0195122
0.00775,-0.0195,0.217,-0.00485225,0.057800252,0.00830075,1741884871.0339048
0.06825,-0.033,0.24025,-0.008484,0.054550253,0.01216125,1741884871.049431
0.07825,-0.01425,0.24975,-0.009491,0.055404752,0.01510625,1741884871.0628228
0.06525,0.0295,0.2475,-0.008545,0.0568695,0.0114744995,1741884871.079502
0.07275,0.02875,0.23475,-0.0074615004,0.05485525,0.00160225,1741884871.091671
0.1085,-0.01875,0.20625,-0.008148249,0.05239875,0.00108325,1741884871.106018
0.12675,-0.041,0.19725,-0.010376001,0.0483855,0.00688175,1741884871.120488
0.13925,-0.04425,0.17825,-0.009155249,0.048019502,0.009216251,1741884871.134905
0.13575,-0.02975,0.1675,-0.006302,0.04837025,0.009796251,1741884871.149405
0.1325,-0.009,0.158,-0.002472,0.046127252,0.0055847503,1741884871.163819
0.15325,0.00375,0.16075,-0.0033875,0.0436555,0.00263975,1741884871.1796281
0.16675,-0.0045,0.163,-0.00590525,0.040664747,0.00019825,1741884871.192512
0.18125,-0.0185,0.15625,-0.0050355,0.039978,0.00036625,1741884871.206968
0.186,-0.0145,0.15125,-0.00013725001,0.039855998,0.0008545,1741884871.22148
0.18975,-0.009,0.14225,0.0022277501,0.040420502,0.0012665,1741884871.235801
0.19275,-0.01375,0.1365,0.004013,0.04072575,0.00187675,1741884871.250197
0.196,-0.01825,0.12725,0.00416575,0.04049675,0.0045777503,1741884871.264469
0.199,-0.0115,0.10825,0.00239575,0.040634252,0.0065307496,1741884871.2795641
0.1995,0.00225,0.10175,-0.0008545,0.04072575,0.008285499,1741884871.293194
0.2135,0.017,0.105,-0.0014495,0.040802,0.007904,1741884871.309576
0.2185,0.0175,0.11125,0.00068675,0.044281,0.0065002497,1741884871.3216
0.212,0.01725,0.08825,0.00305175,0.04650875,0.0052947504,1741884871.336084
0.20825,0.023,0.06225,0.00428775,0.04765325,0.004013,1741884871.350398
0.20225,0.0255,0.034,-0.00067150005,0.0469055,0.0046539996,1741884871.3647182
0.19225,0.01075,-0.0145,-0.0042267498,0.0451965,0.0062255003,1741884871.379243
0.18975,0.0085,-0.02975,-0.0022277501,0.03913875,0.0070647504,1741884871.3937302
0.1785,0.031,-0.04325,0.002243,0.03575125,0.0059205,1741884871.409237
0.16275,0.0495,-0.0505,0.0052337497,0.029541,0.0021972498,1741884871.422307
0.1045,0.081,-0.1,0.00267025,0.024582,0.0004425,1741884871.4366028
0.04125,0.102,-0.17,-0.0021057501,0.00184625,-0.00112925,1741884871.451096
-0.144,0.08725,-0.45275,-0.0055695,-0.02180475,-0.0027465,1741884871.465796
-0.2305,0.0645,-0.5695,-0.010742251,-0.056945752,-0.008407501,1741884871.480491
-0.31225,0.04725,-0.585,-0.01419075,-0.14601125,-0.027526751,1741884871.495269
-0.482,0.0175,-0.39225,-0.014648501,-0.18588251,-0.0317535,1741884871.509994
-0.56425,0.017,-0.2555,-0.021362249,-0.24719225,-0.0240325,1741884871.524571
-0.76375,0.06425,-0.00525,-0.02265925,-0.270523,-0.0196075,1741884871.540236
-0.863,0.01675,0.15325,-0.00067150005,-0.295807,-0.02124025,1741884871.5538628
-0.8925,-0.1535,0.608,0.0068207504,-0.294342,-0.020874001,1741884871.569036
-0.7615,-0.1755,0.86075,-0.01882925,-0.25337225,-0.007782,1741884871.583161
-0.4145,-0.1265,1.0,-0.035293497,-0.216217,0.00646975,1741884871.599034
-0.303,-0.10525,1.0,-0.02197275,-0.12271125,0.0266265,1741884871.612491
-0.27425,0.00075,0.9415,0.001114,-0.06973275,0.02545175,1741884871.626859
-0.3195,0.0725,0.7865,0.01542675,-0.023056,0.01988225,1741884871.6413922
-0.33525,0.13,0.41025,0.01716625,0.02943425,0.00688175,1741884871.655728
-0.28675,0.1205,0.33525,0.0162505,0.037552,0.0016785001,1741884871.669962
-0.2275,0.1,0.3215,0.01504525,0.041808996,-0.0030975002,1741884871.684469
-0.13,0.04325,0.36725,0.014557,0.04621875,-0.0051574996,1741884871.698876
-0.1035,0.01625,0.37925,0.014145001,0.06257625,-0.00968925,1741884871.7132921
-0.1205,-0.0095,0.3315,0.0152435,0.07070925,-0.0105742505,1741884871.729592
-0.14,-0.01625,0.282,0.017425502,0.077987745,-0.00897225,1741884871.7422779
-0.144,-0.043,0.2085,0.01193225,0.0763245,-0.0073395,1741884871.7567801
-0.13075,-0.051,0.17575,0.00279225,0.07164,-0.0061339997,1741884871.77138
-0.10775,-0.056,0.171,0.003769,0.057922248,-0.00485225,1741884871.78588
-0.0455,-0.06325,0.206,0.00637825,0.05230725,-0.0043335,1741884871.80039
-0.0205,-0.066,0.226,0.0065002497,0.04969775,-0.00238025,1741884871.814912
-0.001,-0.05575,0.246,0.0055695,0.05201725,-0.00051875,1741884871.8298619
-0.00425,-0.03725,0.2445,0.0033875,0.056900002,0.0025940002,1741884871.843683
-0.0085,-0.0195,0.229,0.0018615,0.05714425,0.00355525,1741884871.8590379
0.001,-0.01975,0.225,-0.0038757501,0.052612253,0.00646975,1741884871.872454
0.03575,-0.01825,0.24,-0.00561525,0.05021675,0.00785825,1741884871.8868952
0.0525,-0.0155,0.25575,-0.00466925,0.0494385,0.0078735,1741884871.901252
0.06425,-0.01325,0.26725,0.00184625,0.051773,0.00296025,1741884871.915752
0.08375,-0.01625,0.2705,0.00270075,0.05273425,0.00068675,1741884871.930285
0.097,-0.02475,0.2655,-0.00131225,0.05314625,0.0020905002,1741884871.9446888
0.11375,-0.04375,0.24175,-0.003006,0.0532685,0.00531,1741884871.959638
0.1115,-0.03875,0.226,-0.003296,0.054367002,0.011825499,1741884871.973439
0.1095,-0.0045,0.205,-0.0028535,0.054779,0.012130749,1741884871.990728
0.12375,-0.003,0.20675,-0.00099175,0.05473325,0.007599,1741884872.00259
0.155,-0.02175,0.2165,0.000122000005,0.05505375,0.0057220003,1741884872.016648
0.16175,-0.0285,0.2125,0.00096125,0.055953998,0.0051269997,1741884872.0309582
0.167,-0.0335,0.2055,0.00270075,0.0594635,0.007019,1741884872.045164
0.1655,-0.03225,0.17675,0.00381475,0.061401248,0.008377,1741884872.06027
0.15575,-0.01475,0.153,0.0029755002,0.059951752,0.008026,1741884872.073725
0.167,0.007,0.1285,0.000183,0.057251,0.007019,1741884872.090601
0.186,-0.00275,0.1395,-0.00279225,0.05574025,0.00546275,1741884872.102459
0.1995,-0.01375,0.142,-6.1000002e-05,0.0570985,0.004013,1741884872.11686
0.1945,-0.0145,0.12325,0.0044555003,0.05815125,0.002121,1741884872.131159
0.18925,-0.011,0.099,0.01033025,0.0574645,-0.00067150005,1741884872.145588
0.18675,0.00175,0.0505,0.009552,0.055724997,-0.00013725001,1741884872.1599832
0.19075,-0.00475,0.035,0.0049742498,0.0509795,0.0032347501,1741884872.174268
0.2055,-0.0195,0.02225,0.0050355,0.049286,0.00440975,1741884872.1903832
0.205,-0.009,0.01575,0.01200875,0.0466155,0.003296,1741884872.202825
0.18925,0.01525,-0.012,0.014297499,0.044326752,0.00289925,1741884872.219093
0.185,0.0095,-0.02925,0.0128785,0.0414275,0.0037385002,1741884872.2313228
0.18675,0.00225,-0.04275,0.0049895,0.03512575,0.0063934997,1741884872.2456582
0.17975,0.0025,-0.05375,0.00381475,0.0319825,0.0069580004,1741884872.260082
0.1575,0.0065,-0.06675,0.00541675,0.0249175,0.0061950004,1741884872.2743402
0.0845,0.01875,-0.12675,0.0056609996,0.020019501,0.0049285004,1741884872.290344
0.032,0.038,-0.18725,0.0061950004,0.00119025,0.00369275,1741884872.3030138
-0.1715,0.043,-0.39325,0.003891,-0.01864625,0.0039215,1741884872.319019
-0.2895,0.019,-0.49675,-0.00402825,-0.0497895,0.001114,1741884872.332232
-0.3875,0.013,-0.54525,-0.01460275,-0.13966376,-0.015808,1741884872.348636
-0.547,-0.01225,-0.44675,-0.0135955,-0.18521124,-0.0224305,1741884872.361813
-0.62025,0.01025,-0.30875,-0.021286,-0.2490235,-0.018280001,1741884872.3788679
-0.779,0.16,0.00625,-0.02861025,-0.27012625,-0.012542751,1741884872.3911848
-0.88225,0.14,0.166,-0.0233155,-0.29974374,-0.01121525,1741884872.405746
-0.9895,-0.0415,0.60125,-0.0102845,-0.30188,-0.012405501,1741884872.420428
-0.90825,-0.11,0.856,-0.014007499,-0.27215576,-0.0032655,1741884872.4351559
-0.55475,-0.174,1.0,-0.02619925,-0.24388126,0.00997925,1741884872.44977
-0.3725,-0.1905,1.0,-0.012832751,-0.1575775,0.03536975,1741884872.464372
-0.253,-0.04,0.98825,0.008209251,-0.0974425,0.03671275,1741884872.479605
-0.3015,0.06925,0.92475,0.02345275,0.013321,0.01893625,1741884872.4931788
-0.35525,0.1365,0.52625,0.02278125,0.03872675,0.00770575,1741884872.50942
-0.3115,0.1135,0.363,0.0209655,0.04695125,-0.000534,1741884872.5219572
-0.24875,0.08925,0.2815,0.01756275,0.047165003,-0.005005,1741884872.536426
-0.15375,0.05825,0.248,0.01576225,0.047622748,-0.0052337497,1741884872.550931
-0.12625,0.03575,0.25275,0.010391249,0.050063998,-0.01036075,1741884872.565421
-0.10825,-0.0205,0.254,0.008361749,0.051056,-0.013153,1741884872.580535
-0.1225,-0.04475,0.22575,0.00788875,0.051178,-0.0124665005,1741884872.594589
-0.143,-0.07075,0.15175,0.0060425,0.048995998,-0.009201,1741884872.6095989
-0.1325,-0.072,0.13475,0.00302125,0.045272753,-0.00561525,1741884872.623559
-0.084,-0.0685,0.166,0.000885,0.036728002,-0.00108325,1741884872.6403258
-0.056,-0.06875,0.2015,0.0005645,0.0341035,-0.00016775,1741884872.652566
-0.03675,-0.06575,0.23475,-0.0028229998,0.03622425,0.001007,1741884872.6690629
-0.029,-0.04725,0.25075,-0.00444025,0.0397645,0.00077825,1741884872.681598
-0.0275,-0.033,0.256,-0.00016775,0.04682925,0.00068675,1741884872.696075
-0.042,0.0065,0.25375,0.001007,0.049606252,0.00102225,1741884872.710449
-0.04825,0.01875,0.24475,-0.0012207499,0.051056,0.00080875,1741884872.724855
-0.0275,-0.0055,0.2395,-0.0043182503,0.049850497,0.0010375,1741884872.7403798
-0.0035,-0.028,0.2525,-0.00738525,0.04862975,0.0021972498,1741884872.753793
0.0245,-0.025,0.27375,-0.0086975,0.0502015,0.0058899997,1741884872.769196
0.02525,-0.00775,0.27425,-0.0064545004,0.05216975,0.005783,1741884872.782597
0.02925,0.009,0.271,-0.003891,0.0519105,-0.0007325,1741884872.796963
0.06125,0.0125,0.26025,-0.0050355,0.04989625,-0.0038299998,1741884872.811378
0.08275,0.0025,0.258,-0.0078735,0.04815675,-0.00317375,1741884872.8257768
0.10875,-0.02625,0.25875,-0.0076905,0.049057,-0.00048825,1741884872.840523
0.10975,-0.03475,0.255,-0.00378425,0.05305475,0.0038757501,1741884872.854769
0.105,-0.0175,0.2325,-0.0017242499,0.055419996,0.0047150003,1741884872.869459
0.10475,-0.004,0.2185,-0.0013275,0.056656,0.00444025,1741884872.883975
0.122,-0.01275,0.198,-0.005005,0.054535,0.0017242499,1741884872.89906
0.14025,-0.031,0.1975,-0.0064545004,0.05343625,0.0012970001,1741884872.91287
0.15025,-0.0405,0.19625,-0.0036162501,0.05511475,0.0043639997,1741884872.92945
0.154,-0.023,0.18725,0.0001525,0.056381248,0.0056304997,1741884872.941654
0.16375,-0.0105,0.194,0.0065307496,0.05880725,0.0051880004,1741884872.956091
0.17225,0.0155,0.217,0.0068665,0.061096247,0.0049895,1741884872.970248
0.17225,0.029,0.216,0.00062550005,0.065445,0.0031585,1741884872.984461
0.19,0.009,0.19,-0.00276175,0.066741996,0.00157175,1741884872.9994571
0.19775,-0.01375,0.17175,-0.00358575,0.06781,0.00065625,1741884873.013248
0.20575,-0.026,0.157,0.0025940002,0.068924,0.0004425,1741884873.029208
0.2195,0.00125,0.1385,0.006775,0.069213755,-0.00016775,1741884873.0418339
0.22725,0.0225,0.12975,0.0114440005,0.0699005,-0.0013580001,1741884873.056122
0.24425,0.0545,0.11775,0.010879501,0.0710755,1.5250001e-05,1741884873.070399
0.2335,0.04675,0.0895,0.0025940002,0.0740205,0.0068969997,1741884873.084597
0.20275,0.00125,-0.004,-0.00419625,0.07212825,0.0102235,1741884873.099144
0.19875,-0.014,-0.03075,-0.008850001,0.06690975,0.011764499,1741884873.1134431
0.19775,-0.0125,-0.04125,-0.0053709997,0.053466752,0.0065765,1741884873.129641
0.1105,0.01875,-0.09625,-0.0004425,0.04707325,0.0023345,1741884873.1422238
0.01475,0.026,-0.18,0.00543225,0.02297975,0.0010375,1741884873.156551
-0.25475,-0.02925,-0.5225,0.0049285004,-0.004074,0.00148,1741884873.171228
-0.404,-0.02525,-0.66525,0.007782,-0.098770246,-0.01098625,1741884873.185941
-0.67825,-0.0405,-0.692,0.007019,-0.152893,-0.01820375,1741884873.200602
-0.7625,-0.07925,-0.61175,-0.0167695,-0.2425385,-0.012024,1741884873.215293
-0.93225,-0.01,-0.325,-0.032394502,-0.27182,0.0023345,1741884873.2300348
-1.0,0.04625,-0.14,-0.0396575,-0.2936095,0.015442001,1741884873.24463
-1.0,0.05075,0.09625,-0.007782,-0.33029175,0.017807,1741884873.259746
-0.999,-0.1135,0.753,0.00880425,-0.33715826,0.014343251,1741884873.273738
-0.91925,-0.12325,1.0,-0.01857,-0.294876,0.02101125,1741884873.288325
-0.41575,-0.081,1.0,-0.0358125,-0.249359,0.0397645,1741884873.302923
-0.239,-0.07975,1.0,-0.00643925,-0.12049875,0.06274425,1741884873.319238
-0.315,0.105,0.9125,0.012085,-0.05163575,0.05508425,1741884873.3319511
-0.4225,0.1745,0.70425,0.0220795,0.01953125,0.033844,1741884873.346282
-0.39675,0.138,0.2515,0.01817325,0.021179251,0.026840251,1741884873.360589
-0.2975,0.11775,0.18925,0.013351499,0.017883249,0.02067575,1741884873.374828
-0.211,0.11625,0.2065,0.00767525,0.0193635,0.00723275,1741884873.3908591
-0.13875,0.08375,0.26975,0.006607,0.022918751,-0.000183,1741884873.403635
-0.14575,0.038,0.27575,0.0071105,0.02919,-0.0115815,1741884873.4192572
-0.1845,-0.01875,0.22625,0.0088195,0.030746501,-0.013046251,1741884873.432609
-0.19025,-0.031,0.1805,0.009674,0.0281525,-0.00717175,1741884873.4495318
-0.1655,-0.05625,0.12125,0.00830075,0.02459725,-0.0039825,1741884873.4616
-0.13875,-0.06075,0.124,0.00708,0.01956175,-0.002121,1741884873.476157
-0.08525,-0.059,0.16075,0.0065612504,0.01930225,-0.0022125002,1741884873.491088
-0.06475,-0.0615,0.17925,0.00555425,0.02029425,-0.002411,1741884873.505124
-0.054,-0.06625,0.193,0.0044555003,0.02433775,-0.00263975,1741884873.519685
-0.0595,-0.073,0.21625,0.0048979996,0.0269165,-0.00263975,1741884873.534034
-0.073,-0.06,0.22625,0.0060577504,0.0314025,-0.00105275,1741884873.549643
-0.11175,-0.0195,0.2185,0.00561525,0.03125,0.0013275,1741884873.563169
-0.1225,-0.0135,0.203,-0.00096125,0.02439875,0.00494375,1741884873.579608
-0.10975,-0.0205,0.1985,-0.00108325,0.0200805,0.00520325,1741884873.592191
-0.1005,-0.02325,0.21,0.00077825,0.01460275,0.0033570002,1741884873.606666
-0.08875,-0.0225,0.21925,0.00119025,0.013336251,0.00160225,1741884873.6211221
-0.0835,-0.028,0.2225,0.001419,0.012496999,0.0002595,1741884873.6353998
-0.07825,-0.039,0.23525,0.00027475,0.011673001,0.0002595,1741884873.649879
-0.05775,-0.05225,0.2765,-0.00027475,0.012985251,0.00131225,1741884873.664271
-0.0555,-0.047,0.28025,0.0025634998,0.01924125,0.0023497501,1741884873.679805
-0.06775,-0.02575,0.267,0.00488275,0.022354,0.00070200005,1741884873.69327
-0.06875,-0.0155,0.2655,0.005844,0.02671825,-0.0035095,1741884873.7103128
-0.0625,-0.0095,0.26475,0.00460825,0.0283355,-0.00413525,1741884873.722271
-0.0585,-0.02025,0.26225,0.00019825,0.03050225,-0.00369275,1741884873.736777
-0.0415,-0.059,0.2555,-0.00238025,0.031265248,-0.00289925,1741884873.751316
-0.036,-0.076,0.249,-0.00372325,0.032180753,-0.00201425,1741884873.765995
-0.0255,-0.08225,0.244,-0.002121,0.034668,-0.0001525,1741884873.7805839
-0.02775,-0.06375,0.2365,-0.00024425,0.035019003,0.0003205,1741884873.795069
-0.03375,-0.042,0.2265,0.00369275,0.0317535,-0.00083925005,1741884873.810078
-0.0305,-0.02725,0.20975,0.00372325,0.028183,-0.0012665,1741884873.824224
-0.01925,-0.03425,0.2075,-0.00109875,0.019989,0.00057975,1741884873.8410811
0.0025,-0.0575,0.21075,-0.0031585,0.0166625,0.001831,1741884873.853175
0.01025,-0.0655,0.213,-0.0028229998,0.012436,0.00231925,1741884873.869308
0.02,-0.06825,0.22075,-0.00149525,0.011383001,0.00245675,1741884873.881993
0.02325,-0.062,0.228,0.00119025,0.00997925,0.0038299998,1741884873.89628
0.0235,-0.03525,0.23925,0.00239575,0.009155249,0.00444025,1741884873.910601
0.02225,-0.024,0.24375,0.00325,0.008148249,0.004593,1741884873.9248672
0.0235,-0.01725,0.2495,0.002411,0.0059205,0.00328075,1741884873.939285
0.03225,-0.01675,0.26075,0.00093075,0.00531,0.002411,1741884873.9536011
0.033,-0.0235,0.26075,-0.0011445,0.0054475004,0.0009155,1741884873.968101
0.0305,-0.042,0.25025,-0.001419,0.0057220003,0.00033575002,1741884873.982807
