acc_x,acc_y,acc_z,gyro_x,gyro_y,gyro_z,timestamp
0.00725,0.246,0.00425,0.00033575002,-0.0011445,-0.0020905002,1741884965.0063639
0.00825,0.24525,0.00575,9.15e-05,-0.00074775,-0.00175475,1741884965.020801
0.01,0.24125,0.00725,0.000183,-0.00057975,-0.00160225,1741884965.035093
0.0105,0.23875,0.00675,0.0001525,-0.000534,-0.00137325,1741884965.049441
0.011,0.238,0.00725,-0.00013725001,-0.00054925,-0.00077825,1741884965.0639591
0.0105,0.23725,0.01,-0.00033575002,-0.00035100002,-0.0004425,1741884965.0785
0.00975,0.23525,0.00975,-0.00071725,0.0003815,0.00035100002,1741884965.092939
0.008,0.2345,0.0055,-0.000763,0.0007325,0.0007325,1741884965.1071439
0.0075,0.23575,0.0035,-0.00068675,0.00093075,0.001236,1741884965.121451
0.007,0.241,0.0015,-0.00048825,0.00083925005,0.0012970001,1741884965.1358101
0.0055,0.2435,-0.0005,-0.000183,0.000824,0.0012207499,1741884965.150269
0.00375,0.24225,-0.002,-0.00019825,0.00065625,0.001114,1741884965.164733
0.00375,0.24225,-0.00125,-0.0003205,0.00045775,0.00115975,1741884965.179224
0.00325,0.243,-0.001,-0.000122000005,0.00030525,0.0012970001,1741884965.193805
0.004,0.24525,0.00075,-0.00013725001,3.0500001e-05,0.0013275,1741884965.2089942
0.005,0.2465,0.002,0.000122000005,-0.00045775,0.00090025004,1741884965.222566
0.005,0.247,0.00225,0.00042725,-0.00045775,0.000534,1741884965.2368782
0.005,0.24575,0.00225,0.000229,-0.00057975,0.0003815,1741884965.251148
0.006,0.2435,0.005,-0.00016775,-0.0005645,0.00065625,1741884965.265652
0.006,0.2425,0.00525,-0.00068675,-0.0004425,0.00105275,1741884965.280087
0.006,0.24175,0.0045,-0.0013427499,-0.000183,0.00169375,1741884965.294452
0.006,0.241,0.0045,-0.0012817499,-3.0500001e-05,0.001892,1741884965.309003
0.0055,0.242,0.00525,-0.00090025004,0.00019825,0.0021515,1741884965.323148
0.0035,0.2445,0.0055,-0.00077825,0.00033575002,0.0022125002,1741884965.339021
0.002,0.24525,0.0045,-0.001114,0.000946,0.00245675,1741884965.3516648
0.0015,0.24475,0.00225,-0.00146475,0.00143425,0.0027465,1741884965.3660622
0.00075,0.24525,0.001,-0.0016632499,0.0019989999,0.00305175,1741884965.38033
-0.001,0.24675,-0.001,-0.001587,0.002533,0.0030365,1741884965.3948019
-0.00225,0.2465,-0.00225,-0.00154125,0.00216675,0.0027465,1741884965.40927
-0.00175,0.24575,-0.00125,-0.000763,0.0012970001,0.00201425,1741884965.4238038
-0.00225,0.24675,0.0,-0.00029,0.00119025,0.0016785001,1741884965.4392781
-0.00275,0.24825,0.0005,-0.00039675,0.00115975,0.0012665,1741884965.452638
-0.00275,0.2485,-0.0005,-0.0007935,0.00115975,0.00119025,1741884965.467985
-0.003,0.2475,-0.00125,-0.00112925,0.00131225,0.0009155,1741884965.481726
-0.00375,0.24475,-0.00375,-0.00115975,0.0012207499,0.000763,1741884965.496289
-0.004,0.2445,-0.0045,-0.00108325,0.00096125,0.00062550005,1741884965.510802
-0.0045,0.245,-0.00425,-0.00029,0.0003815,0.00035100002,1741884965.525275
-0.0045,0.24725,-0.0,1.5250001e-05,0.000183,0.00029,1741884965.539655
-0.00375,0.24875,0.0025,9.15e-05,9.15e-05,-0.00016775,1741884965.554058
-0.0025,0.247,0.00225,0.0,0.0002595,-0.000534,1741884965.56839
-0.00225,0.24525,-0.0005,-0.00010675,0.0003815,-0.000824,1741884965.583634
-0.0025,0.24325,-0.00325,0.0002135,0.0003205,-0.000946,1741884965.599008
-0.0025,0.2435,-0.00225,0.001068,6.1000002e-05,-0.00112925,1741884965.6120598
-0.0025,0.24575,0.00075,0.0012055,3.0500001e-05,-0.00115975,1741884965.628042
-0.00325,0.24575,0.001,0.0010375,0.00016775,-0.00119025,1741884965.64088
-0.00325,0.246,0.0015,0.00054925,0.00048825,-0.0012970001,1741884965.655206
-0.00225,0.249,0.00175,0.00048825,0.00057975,-0.00143425,1741884965.6697721
-0.001,0.2475,0.001,0.00067150005,0.00033575002,-0.00169375,1741884965.684185
0.00075,0.2435,0.00125,0.00083925005,0.00019825,-0.0017242499,1741884965.6985862
0.0005,0.24275,0.0015,0.00102225,0.0003205,-0.00154125,1741884965.712878
-0.0,0.24275,0.00075,0.00083925005,0.000412,-0.00131225,1741884965.728766
-0.0,0.24425,0.00125,0.00080875,0.0003815,-0.001236,1741884965.74167
-0.0005,0.2475,0.00175,0.0009155,0.0004425,-0.0014495,1741884965.756083
-0.00025,0.2465,0.0015,0.000885,0.00048825,-0.0016785001,1741884965.770439
0.0005,0.2445,0.00125,0.00071725,0.00061025,-0.0018005001,1741884965.784847
0.00075,0.24275,-0.0005,0.00064075,0.00068675,-0.001648,1741884965.7992792
0.002,0.243,-0.00025,0.00024425,0.00074775,-0.001114,1741884965.813673
0.0025,0.2435,0.00175,0.00030525,0.0007935,-0.00093075,1741884965.828852
0.00275,0.24425,0.003,0.00077825,0.00099175,-0.001236,1741884965.842313
0.0035,0.2435,0.00325,0.0007325,0.001068,-0.00148,1741884965.858216
0.00425,0.24425,0.00225,0.00048825,0.0011445,-0.001648,1741884965.870912
0.00425,0.244,0.001,0.000183,0.00115975,-0.00175475,1741884965.885338
0.0045,0.24275,-0.00175,0.00010675,0.00109875,-0.001648,1741884965.899749
0.00525,0.24175,-0.001,0.00010675,0.0009155,-0.0012665,1741884965.914186
0.00575,0.24225,0.0015,0.00027475,0.00083925005,-0.00109875,1741884965.928968
0.00475,0.2425,0.002,0.0004425,0.00074775,-0.001114,1741884965.942925
0.00375,0.24425,0.00125,0.000473,0.00065625,-0.001419,1741884965.958675
0.00425,0.24475,0.00025,0.00059500005,0.0005645,-0.0018615,1741884965.971745
0.00575,0.24525,-0.0005,0.00042725,0.00019825,-0.0023039998,1741884965.986145
0.00975,0.2475,-0.0005,0.0,-7.625e-05,-0.00213625,1741884966.000619
0.01075,0.24575,0.001,-0.00077825,-0.0004425,-0.0016175,1741884966.015142
0.01125,0.2385,0.0015,-0.0007935,-0.00048825,-0.0013885,1741884966.02976
0.0115,0.2375,0.00175,-0.00080875,-0.00019825,-0.00051875,1741884966.044258
0.01075,0.23925,0.00325,-0.00105275,-6.1000002e-05,-3.0500001e-05,1741884966.058757
0.01025,0.24075,0.00275,-0.00096125,0.000183,0.0003815,1741884966.073149
0.008,0.24075,-0.00225,-0.00054925,0.0003205,0.00035100002,1741884966.088752
0.00775,0.24,-0.00425,-0.00019825,0.0003815,0.00036625,1741884966.101888
0.00825,0.24025,-0.0045,9.15e-05,7.625e-05,0.000534,1741884966.1161711
0.01,0.24275,-0.00075,6.1000002e-05,-9.15e-05,0.00057975,1741884966.130651
0.01025,0.2435,0.0015,-0.00027475,6.1000002e-05,0.00062550005,1741884966.144953
0.01,0.24625,0.004,-0.00039675,0.000122000005,0.00062550005,1741884966.159363
0.009,0.24725,0.00375,-0.00054925,0.0001525,0.00048825,1741884966.173666
0.00725,0.248,0.003,-0.00057975,9.15e-05,0.0003205,1741884966.189673
0.00675,0.24825,0.00325,-0.00061025,3.0500001e-05,0.0001525,1741884966.2023418
0.00675,0.24875,0.004,-0.0007325,3.0500001e-05,-0.000229,1741884966.218133
0.0065,0.2465,0.002,-0.0007935,6.1000002e-05,-0.00035100002,1741884966.2311392
0.00625,0.24375,-0.00125,-0.0007325,0.00013725001,-0.00029,1741884966.245555
0.00725,0.2405,-0.003,-0.0007325,9.15e-05,-4.575e-05,1741884966.260086
0.008,0.24175,-0.00175,-0.00071725,4.575e-05,0.00051875,1741884966.274474
0.0075,0.246,0.00125,-0.00080875,0.0001525,0.00061025,1741884966.289623
0.006,0.24675,0.0015,-0.000946,0.000412,0.00042725,1741884966.303036
0.003,0.247,0.00075,-0.00080875,0.000412,0.0002595,1741884966.3184671
0.00225,0.24625,0.0005,-0.00062550005,0.00033575002,0.00013725001,1741884966.3315709
0.002,0.24475,0.00025,-0.00042725,6.1000002e-05,7.625e-05,1741884966.3458502
0.00225,0.2415,-0.002,-0.0003815,-6.1000002e-05,0.00013725001,1741884966.360259
0.0025,0.2415,-0.00325,-0.00033575002,-0.0002135,0.00036625,1741884966.374753
0.0025,0.24475,-0.00375,-0.0003815,-0.000229,0.000473,1741884966.389195
0.00225,0.2455,-0.00375,-0.00042725,-0.00019825,0.00054925,1741884966.403744
0.00225,0.24325,-0.0045,-0.0003205,-0.00024425,0.00059500005,1741884966.418175
0.0025,0.24275,-0.0035,-0.0001525,-0.00033575002,0.00067150005,1741884966.432767
0.00325,0.243,-0.002,0.000183,-0.0005035,0.00077825,1741884966.447157
0.0055,0.24375,0.00025,0.0003205,-0.000534,0.0007935,1741884966.461523
0.0055,0.2445,0.00025,0.000534,-0.0005035,0.000763,1741884966.475847
0.00625,0.24325,0.00075,0.00042725,-0.000534,0.0008545,1741884966.4901419
0.007,0.2425,0.00075,0.0002595,-0.0005035,0.0009765,1741884966.5045261
0.007,0.24325,-0.00125,0.0002595,-0.00036625,0.00096125,1741884966.518922
0.0065,0.2425,-0.00175,-3.0500001e-05,-0.000229,0.00108325,1741884966.533511
0.00625,0.24275,-0.0005,-6.1000002e-05,-0.00029,0.00115975,1741884966.5487099
0.006,0.2445,0.00025,4.575e-05,-0.0003205,0.00115975,1741884966.562429
0.00575,0.246,0.00025,0.00029,-0.00024425,0.00090025004,1741884966.578003
0.00575,0.24475,-0.00025,0.0002135,-0.00019825,0.00074775,1741884966.5911748
0.00575,0.24375,-0.00125,-0.000122000005,-4.575e-05,0.0007325,1741884966.605694
0.005,0.2425,-0.0035,-9.15e-05,-1.5250001e-05,0.00071725,1741884966.6202261
0.00475,0.243,-0.0035,0.0003205,-0.000122000005,0.00061025,1741884966.634636
0.0045,0.24575,-0.001,0.0005035,-0.00016775,0.000534,1741884966.649135
0.00375,0.24625,-0.00075,0.00045775,-0.00016775,0.00036625,1741884966.663638
0.0025,0.24625,-0.00075,0.000183,-0.000122000005,0.00039675,1741884966.678815
0.0025,0.24725,-0.00025,-1.5250001e-05,-1.5250001e-05,0.0004425,1741884966.6924942
0.00275,0.2475,-0.0005,9.15e-05,0.00027475,0.0001525,1741884966.706759
0.00375,0.2435,-0.002,0.0002135,0.00030525,-4.575e-05,1741884966.721122
0.00425,0.242,-0.00275,0.00054925,0.0003815,-7.625e-05,1741884966.735629
0.004,0.24225,-0.00325,0.00071725,0.00042725,9.15e-05,1741884966.7499478
0.004,0.243,-0.002,0.00090025004,0.00035100002,0.00039675,1741884966.764353
0.003,0.24575,0.00275,0.00112925,0.0004425,0.00039675,1741884966.7788868
0.00175,0.2465,0.00525,0.0013275,0.00061025,0.00029,1741884966.79273
0.0015,0.247,0.00675,0.00109875,0.000946,0.0001525,1741884966.808552
0.00125,0.2455,0.003,0.00099175,0.00115975,9.15e-05,1741884966.821234
0.00075,0.24375,-0.00125,0.00083925005,0.0012055,0.0002135,1741884966.835756
0.0005,0.2405,-0.00525,0.0007325,0.00102225,0.00048825,1741884966.850125
0.00075,0.241,-0.0035,0.00102225,0.00086975005,0.00074775,1741884966.864446
0.0015,0.24275,0.003,0.0011445,0.00090025004,0.00077825,1741884966.8787541
0.00125,0.245,0.005,0.001068,0.000824,0.00080875,1741884966.892822
0.00125,0.2485,0.00575,0.00057975,0.0007935,0.00067150005,1741884966.907934
0.00175,0.2515,0.00325,0.00033575002,0.000946,0.0005035,1741884966.9212449
0.001,0.2495,-0.0005,0.0002595,0.00108325,7.625e-05,1741884966.935625
-0.0005,0.24425,-0.0035,0.000229,0.000946,1.5250001e-05,1741884966.950043
-0.0005,0.2445,-0.0025,0.00013725001,0.00048825,0.00019825,1741884966.9644349
-0.0005,0.2485,0.0015,0.00010675,0.00035100002,0.0002595,1741884966.978765
-0.00025,0.24925,0.00425,-1.5250001e-05,0.00029,0.0002595,1741884966.993123
-0.00025,0.24925,0.0065,-0.0002135,0.0005035,-3.0500001e-05,1741884967.008229
-0.0015,0.2475,0.006,-0.00027475,0.000763,-0.00027475,1741884967.022017
-0.002,0.24625,0.00375,-0.00039675,0.00099175,-0.00061025,1741884967.036503
-0.002,0.24325,-0.00025,-0.00029,0.0009155,-0.00074775,1741884967.051098
-0.00125,0.24125,-0.00075,7.625e-05,0.0005645,-0.0009155,1741884967.065521
-0.0,0.23975,0.0005,0.00024425,0.00036625,-0.00086975005,1741884967.079951
0.0005,0.24075,0.00175,0.000412,0.0002135,-0.00080875,1741884967.094421
-0.00075,0.245,0.00125,0.0005645,0.00019825,-0.0008545,1741884967.1088588
-0.00125,0.24625,0.001,0.000412,0.00013725001,-0.00096125,1741884967.1232471
0.0,0.24625,0.0025,3.0500001e-05,-0.00039675,-0.00131225,1741884967.139232
0.0025,0.2465,0.006,0.00013725001,-0.00045775,-0.001587,1741884967.152044
0.001,0.24625,0.00425,9.15e-05,-0.00045775,-0.0019989999,1741884967.166406
0.001,0.24,0.00075,-0.000183,-0.0007935,-0.0020295,1741884967.180948
0.00175,0.238,0.001,4.575e-05,-0.00169375,-0.0020905002,1741884967.195359
0.003,0.23975,0.00075,0.0004425,-0.00198375,-0.00216675,1741884967.209829
0.004,0.241,0.00025,0.00074775,-0.002121,-0.002121,1741884967.224164
0.004,0.24225,-0.0005,0.00054925,-0.0023345,-0.0017395001,1741884967.23931
0.00675,0.24675,0.0015,6.1000002e-05,-0.00251775,-0.00163275,1741884967.253095
0.009,0.25025,0.0025,4.575e-05,-0.0021515,-0.00163275,1741884967.2683132
0.0065,0.249,-0.00125,0.000122000005,-0.00198375,-0.0017395001,1741884967.2819169
0.0075,0.247,-0.0025,4.575e-05,-0.002777,-0.0020905002,1741884967.296515
0.00925,0.24525,-0.0025,0.00057975,-0.003128,-0.00231925,1741884967.3110359
0.0095,0.24725,-0.0015,0.00154125,-0.00358575,-0.00289925,1741884967.3254862
0.01225,0.24975,0.0035,0.00148,-0.0037995,-0.00302125,1741884967.339937
0.0145,0.24725,0.0075,0.00119025,-0.00378425,-0.0028687501,1741884967.3544161
0.01625,0.245,0.01075,0.00062550005,-0.0025940002,-0.002121,1741884967.368809
0.01525,0.24475,0.01075,0.000122000005,-0.0016632499,-0.00154125,1741884967.3831942
0.0145,0.24425,0.01,-0.0002595,0.00013725001,-0.00065625,1741884967.398605
0.0135,0.24275,0.00675,0.00030525,0.0009765,-0.00051875,1741884967.4120479
0.01175,0.2425,0.00475,0.00108325,0.0019225,-0.0001525,1741884967.426309
0.0115,0.23925,0.00325,0.000946,0.001648,0.00024425,1741884967.4406269
0.0105,0.239,0.0025,0.00083925005,0.00119025,0.00061025,1741884967.454914
0.009,0.24025,0.0015,0.00065625,0.00068675,0.001587,1741884967.469228
0.00975,0.2405,0.00225,0.00013725001,0.00030525,0.0023497501,1741884967.483486
0.01,0.23975,0.00275,-3.0500001e-05,-3.0500001e-05,0.0033264998,1741884967.498712
0.0075,0.2385,0.004,0.000534,-1.5250001e-05,0.0033722501,1741884967.5123441
0.00675,0.23925,0.00525,0.001648,-0.00042725,0.0027312501,1741884967.526539
0.00775,0.245,0.0095,0.002243,-0.00054925,0.0021819999,1741884967.540878
0.0075,0.2475,0.01025,0.0026854998,-0.0005645,0.001709,1741884967.555219
0.006,0.24825,0.009,0.0025787498,-0.00029,0.00137325,1741884967.5695071
0.0035,0.24875,0.005,0.0023039998,-0.00013725001,0.0014037499,1741884967.5837991
0.0015,0.24875,0.0025,0.0018615,-0.0005035,0.00148,1741884967.598714
0.00075,0.2475,0.00275,0.001831,-0.001007,0.0012055,1741884967.612513
0.002,0.24725,0.00475,0.00289925,-0.00143425,0.00039675,1741884967.626824
0.00225,0.245,0.00925,0.00317375,-0.00131225,0.00016775,1741884967.6411362
0.0035,0.2445,0.0135,0.00296025,-0.001068,4.575e-05,1741884967.655503
0.0045,0.24475,0.01675,0.0021515,-0.0001525,0.0,1741884967.669796
0.00375,0.24475,0.01675,0.00175475,0.0001525,0.0,1741884967.684088
0.004,0.24425,0.01575,0.00143425,0.000183,-3.0500001e-05,1741884967.698529
0.00375,0.24425,0.0145,0.0016632499,0.000229,-9.15e-05,1741884967.712853
0.003,0.2455,0.01425,0.00204475,0.00065625,-0.00048825,1741884967.7287161
0.0035,0.2435,0.0145,0.0021057501,0.00068675,-0.000824,1741884967.741516
0.00425,0.24175,0.014,0.00231925,0.00057975,-0.0011445,1741884967.75581
0.004,0.2425,0.0125,0.0031127501,0.00024425,-0.0014495,1741884967.770136
0.00325,0.24625,0.013,0.0030975002,-3.0500001e-05,-0.001526,1741884967.7846231
0.0055,0.2455,0.01675,0.00308225,-0.00045775,-0.0019685,1741884967.7990751
0.00775,0.24225,0.02,0.00358575,-0.00039675,-0.0023497501,1741884967.8134358
0.008,0.24125,0.021,0.00364675,-1.5250001e-05,-0.00254825,1741884967.8287969
0.00825,0.243,0.02275,0.0031127501,0.000183,-0.0022735,1741884967.842153
0.008,0.244,0.0215,0.0021819999,0.00096125,-0.00175475,1741884967.8565261
0.0065,0.24375,0.018,0.0021515,0.00125125,-0.0017395001,1741884967.870829
0.006,0.24425,0.016,0.0025787498,0.0014495,-0.0020295,1741884967.885015
0.0075,0.24425,0.01775,0.0034942501,0.00157175,-0.003006,1741884967.899358
0.011,0.246,0.02275,0.0034790002,0.00137325,-0.0032655,1741884967.913634
0.0115,0.24675,0.023,0.00279225,0.0012207499,-0.0036162501,1741884967.928693
0.01375,0.24375,0.022,0.0023039998,0.0011445,-0.00381475,1741884967.942153
0.015,0.24275,0.0205,0.00115975,0.0011445,-0.0037995,1741884967.9565508
0.0165,0.2415,0.02225,0.0003815,0.0014037499,-0.0034637498,1741884967.97086
0.01725,0.242,0.02375,-0.00013725001,0.00163275,-0.00314325,1741884967.985204
0.017,0.24225,0.024,0.00013725001,0.0016785001,-0.00276175,1741884967.999551
0.016,0.24175,0.02025,0.00024425,0.001526,-0.00251775,1741884968.013839
0.0155,0.24275,0.01775,-0.000412,0.00109875,-0.00193775,1741884968.028673
0.01375,0.246,0.017,-0.00109875,0.00064075,-0.00193775,1741884968.042637
0.0155,0.24425,0.0205,-0.00169375,-0.00067150005,-0.00279225,1741884968.058999
0.0205,0.23825,0.02275,-0.0009765,-0.00096125,-0.00331125,1741884968.071734
0.021,0.23525,0.02225,-3.0500001e-05,-0.00108325,-0.0034942501,1741884968.0862238
0.02225,0.2345,0.02325,0.00065625,-0.00112925,-0.00289925,1741884968.1006331
0.02425,0.2395,0.027,0.00054925,-0.00096125,-0.0023345,1741884968.1151319
0.02375,0.2415,0.02725,1.5250001e-05,-0.000534,-0.001114,1741884968.129638
0.024,0.242,0.02675,1.5250001e-05,-0.00024425,-0.0007935,1741884968.144025
0.024,0.24175,0.02675,0.00067150005,0.00048825,-0.0007325,1741884968.158828
0.02225,0.24025,0.02325,0.00093075,0.00054925,-0.00070200005,1741884968.172619
0.02175,0.23875,0.02175,0.0012055,0.00045775,-0.00064075,1741884968.186922
0.021,0.23825,0.02125,0.0016785001,0.000183,-0.0002595,1741884968.201302
0.021,0.239,0.022,0.00181575,4.575e-05,6.1000002e-05,1741884968.2156422
0.02125,0.24025,0.02325,0.001709,3.0500001e-05,0.00070200005,1741884968.229883
0.02125,0.24475,0.026,0.00163275,0.00013725001,0.00080875,1741884968.244123
0.02125,0.24575,0.027,0.00157175,0.00027475,0.00061025,1741884968.258462
0.0215,0.24325,0.02675,0.0014495,0.000122000005,0.00033575002,1741884968.272631
0.022,0.242,0.02675,0.0014495,-0.00010675,6.1000002e-05,1741884968.28705
0.022,0.2415,0.0265,0.001709,-0.00030525,0.0001525,1741884968.301318
0.02225,0.24375,0.02775,0.0017395001,-0.00036625,0.000412,1741884968.315628
0.02275,0.2455,0.02925,0.00160225,-0.00030525,0.00074775,1741884968.329932
0.02225,0.2455,0.031,0.0014495,-0.000183,0.0007325,1741884968.344343
0.02125,0.244,0.02975,0.0013275,-0.00016775,0.0003815,1741884968.358706
0.0205,0.242,0.029,0.00143425,-0.00029,0.00010675,1741884968.373098
0.021,0.2415,0.02975,0.00160225,-0.000412,-0.00016775,1741884968.387501
0.02175,0.23975,0.02975,0.00184625,-0.0004425,-0.00070200005,1741884968.401901
0.02175,0.23825,0.02925,0.00181575,-0.0003815,-0.0009155,1741884968.41643
0.02175,0.2375,0.02875,0.001648,-0.00035100002,-0.0007935,1741884968.430803
0.02225,0.239,0.03025,0.001587,-0.000412,-0.0005645,1741884968.4451149
0.022,0.24,0.03075,0.00184625,-0.00059500005,-0.00065625,1741884968.459619
0.02225,0.2415,0.03125,0.00204475,-0.00062550005,-0.00080875,1741884968.474026
0.02175,0.2405,0.0305,0.00181575,-0.00077825,-0.00048825,1741884968.489716
0.02125,0.2395,0.0305,0.0015105,-0.0008545,-0.00019825,1741884968.502893
0.02125,0.23975,0.03025,0.00131225,-0.00096125,3.0500001e-05,1741884968.518046
0.021,0.24025,0.02975,0.0012970001,-0.00096125,0.000122000005,1741884968.531614
0.02175,0.24225,0.031,0.0012055,-0.0009765,0.0,1741884968.545899
0.02225,0.2435,0.03225,0.0008545,-0.00102225,-0.00024425,1741884968.560407
0.02225,0.24375,0.03425,0.00064075,-0.001007,-0.00030525,1741884968.574775
0.02225,0.2435,0.03525,-6.1000002e-05,-0.00064075,-9.15e-05,1741884968.589216
0.0225,0.242,0.03725,-0.00045775,-0.000473,4.575e-05,1741884968.603595
0.022,0.242,0.037,-0.00071725,-0.00036625,9.15e-05,1741884968.618001
0.02175,0.242,0.0335,-0.00077825,-0.00045775,-3.0500001e-05,1741884968.63251
0.022,0.24175,0.032,-0.00061025,-0.00054925,-0.00019825,1741884968.6470249
0.02175,0.24075,0.0315,-0.00027475,-0.00036625,-0.0002595,1741884968.6615198
0.02125,0.24,0.032,-0.0002595,-0.00027475,-0.00013725001,1741884968.676001
0.02125,0.24075,0.03275,-0.0002135,-0.000229,-4.575e-05,1741884968.690464
0.02175,0.24275,0.0355,-4.575e-05,-0.0002595,-0.00016775,1741884968.7049952
0.022,0.2445,0.037,-4.575e-05,-0.000122000005,-0.00030525,1741884968.719483
0.023,0.244,0.037,-0.0003815,0.0,-0.00019825,1741884968.733851
0.02275,0.2425,0.03525,-0.00093075,0.0003815,4.575e-05,1741884968.748567
0.02175,0.24025,0.0315,-0.00090025004,0.0005035,3.0500001e-05,1741884968.7626061
0.02175,0.2395,0.0305,-0.00070200005,0.000473,-6.1000002e-05,1741884968.7782872
0.0215,0.23925,0.03075,-0.000122000005,0.000183,-0.00029,1741884968.7913542
0.02225,0.2395,0.034,6.1000002e-05,9.15e-05,-0.0003205,1741884968.805717
0.0225,0.23975,0.03525,-1.5250001e-05,0.0002135,-6.1000002e-05,1741884968.8200781
0.022,0.2405,0.03475,-0.0001525,0.00036625,3.0500001e-05,1741884968.834423
0.02175,0.24025,0.034,-0.00035100002,0.00059500005,9.15e-05,1741884968.848705
0.02125,0.24025,0.0315,-0.00035100002,0.00064075,7.625e-05,1741884968.863102
0.02075,0.2405,0.03025,-0.000229,0.00065625,4.575e-05,1741884968.878709
0.0205,0.24,0.02925,-9.15e-05,0.0005645,-3.0500001e-05,1741884968.891912
0.01975,0.2385,0.02775,-0.00010675,0.00045775,1.5250001e-05,1741884968.9062872
0.01975,0.2385,0.02675,-0.00016775,0.00010675,0.0002135,1741884968.920623
0.021,0.23875,0.02775,-0.00013725001,-9.15e-05,0.00033575002,1741884968.9349692
0.02175,0.23975,0.02925,0.00010675,-0.000229,0.00027475,1741884968.9492989
0.02325,0.241,0.03275,0.0001525,-0.000183,0.000183,1741884968.963619
0.02375,0.24025,0.0335,0.00013725001,-0.0001525,0.00016775,1741884968.97807
0.02425,0.23975,0.0335,0.000122000005,-3.0500001e-05,0.0004425,1741884968.992052
0.0245,0.24075,0.0325,9.15e-05,7.625e-05,0.00062550005,1741884969.0063229
0.024,0.242,0.0325,1.5250001e-05,0.00033575002,0.00093075,1741884969.0205162
0.0235,0.24475,0.03225,1.5250001e-05,0.00045775,0.00096125,1741884969.034702
0.0235,0.2455,0.03225,0.000122000005,0.00065625,0.00096125,1741884969.048958
0.023,0.2455,0.032,0.00019825,0.0007325,0.00099175,1741884969.063199
0.023,0.2445,0.03325,0.0002595,0.00074775,0.00099175,1741884969.078725
0.02275,0.24375,0.0345,0.00036625,0.00071725,0.000763,1741884969.0916522
0.0215,0.24325,0.03525,0.00042725,0.0007325,0.00065625,1741884969.105949
0.02075,0.243,0.03425,0.00035100002,0.00064075,0.0005645,1741884969.120213
0.02025,0.24325,0.03175,0.00036625,0.00061025,0.000473,1741884969.1344051
0.01975,0.24325,0.03075,0.00051875,0.00065625,0.00035100002,1741884969.1485891
0.01925,0.24275,0.03025,0.00086975005,0.00077825,0.00024425,1741884969.162797
0.01825,0.24125,0.031,0.000885,0.000824,0.0003205,1741884969.176903
0.01675,0.2405,0.03075,0.00064075,0.0004425,0.000885,1741884969.191186
0.017,0.239,0.0305,0.00057975,3.0500001e-05,0.0012055,1741884969.205398
0.01775,0.23975,0.03125,0.0010375,-0.0001525,0.0012817499,1741884969.219701
0.0185,0.24025,0.03275,0.00119025,-6.1000002e-05,0.0012970001,1741884969.234004
0.01825,0.24025,0.03325,0.00119025,-1.5250001e-05,0.0013885,1741884969.2486138
0.01825,0.2405,0.034,0.00143425,0.00024425,0.00125125,1741884969.262513
0.01575,0.24225,0.03475,0.001526,0.000183,0.00112925,1741884969.2766669
0.01575,0.24225,0.034,0.001526,-0.00054925,0.0012055,1741884969.291002
0.01675,0.24025,0.03525,0.00149525,-0.00080875,0.0012970001,1741884969.305276
0.01725,0.2405,0.0365,0.0014037499,-0.000534,0.001236,1741884969.3194969
0.0165,0.243,0.037,0.0013427499,-0.000229,0.00112925,1741884969.333775
0.0155,0.2435,0.0365,0.00125125,-9.15e-05,0.001068,1741884969.348622
0.01525,0.24325,0.0365,0.00137325,-0.00030525,0.0009765,1741884969.362293
0.0155,0.24225,0.03925,0.001648,-0.0003815,0.00080875,1741884969.378175
0.01525,0.24175,0.04,0.00181575,-0.00051875,0.00035100002,1741884969.39089
0.01475,0.2405,0.0385,0.00160225,-0.00068675,0.00042725,1741884969.405267
0.0145,0.24,0.03725,0.00131225,-0.0007935,0.00061025,1741884969.419604
0.01475,0.24025,0.037,0.0010375,-0.00086975005,0.000763,1741884969.433988
0.01475,0.24175,0.0385,0.0011445,-0.00099175,0.0008545,1741884969.448592
0.01425,0.24225,0.039,0.0018615,-0.0013427499,0.00064075,1741884969.4626088
0.01475,0.24225,0.0405,0.002243,-0.00149525,0.00030525,1741884969.47684
0.01425,0.24175,0.04125,0.002365,-0.001648,-4.575e-05,1741884969.491346
0.01325,0.23975,0.041,0.00231925,-0.00177,6.1000002e-05,1741884969.50569
0.0135,0.23825,0.04,0.0028229998,-0.0023497501,0.00039675,1741884969.519993
0.0145,0.23675,0.04,0.0032347501,-0.0024872501,0.00042725,1741884969.5342789
0.015,0.237,0.042,0.00378425,-0.00251775,0.0005035,1741884969.548589
0.01375,0.23675,0.04375,0.0052337497,-0.00270075,0.00074775,1741884969.562909
0.0125,0.24,0.04675,0.00546275,-0.00270075,0.0007935,1741884969.5785751
0.012,0.2425,0.048,0.0049742498,-0.002411,0.001068,1741884969.591594
0.013,0.24375,0.05125,0.0045165,-0.00239575,0.0013580001,1741884969.6058052
0.01325,0.24475,0.0535,0.0039215,-0.0023039998,0.0015565,1741884969.62011
0.0125,0.244,0.05425,0.0021819999,-0.00149525,0.00193775,1741884969.6344588
0.01225,0.2425,0.05325,0.0012055,-0.001068,0.002411,1741884969.648789
0.011,0.241,0.051,0.00016775,-0.00027475,0.00325,1741884969.663041
0.01,0.2405,0.04825,-0.0001525,4.575e-05,0.0034942501,1741884969.6786509
0.01,0.24025,0.0485,-0.00064075,3.0500001e-05,0.003952,1741884969.691613
0.0065,0.2365,0.047,-0.00077825,-0.0001525,0.00411975,1741884969.706099
0.005,0.23575,0.04725,-0.00146475,-0.00059500005,0.004486,1741884969.720587
0.005,0.241,0.051,-0.001648,-0.00071725,0.0047150003,1741884969.7348611
0.00375,0.24175,0.05025,-0.0015565,-0.0005035,0.00494375,1741884969.749429
0.00175,0.2405,0.0485,-0.0013275,0.00051875,0.0048065,1741884969.763687
0.001,0.23725,0.04825,-0.001236,0.0013427499,0.00463875,1741884969.778102
0.00225,0.236,0.04925,-0.000824,0.00289925,0.0045625,1741884969.7922618
0.00375,0.237,0.0505,-0.0005645,0.00292975,0.00453175,1741884969.806568
0.00225,0.23975,0.05475,0.00071725,0.004486,0.00381475,1741884969.820778
0.00425,0.24025,0.06375,0.00204475,0.007782,0.0033264998,1741884969.8350232
0.00475,0.23375,0.05675,0.00317375,0.011245751,0.00276175,1741884969.849174
0.0025,0.2315,0.04625,0.00231925,0.008545,-0.00074775,1741884969.863465
0.0025,0.23725,0.04925,0.0023497501,0.00302125,-0.003418,1741884969.8787572
0.00275,0.23725,0.05575,0.0055085,-0.0025634998,-0.0057220003,1741884969.892143
-0.00125,0.2465,0.05675,0.0060577504,-0.0014495,-0.00531,1741884969.906661
0.00275,0.25125,0.06125,0.00402825,0.00238025,-0.0039215,1741884969.9209752
0.0035,0.24725,0.0645,0.00279225,0.0049590003,-0.00340275,1741884969.935255
0.00125,0.24125,0.05175,0.00102225,0.0068665,-0.00279225,1741884969.94947
0.00125,0.238,0.0465,-0.0026092501,0.0052947504,-4.575e-05,1741884969.963905
-0.0055,0.2295,0.02725,-0.0027465,0.00396725,0.00160225,1741884969.978941
-0.0065,0.22575,0.01875,-0.000183,-1.5250001e-05,0.0036315,1741884969.992887
0.012,0.216,0.036,0.00067150005,-0.00238025,0.0044707498,1741884970.008677
0.013,0.21575,0.0465,-0.00077825,-0.0070495,0.007309,1741884970.021622
-0.00125,0.23525,0.0615,-0.0017242499,-0.00801075,0.00868225,1741884970.036063
-0.00125,0.24175,0.0685,-0.002121,-0.0072937496,0.009582501,1741884970.050598
0.0005,0.24175,0.0725,-0.003769,-0.0033264998,0.01177975,1741884970.06498
-0.0075,0.2325,0.06325,-0.00585925,-0.00068675,0.013382,1741884970.079463
-0.0115,0.228,0.05175,-0.0081635,0.00408925,0.01608275,1741884970.093876
-0.01825,0.2305,0.03425,-0.007904,0.0049285004,0.016983,1741884970.108733
-0.0255,0.2425,0.0265,-0.0055695,0.004776,0.01560975,1741884970.122764
-0.04025,0.26975,0.01425,-0.0042572496,0.0038757501,0.012756251,1741884970.1370409
-0.03775,0.27425,0.02,-0.0027312501,0.00033575002,0.0055695,1741884970.1515899
-0.02875,0.25125,0.04325,-0.001831,-0.00077825,0.002655,1741884970.166004
-0.02775,0.24075,0.04625,-0.000885,-0.00096125,0.000763,1741884970.1804428
-0.028,0.23575,0.04475,-0.00013725001,-0.000183,-0.00019825,1741884970.194977
-0.029,0.24025,0.0415,3.0500001e-05,-1.5250001e-05,-0.0004425,1741884970.209483
-0.0295,0.24825,0.0415,0.0011445,-0.00029,-0.00204475,1741884970.223965
-0.03025,0.2595,0.0425,0.00181575,-0.00051875,-0.003296,1741884970.239323
-0.0305,0.25975,0.043,0.002411,-0.00148,-0.0061339997,1741884970.2529652
-0.02775,0.253,0.048,0.002365,-0.00198375,-0.00738525,1741884970.268238
-0.024,0.24725,0.04825,0.0029145,-0.0014495,-0.00947575,1741884970.281937
-0.01775,0.239,0.05175,0.00317375,-0.00115975,-0.009948749,1741884970.296465
-0.0175,0.23775,0.05125,0.00296025,-0.00086975005,-0.0100707505,1741884970.310962
-0.0165,0.238,0.0505,0.0020905002,-0.00033575002,-0.009674,1741884970.325442
-0.01125,0.238,0.04975,0.00175475,-0.0005645,-0.009002751,1741884970.3399801
-0.00925,0.23825,0.049,0.00108325,-0.00105275,-0.0076295,1741884970.354423
-0.0055,0.24125,0.05025,0.00070200005,-0.000534,-0.007187,1741884970.36894
-0.00375,0.24075,0.0515,3.0500001e-05,0.00065625,-0.00611875,1741884970.383326
-0.0035,0.23625,0.05225,-0.00071725,0.00115975,-0.00543225,1741884970.3986912
-0.0025,0.23325,0.05125,-0.002655,0.0019685,-0.00354,1741884970.412472
-0.0045,0.232,0.04225,-0.00314325,0.001953,-0.0027312501,1741884970.428512
-0.0045,0.23425,0.03975,-0.00296025,0.0015565,-0.0026245,1741884970.441409
-0.00225,0.2375,0.04025,-0.0019989999,0.000885,-0.00308225,1741884970.4559512
0.0,0.2425,0.041,-0.0015565,0.00062550005,-0.00305175,1741884970.4703119
-0.0005,0.242,0.0415,-0.00061025,0.00036625,-0.003006,1741884970.48487
-0.001,0.2395,0.04425,-0.000534,0.00045775,-0.0028074998,1741884970.499385
-0.00075,0.24175,0.0435,-0.00115975,0.00064075,-0.00228875,1741884970.513838
0.00125,0.24725,0.042,-0.00160225,0.00074775,-0.0022735,1741884970.5290098
0.00175,0.2455,0.04175,-0.0021057501,0.00065625,-0.0026854998,1741884970.542644
-0.00225,0.237,0.0375,-0.00198375,0.00033575002,-0.00331125,1741884970.55861
-0.0015,0.2395,0.0355,-0.0017242499,-0.00024425,-0.00440975,1741884970.571711
0.00325,0.24525,0.03725,-0.0010375,-0.00108325,-0.0056915004,1741884970.5861871
0.0085,0.24825,0.0445,-0.000946,-0.001007,-0.00520325,1741884970.600687
0.007,0.24575,0.04475,-0.0012207499,0.00024425,-0.00444025,1741884970.615078
-0.00125,0.24475,0.03975,-0.0016175,0.00099175,-0.0049742498,1741884970.629684
0.00275,0.248,0.03475,-0.00198375,0.0017852499,-0.0081635,1741884970.644088
0.02275,0.24875,0.0355,-0.001526,0.0013427499,-0.0093995,1741884970.6586869
0.026,0.24375,0.04025,-0.00016775,-0.00061025,-0.009445249,1741884970.673027
0.02025,0.23625,0.043,3.0500001e-05,-0.0005035,-0.0088195,1741884970.689302
0.019,0.23575,0.042,-0.000183,0.0001525,-0.008209251,1741884970.701764
0.021,0.237,0.04325,-0.00068675,0.00080875,-0.0072937496,1741884970.7161732
0.02825,0.239,0.044,-0.00051875,0.0012207499,-0.006668,1741884970.730582
0.02875,0.2395,0.04075,0.00042725,0.0018615,-0.005539,1741884970.744846
0.02675,0.2425,0.04025,0.00062550005,0.0019685,-0.0053709997,1741884970.7592661
0.02775,0.24075,0.04175,0.0002595,0.00239575,-0.0055237496,1741884970.7735739
0.02375,0.234,0.03775,0.00027475,0.0024414998,-0.0056,1741884970.789271
0.02225,0.2325,0.0335,0.000534,0.00204475,-0.00570675,1741884970.80226
0.024,0.2325,0.03075,0.00067150005,0.00064075,-0.005783,1741884970.816591
0.03175,0.23525,0.03525,0.00059500005,0.000122000005,-0.0055695,1741884970.830879
0.03225,0.23575,0.03725,0.001175,0.00016775,-0.00505075,1741884970.8452559
0.0335,0.23575,0.03825,0.0012665,0.00045775,-0.0047455,1741884970.859571
0.03575,0.238,0.0405,0.00099175,0.00070200005,-0.0040587503,1741884970.8738508
0.037,0.237,0.04325,0.000885,0.00065625,-0.003952,1741884970.8892312
0.037,0.2355,0.042,0.0007325,0.000534,-0.00399775,1741884970.902563
0.03475,0.236,0.0405,3.0500001e-05,0.000229,-0.0041504996,1741884970.91799
0.0355,0.23575,0.03675,-0.0004425,-0.0001525,-0.00416575,1741884970.931419
0.0395,0.23525,0.03775,-0.00013725001,-0.00086975005,-0.003769,1741884970.945961
0.0415,0.23575,0.0375,0.0004425,-0.0008545,-0.0035095,1741884970.9603462
0.042,0.2365,0.03775,0.00077825,-0.000824,-0.00308225,1741884970.974765
0.045,0.2415,0.04275,0.00045775,-0.00064075,-0.00283825,1741884970.989297
0.0455,0.24125,0.04425,6.1000002e-05,-4.575e-05,-0.00267025,1741884971.0036
0.0425,0.234,0.043,0.00039675,9.15e-05,-0.00279225,1741884971.018089
0.0425,0.232,0.04075,0.0009155,0.0002595,-0.00283825,1741884971.032255
0.04375,0.2325,0.03875,0.00149525,0.00030525,-0.00267025,1741884971.0465732
0.048,0.2365,0.0425,0.00149525,0.000122000005,-0.0025787498,1741884971.060856
0.04775,0.238,0.044,0.00175475,7.625e-05,-0.0028229998,1741884971.075246
0.04825,0.235,0.04625,0.00181575,0.00013725001,-0.0031889998,1741884971.089499
0.05,0.23325,0.0455,0.0017242499,7.625e-05,-0.00352475,1741884971.103761
0.0505,0.231,0.0425,0.00181575,-1.5250001e-05,-0.00334175,1741884971.11833
0.05075,0.22975,0.04125,0.00193775,-1.5250001e-05,-0.0028535,1741884971.132761
0.05175,0.23025,0.0415,0.00190725,9.15e-05,-0.001175,1741884971.148375
0.04975,0.232,0.0445,0.00177,-4.575e-05,-0.00064075,1741884971.1615858
0.0495,0.234,0.047,0.0013885,-0.00048825,-0.0012055,1741884971.175961
0.05225,0.2395,0.05075,0.0014037499,-0.00062550005,-0.001953,1741884971.1902668
0.052,0.239,0.049,0.0017395001,-0.00083925005,-0.00314325,1741884971.204737
0.052,0.2335,0.04425,0.0018005001,-0.000885,-0.0033875,1741884971.219143
0.05275,0.23225,0.0445,0.001709,-0.0009155,-0.0033570002,1741884971.2335749
0.0525,0.232,0.04575,0.0013580001,-0.0010375,-0.0029449998,1741884971.2487118
0.0515,0.23425,0.0465,0.001236,-0.00115975,-0.0025940002,1741884971.262319
0.05225,0.23475,0.04625,0.0012970001,-0.001831,-0.0020905002,1741884971.276733
0.05425,0.23325,0.04625,0.0013580001,-0.00216675,-0.00204475,1741884971.291147
0.054,0.232,0.04675,0.00143425,-0.002243,-0.001831,1741884971.305574
0.0545,0.23125,0.05,0.00154125,-0.0019685,-0.0017395001,1741884971.320052
0.05475,0.2305,0.05175,0.00169375,-0.00143425,-0.00177,1741884971.334573
0.05575,0.231,0.0545,0.0016785001,-0.0013580001,-0.001892,1741884971.348979
0.05575,0.23125,0.054,0.0016632499,-0.0012665,-0.0019685,1741884971.363345
0.055,0.23225,0.0525,0.0012665,-0.0009155,-0.00160225,1741884971.378326
0.05475,0.23325,0.05075,0.00093075,-0.00074775,-0.0012207499,1741884971.392118
0.0555,0.233,0.05075,0.0002135,-0.00067150005,-0.00067150005,1741884971.406573
0.05575,0.2335,0.04975,-0.0001525,-0.00070200005,-0.00061025,1741884971.421037
0.056,0.23325,0.05,-0.0009765,-0.00099175,-0.00083925005,1741884971.435609
0.0565,0.23175,0.05075,-0.001068,-0.00115975,-0.00105275,1741884971.450124
0.057,0.2325,0.051,-0.00057975,-0.001175,-0.00157175,1741884971.46464
0.05775,0.23475,0.0505,-0.000473,-0.00119025,-0.0016632499,1741884971.479171
0.058,0.23425,0.04975,-0.00057975,-0.00125125,-0.0016785001,1741884971.493669
0.05825,0.2325,0.05,-0.00105275,-0.00137325,-0.001526,1741884971.508575
0.059,0.22975,0.0505,-0.0010375,-0.00143425,-0.00137325,1741884971.5226848
0.0585,0.22875,0.0495,-0.0002595,-0.0017395001,-0.00131225,1741884971.5371509
0.0595,0.23075,0.04975,0.00013725001,-0.0019225,-0.00148,1741884971.5515609
0.06125,0.23225,0.05075,0.00064075,-0.002121,-0.00184625,1741884971.5659451
0.061,0.23175,0.05075,0.00074775,-0.0023039998,-0.00198375,1741884971.580319
0.061,0.2315,0.05175,0.00074775,-0.00245675,-0.00216675,1741884971.594761
0.062,0.2325,0.0535,0.00071725,-0.002411,-0.00213625,1741884971.609317
0.06225,0.23225,0.05475,0.00065625,-0.0024414998,-0.002121,1741884971.623766
0.06275,0.231,0.05625,0.00099175,-0.00204475,-0.0019225,1741884971.639154
0.06375,0.22825,0.056,0.00143425,-0.001526,-0.00177,1741884971.6524942
0.06325,0.22875,0.055,0.001709,-0.00059500005,-0.00149525,1741884971.667873
0.062,0.2305,0.05325,0.0014495,-0.0005035,-0.001587,1741884971.681311
0.0625,0.232,0.05375,0.00071725,-0.00086975005,-0.001953,1741884971.695759
0.063,0.23225,0.05425,0.00048825,-0.000885,-0.00204475,1741884971.710135
0.063,0.231,0.05325,0.0003815,-0.00083925005,-0.0020905002,1741884971.7246048
0.06375,0.22975,0.053,0.0004425,-0.00065625,-0.0020599999,1741884971.739049
0.066,0.22825,0.05525,0.00065625,-0.000473,-0.001953,1741884971.7534232
0.066,0.22825,0.05625,0.001236,-6.1000002e-05,-0.00204475,1741884971.7680159
0.0655,0.23,0.05525,0.0011445,-1.5250001e-05,-0.00231925,1741884971.7823071
0.0665,0.2305,0.05425,0.00062550005,-0.000122000005,-0.002655,1741884971.796758
0.06825,0.23175,0.055,0.000534,7.625e-05,-0.0025940002,1741884971.8112159
0.0685,0.232,0.0565,0.00048825,0.0007325,-0.00225825,1741884971.825566
0.06925,0.23025,0.0575,0.00067150005,0.0013275,-0.0019989999,1741884971.839849
0.06775,0.22775,0.05625,0.00099175,0.0023345,-0.00181575,1741884971.854215
0.06625,0.2265,0.05375,0.000885,0.00411975,-0.0012817499,1741884971.868562
0.0675,0.225,0.05125,9.15e-05,0.00411975,-0.00057975,1741884971.882829
0.06875,0.2235,0.05225,-0.00125125,0.0036315,0.0013275,1741884971.898551
0.07,0.22525,0.05525,-0.0012665,0.0034790002,0.00190725,1741884971.911447
0.068,0.228,0.055,-0.00115975,0.002655,0.001114,1741884971.925761
0.0685,0.23325,0.05375,-0.00093075,0.00198375,-9.15e-05,1741884971.9401479
0.0695,0.23125,0.05425,-0.00036625,0.00137325,-0.0011445,1741884971.9545689
0.07,0.22725,0.054,0.00099175,0.000473,-0.00193775,1741884971.968877
0.07225,0.2235,0.05375,0.0013580001,0.00024425,-0.001648,1741884971.9832299
0.07275,0.22675,0.054,0.0012055,0.000534,-0.00068675,1741884971.9985092
0.072,0.2325,0.054,0.00090025004,0.00071725,-0.00051875,1741884972.0118248
0.072,0.2315,0.0545,0.0004425,0.00051875,-0.0008545,1741884972.026209
0.0755,0.2265,0.059,0.00067150005,0.00048825,-0.001068,1741884972.040443
0.07575,0.224,0.0605,0.00125125,0.00061025,-0.00119025,1741884972.054786
0.0755,0.22325,0.0605,0.00184625,0.0010375,-0.00062550005,1741884972.069163
0.073,0.22525,0.05675,0.001419,0.00125125,0.00027475,1741884972.08334
0.07125,0.22675,0.05525,0.000122000005,0.0013885,0.002472,1741884972.097825
0.0715,0.22925,0.0525,3.0500001e-05,0.0013275,0.0033875,1741884972.1118011
0.0735,0.22925,0.05075,0.0012207499,0.0011445,0.004074,1741884972.1261492
0.07075,0.22875,0.053,0.00213625,0.00093075,0.0041810004,1741884972.140376
0.0665,0.22725,0.053,0.0026092501,0.0004425,0.00434875,1741884972.15456
0.0655,0.22525,0.05225,0.0023345,-0.00086975005,0.0039215,1741884972.168912
0.06575,0.23,0.05475,0.0022735,-0.001114,0.0037385002,1741884972.183216
0.06625,0.233,0.05675,0.001831,-0.001175,0.00411975,1741884972.19853
0.064,0.23225,0.059,0.0013427499,-0.0015105,0.003952,1741884972.211861
0.06225,0.2305,0.05975,0.0007325,-0.0020905002,0.0020752498,1741884972.2261481
0.063,0.23075,0.06125,0.00042725,-0.0028074998,0.00119025,1741884972.240413
0.0645,0.23325,0.063,3.0500001e-05,-0.0036010002,0.00083925005,1741884972.254753
0.06375,0.233,0.0645,-0.001175,-0.0042725,0.001831,1741884972.269284
0.05825,0.2245,0.0615,-0.00216675,-0.00437925,0.002533,1741884972.283755
0.05525,0.226,0.059,-0.0029449998,-0.00352475,0.0027160002,1741884972.29863
0.0555,0.22775,0.0585,-0.0027312501,-0.0031889998,0.0030669998,1741884972.3126998
0.055,0.22725,0.05775,-0.0018615,-0.0035704998,0.003891,1741884972.3287501
0.05375,0.229,0.05775,-0.0014037499,-0.00367725,0.00378425,1741884972.3415601
0.05275,0.23125,0.05825,-0.00112925,-0.00384525,0.0036010002,1741884972.35601
0.0515,0.2335,0.05825,-0.00083925005,-0.0044707498,0.0031585,1741884972.370296
0.05,0.2335,0.05675,-0.0007935,-0.0048217503,0.0029145,1741884972.384726
0.04975,0.23325,0.055,-0.000885,-0.005844,0.0025634998,1741884972.399123
0.05,0.23225,0.057,-0.0007325,-0.0062865,0.002365,1741884972.413565
0.05025,0.23125,0.06025,0.000534,-0.0064545004,0.00177,1741884972.428304
0.0485,0.2325,0.0625,0.00154125,-0.0062865,0.00146475,1741884972.44224
0.04875,0.23325,0.06325,0.0028687501,-0.00621025,0.00102225,1741884972.4564621
0.04925,0.2355,0.0635,0.0029145,-0.00593575,0.00112925,1741884972.4707808
0.04825,0.2345,0.062,0.0027312501,-0.00546275,0.0013580001,1741884972.485109
0.048,0.23275,0.0595,0.0024414998,-0.00453175,0.0015105,1741884972.4994628
0.04875,0.23225,0.05775,0.0027312501,-0.00399775,0.00154125,1741884972.5137699
0.048,0.231,0.06025,0.0030669998,-0.00308225,0.0021057501,1741884972.528852
0.048,0.23375,0.06975,0.0026245,-0.0025940002,0.00251775,1741884972.542413
0.0465,0.2345,0.07075,0.0021515,-0.001831,0.0028535,1741884972.557843
0.0415,0.23475,0.065,0.00169375,0.0,0.003662,1741884972.5710132
0.04175,0.234,0.06225,0.0015105,0.00057975,0.0042725,1741884972.5852978
0.044,0.233,0.0605,0.0017395001,0.0022277501,0.0050355,1741884972.59957
0.0425,0.23325,0.06175,0.0021515,0.0031889998,0.00488275,1741884972.613743
0.042,0.23175,0.0635,0.0034942501,0.0041504996,0.0042267498,1741884972.6286788
0.0425,0.228,0.0655,0.00419625,0.0041504996,0.00390625,1741884972.6421309
0.0405,0.22975,0.066,0.0045165,0.0036315,0.003418,1741884972.658282
0.0395,0.23275,0.0655,0.0045625,0.0022125002,0.0019989999,1741884972.670576
0.04075,0.23325,0.0655,0.0048217503,0.00169375,0.0012817499,1741884972.684751
0.039,0.23125,0.06625,0.00555425,-0.0002135,4.575e-05,1741884972.699148
0.0355,0.2255,0.068,0.00555425,-0.0015565,-0.000473,1741884972.713556
0.036,0.223,0.06925,0.0059967497,-0.004074,-0.00181575,1741884972.728682
0.04,0.2235,0.0735,0.0073395,-0.0045777503,-0.0027465,1741884972.742241
0.045,0.22475,0.077,0.008941749,-0.0046234997,-0.003418,1741884972.7566369
0.04775,0.22625,0.08325,0.0103455,-0.0047150003,-0.0034484998,1741884972.771028
0.045,0.22675,0.095,0.009597749,-0.00453175,-0.0029755002,1741884972.785429
0.04375,0.2255,0.0965,0.006073,-0.00317375,-0.00149525,1741884972.799872
0.04175,0.22275,0.09325,0.0049742498,-0.0025940002,-0.0005035,1741884972.8142312
0.042,0.21975,0.09125,0.0046234997,-0.002411,0.000946,1741884972.8288362
0.039,0.2185,0.088,0.004486,-0.00225825,0.0013275,1741884972.842857
0.03825,0.21975,0.08775,0.0042572496,-0.00193775,0.001587,1741884972.858559
0.0395,0.2215,0.0885,0.00399775,-0.0013580001,0.0017852499,1741884972.871586
0.03925,0.22625,0.09275,0.00364675,-0.00154125,0.00160225,1741884972.885859
0.038,0.22775,0.09425,0.00320425,-0.00251775,0.000885,1741884972.9002109
0.03375,0.22575,0.09325,0.00308225,-0.0028535,0.000824,1741884972.914631
0.03275,0.2245,0.092,0.002411,-0.00364675,0.0017852499,1741884972.928876
0.0325,0.22125,0.08875,0.00184625,-0.00419625,0.00239575,1741884972.9432251
0.02925,0.221,0.08725,0.0003815,-0.005539,0.0027465,1741884972.95855
0.02675,0.224,0.087,-7.625e-05,-0.0064545004,0.00292975,1741884972.972043
0.02825,0.225,0.08925,-0.0002135,-0.007309,0.00331125,1741884972.9865549
0.0295,0.22725,0.09425,-0.000473,-0.007431,0.0034942501,1741884973.000958
0.03125,0.2315,0.11,-0.00096125,-0.00668325,0.00325,1741884973.015289
0.03125,0.23075,0.113,-0.0017395001,-0.00434875,0.0020905002,1741884973.02975
0.02875,0.228,0.10775,-0.001526,-0.0030975002,0.0014037499,1741884973.044223
0.028,0.22525,0.104,-0.0013275,-0.0013427499,0.00108325,1741884973.058638
0.029,0.22125,0.105,-0.0016175,-0.0007325,0.00137325,1741884973.073023
0.03025,0.2215,0.10925,-0.0017242499,3.0500001e-05,0.00149525,1741884973.089111
0.02875,0.22175,0.11,-0.0007325,0.0019989999,0.00027475,1741884973.101749
0.02675,0.22275,0.1075,-0.00019825,0.002655,-0.00093075,1741884973.116225
0.0305,0.226,0.111,-0.0003815,0.00419625,-0.00314325,1741884973.130701
0.03325,0.23,0.1075,-0.00065625,0.00555425,-0.0039825,1741884973.145102
0.03175,0.23175,0.1015,-0.0007935,0.00794975,-0.0056609996,1741884973.159561
0.0275,0.23325,0.091,-0.00080875,0.008514499,-0.0062255003,1741884973.17404
0.027,0.23225,0.087,-0.001114,0.00817875,-0.00593575,1741884973.189235
0.03,0.2285,0.081,-0.001526,0.00782775,-0.005249,1741884973.2028852
0.0325,0.2275,0.08,-0.0018005001,0.00788875,-0.0048674997,1741884973.218035
0.036,0.2265,0.07975,-0.00112925,0.008545,-0.0055085,1741884973.231641
0.03725,0.226,0.076,-0.00086975005,0.008224499,-0.006546,1741884973.246058
0.0385,0.22625,0.07675,-0.0003205,0.006607,-0.009842,1741884973.260421
0.043,0.23,0.087,0.00019825,0.00587475,-0.01127625,1741884973.2747898
0.04475,0.23275,0.091,0.001114,0.00491325,-0.01086425,1741884973.289154
0.055,0.2265,0.09475,0.00090025004,0.00466925,-0.009140001,1741884973.3034291
0.05975,0.22175,0.09525,0.000229,0.0050355,-0.00747675,1741884973.3179579
0.0635,0.2185,0.095,-0.0002595,0.00708,-0.0065155,1741884973.332033
0.06775,0.216,0.09175,-4.575e-05,0.00788875,-0.0068055,1741884973.346424
0.06775,0.217,0.091,0.0001525,0.00842275,-0.0065612504,1741884973.360738
0.06775,0.218,0.09125,0.00013725001,0.008194,-0.0059205,1741884973.37515
0.06625,0.2195,0.091,-0.00019825,0.00737,-0.0048217503,1741884973.3895319
0.07225,0.2235,0.09075,-0.00064075,0.00715625,-0.0043182503,1741884973.403988
0.074,0.22525,0.08925,-0.0015565,0.00738525,-0.0037385002,1741884973.418416
0.0735,0.22175,0.086,-0.0038299998,0.008606,-0.00267025,1741884973.432848
0.0755,0.2115,0.0815,-0.00411975,0.008926501,-0.00231925,1741884973.448541
0.07675,0.2115,0.07975,-0.0026092501,0.009277251,-0.00184625,1741884973.461653
0.077,0.2115,0.0795,-0.00175475,0.0093385,-0.001892,1741884973.476012
0.07825,0.213,0.08125,-0.001068,0.00918575,-0.0028074998,1741884973.4905019
0.076,0.225,0.08,-0.00096125,0.009292499,-0.0034942501,1741884973.504906
0.07525,0.227,0.079,-0.00010675,0.00897225,-0.0037995,1741884973.5192902
0.07925,0.21775,0.07025,0.00074775,0.00839225,-0.00358575,1741884973.5336268
0.08,0.2135,0.065,0.001526,0.008072,-0.00354,1741884973.547949
0.08,0.212,0.062,0.00239575,0.0078125,-0.0035095,1741884973.562151
0.079,0.2135,0.06125,0.0022735,0.0074004997,-0.003418,1741884973.576386
0.0815,0.216,0.066,0.0008545,0.00665275,-0.0036010002,1741884973.590663
0.08525,0.2195,0.07375,0.00045775,0.0067902496,-0.00364675,1741884973.605118
0.0855,0.219,0.07225,0.00109875,0.006836,-0.0037537501,1741884973.619424
0.08925,0.21875,0.06625,0.00148,0.0064545004,-0.00372325,1741884973.633779
0.09,0.2195,0.067,0.0016785001,0.0060577504,-0.0035095,1741884973.6486988
0.08925,0.22,0.0695,-7.625e-05,0.0064850003,-0.0028229998,1741884973.662549
0.08875,0.22025,0.06675,-0.00137325,0.0070037497,-0.00270075,1741884973.6787589
0.0895,0.21875,0.06325,-0.001831,0.0065155,-0.0022735,1741884973.691351
0.09075,0.215,0.0625,-0.0017242499,0.00561525,-0.00181575,1741884973.70579
0.08925,0.21275,0.06175,-0.002121,0.0031127501,-0.0017242499,1741884973.720221
0.08725,0.2125,0.05925,-0.0020905002,0.00131225,-0.00238025,1741884973.734627
0.0885,0.215,0.05925,-0.0015565,-0.00059500005,-0.0031889998,1741884973.749114
0.09,0.2165,0.061,-0.00029,-0.00308225,-0.00378425,1741884973.7636511
0.0965,0.21325,0.06725,-0.00024425,-0.00354,-0.0034484998,1741884973.77827
0.099,0.2125,0.07,-0.00119025,-0.00302125,-0.0020752498,1741884973.792625
0.09875,0.21225,0.0715,-0.00169375,-0.00225825,-0.001175,1741884973.808599
0.09775,0.2125,0.07075,-0.00175475,-0.0007935,0.00030525,1741884973.821492
0.0945,0.21025,0.06825,-0.0012817499,-0.000412,0.00065625,1741884973.835982
0.09425,0.20875,0.06775,-0.0002135,-0.00033575002,0.0005035,1741884973.850316
0.096,0.21175,0.07025,0.00010675,-0.00065625,0.00033575002,1741884973.864656
0.09775,0.2135,0.07325,0.00027475,-0.0009155,0.00024425,1741884973.878981
0.09925,0.213,0.0755,0.00027475,-0.00048825,0.00019825,1741884973.893267
0.09925,0.212,0.07475,0.00013725001,-1.5250001e-05,0.00036625,1741884973.90862
0.09825,0.212,0.073,-0.000534,0.000763,0.0011445,1741884973.921982
0.0955,0.21225,0.06875,-0.00102225,0.0008545,0.001587,1741884973.9362292
0.095,0.2135,0.068,-0.0016785001,0.00039675,0.0019225,1741884973.950531
0.096,0.21925,0.069,-0.00157175,0.00010675,0.00177,1741884973.964902
0.0965,0.21975,0.069,-0.0014495,-3.0500001e-05,0.00163275,1741884973.979229
0.09625,0.218,0.0685,-0.0019225,0.000183,0.00181575,1741884973.993551
0.09325,0.214,0.064,-0.002243,0.00029,0.0020905002,1741884974.008736
0.0925,0.2135,0.06175,-0.0028535,0.00033575002,0.0028687501,1741884974.02223
0.09325,0.216,0.065,-0.00317375,0.000412,0.00331125,1741884974.036556
0.09325,0.21625,0.06625,-0.003662,0.00074775,0.0045012496,1741884974.050828
0.09125,0.21775,0.06525,-0.00396725,0.0008545,0.0051880004,1741884974.065143
0.09025,0.2195,0.063,-0.004242,0.00096125,0.0057677496,1741884974.079422
0.0885,0.22275,0.05975,-0.004547,0.0013427499,0.00617975,1741884974.0937128
0.0825,0.23275,0.049,-0.0045012496,0.0014495,0.00567625,1741884974.108605
0.07875,0.2355,0.044,-0.0037385002,0.000885,0.00354,1741884974.1223738
0.076,0.23175,0.04275,-0.00314325,0.00010675,0.00238025,1741884974.136657
0.077,0.2275,0.04475,-0.0020295,-0.00148,0.0013885,1741884974.15102
0.081,0.2195,0.0515,-0.0019989999,-0.00204475,0.001709,1741884974.1654148
0.0835,0.21825,0.057,-0.0022277501,-0.00239575,0.0021972498,1741884974.1798341
0.08575,0.2185,0.06125,-0.00239575,-0.0022735,0.00263975,1741884974.194199
0.088,0.2155,0.067,-0.0024872501,-0.001953,0.0027465,1741884974.2086341
0.08775,0.21525,0.06725,-0.0030365,-0.001419,0.00393675,1741884974.223006
0.08725,0.21575,0.06475,-0.00340275,-0.001236,0.0049590003,1741884974.2392771
0.08575,0.21725,0.0635,-0.003891,-0.00070200005,0.0065917503,1741884974.2518048
0.08,0.22225,0.05925,-0.0039215,-0.0003205,0.0069274995,1741884974.266293
0.0775,0.22525,0.0575,-0.00396725,-3.0500001e-05,0.0070037497,1741884974.280618
0.07675,0.23075,0.05675,-0.0043639997,-7.625e-05,0.00691225,1741884974.2950091
0.076,0.23175,0.055,-0.004547,-1.5250001e-05,0.0067902496,1741884974.309393
0.0735,0.231,0.05175,-0.0049742498,0.000534,0.0065917503,1741884974.32372
0.0675,0.22775,0.0435,-0.0049742498,0.00054925,0.0062407497,1741884974.339214
0.06625,0.22825,0.0415,-0.0040587503,9.15e-05,0.0046234997,1741884974.352303
0.06675,0.22925,0.04375,-0.003296,-0.00016775,0.003952,1741884974.3679202
0.06675,0.22975,0.045,-0.0019225,-0.00074775,0.00305175,1741884974.381181
0.06675,0.23225,0.04875,-0.0016175,-0.000885,0.00270075,1741884974.395531
0.0675,0.2345,0.05,-0.00154125,-0.0008545,0.002411,1741884974.4098718
0.06725,0.2365,0.04925,-0.00125125,-0.00048825,0.001892,1741884974.424413
0.0645,0.23425,0.04375,-0.00096125,-0.00035100002,0.00157175,1741884974.439175
0.06325,0.2325,0.042,-0.0004425,-0.0003815,0.00093075,1741884974.453163
0.06325,0.2325,0.042,-0.00016775,-0.00042725,0.00068675,1741884974.467964
0.06375,0.23325,0.04325,0.00010675,-0.00051875,0.00039675,1741884974.481826
0.06325,0.23375,0.04525,0.00010675,-0.0005035,0.00035100002,1741884974.496139
0.06275,0.23325,0.045,6.1000002e-05,-0.0004425,0.00042725,1741884974.510387
0.0625,0.23275,0.04425,-9.15e-05,-0.00029,0.00068675,1741884974.5248058
0.06125,0.234,0.04175,-7.625e-05,-0.0002135,0.00071725,1741884974.539187
0.061,0.23375,0.04125,6.1000002e-05,-0.0003205,0.0007935,1741884974.553511
0.0625,0.23375,0.04225,1.5250001e-05,-0.00065625,0.00090025004,1741884974.568043
0.06275,0.23375,0.04325,-0.000183,-0.000885,0.001068,1741884974.582232
0.0625,0.23325,0.044,-0.00027475,-0.00086975005,0.00125125,1741884974.5965922
0.0615,0.232,0.04375,-0.00035100002,-0.0009155,0.001587,1741884974.61102
0.0605,0.23075,0.0435,-0.00048825,-0.0011445,0.0020599999,1741884974.625385
0.06,0.23,0.0425,-0.0003205,-0.00125125,0.0020295,1741884974.639804
0.05975,0.23,0.0415,0.00016775,-0.00163275,0.00193775,1741884974.654167
0.0585,0.2315,0.04175,0.00029,-0.00169375,0.0020752498,1741884974.668395
0.0585,0.232,0.04325,9.15e-05,-0.00175475,0.0025634998,1741884974.682713
0.0595,0.23275,0.04775,-1.5250001e-05,-0.0017395001,0.00267025,1741884974.6978629
0.0595,0.23375,0.04925,-4.575e-05,-0.00157175,0.0025787498,1741884974.71153
0.05825,0.23275,0.04775,-9.15e-05,-0.000946,0.0022277501,1741884974.725913
0.056,0.23225,0.04575,-9.15e-05,-0.00070200005,0.0021819999,1741884974.7402701
0.0535,0.23275,0.044,-1.5250001e-05,-0.00071725,0.0025634998,1741884974.7545831
0.05225,0.23225,0.0425,-4.575e-05,-0.0009765,0.002884,1741884974.768987
0.0525,0.2325,0.043,-0.00016775,-0.0012817499,0.0032347501,1741884974.7834089
0.05275,0.2345,0.046,-0.000229,-0.00115975,0.0032195,1741884974.79863
0.05275,0.236,0.04725,-9.15e-05,-0.00068675,0.00296025,1741884974.812177
0.0515,0.235,0.04575,4.575e-05,-0.0005645,0.0028535,1741884974.82636
0.0515,0.2335,0.04475,0.00013725001,-0.00054925,0.0028074998,1741884974.840651
0.0515,0.23325,0.04475,3.0500001e-05,-0.00068675,0.00305175,1741884974.8550699
0.051,0.23575,0.046,-6.1000002e-05,-0.00067150005,0.0032655,1741884974.869479
0.0505,0.23575,0.0465,-0.0003205,-0.000534,0.0035095,1741884974.883873
0.05075,0.23575,0.04825,-0.0004425,-0.0003815,0.00352475,1741884974.898299
0.05,0.2355,0.0485,-0.000473,0.000122000005,0.0033722501,1741884974.912629
0.04575,0.2365,0.0445,-0.00054925,0.00027475,0.00328075,1741884974.9281678
0.0445,0.237,0.04225,-0.0007325,0.00027475,0.00334175,1741884974.941181
0.0435,0.237,0.041,-0.0010375,-1.5250001e-05,0.0037385002,1741884974.9555771
0.042,0.239,0.04025,-0.0010375,-0.00024425,0.003891,1741884974.970001
0.042,0.23875,0.041,-0.0010375,-0.0005645,0.00413525,1741884974.984368
0.04175,0.2365,0.0435,-0.001175,-0.00061025,0.00411975,1741884974.998743
0.04125,0.237,0.04425,-0.001419,-0.00054925,0.0035704998,1741884975.01318
0.041,0.23625,0.043,-0.0012665,-0.000473,0.00320425,1741884975.028787
0.03975,0.23625,0.0415,-0.0009155,-0.0004425,0.0028074998,1741884975.042016
0.03875,0.2375,0.041,-0.00027475,-0.00051875,0.0021819999,1741884975.0581849
0.0375,0.237,0.04225,-0.0002135,-0.00061025,0.0021972498,1741884975.070812
0.0375,0.23575,0.043,-0.0004425,-0.00080875,0.0027312501,1741884975.0852091
0.03625,0.2365,0.04325,-0.000534,-0.000824,0.0029755002,1741884975.099597
0.03575,0.23825,0.04275,-0.00064075,-0.00065625,0.00331125,1741884975.114012
0.03525,0.23875,0.04275,-0.00070200005,-0.00051875,0.00340275,1741884975.1289148
0.035,0.238,0.04275,-0.000763,-0.0003205,0.0031889998,1741884975.142812
0.03325,0.23775,0.04175,-0.00070200005,-0.0003205,0.00289925,1741884975.158525
0.033,0.2375,0.04225,-0.00059500005,-0.0003205,0.00254825,1741884975.171583
0.0325,0.2385,0.0425,-0.000183,-0.0002595,0.00193775,1741884975.185972
0.031,0.2415,0.04225,-4.575e-05,-0.0002135,0.0018005001,1741884975.2003798
0.0305,0.241,0.042,-0.00024425,-0.0003205,0.00187675,1741884975.214803
0.02975,0.23825,0.0415,-0.00035100002,-0.0004425,0.00193775,1741884975.229177
0.02975,0.2385,0.041,-0.0002135,-0.000534,0.00177,1741884975.243592
0.02975,0.24075,0.04,-9.15e-05,-0.00045775,0.001648,1741884975.2585988
0.02925,0.24125,0.0395,-1.5250001e-05,-0.00036625,0.00157175,1741884975.272369
0.0285,0.24225,0.03975,1.5250001e-05,-0.00036625,0.00149525,1741884975.286703
0.02725,0.2425,0.04025,-9.15e-05,-0.0004425,0.0014495,1741884975.301166
0.02725,0.2415,0.04,-0.00033575002,-0.00057975,0.0016175,1741884975.315624
0.02575,0.24025,0.0385,-0.00035100002,-0.00071725,0.00190725,1741884975.3300009
0.02525,0.2395,0.03725,-0.0002595,-0.001175,0.00228875,1741884975.344378
0.0255,0.23975,0.0375,-0.000122000005,-0.0013275,0.00204475,1741884975.358793
0.02675,0.2395,0.04025,0.00013725001,-0.0012817499,0.00109875,1741884975.373034
0.027,0.24,0.04375,0.000122000005,-0.00108325,0.000763,1741884975.389067
0.026,0.23975,0.04325,4.575e-05,-0.00090025004,0.00070200005,1741884975.401689
0.02525,0.23875,0.042,-0.00016775,-0.000885,0.00109875,1741884975.416075
0.02575,0.238,0.04225,-0.0002135,-0.000946,0.00125125,1741884975.430518
0.02575,0.2395,0.043,-6.1000002e-05,-0.0009765,0.00154125,1741884975.445009
0.0255,0.23975,0.04425,-1.5250001e-05,-0.00102225,0.0017852499,1741884975.459362
0.02575,0.23925,0.044,-0.000183,-0.00090025004,0.002121,1741884975.473768
0.02475,0.2385,0.04175,-0.0002135,-0.00071725,0.00201425,1741884975.4890618
0.02375,0.23825,0.04025,-0.0001525,-0.000534,0.001709,1741884975.502559
0.02325,0.2385,0.03975,0.00016775,-0.0004425,0.00115975,1741884975.5178409
0.0225,0.24025,0.04125,0.00030525,-0.00045775,0.00105275,1741884975.5311968
0.022,0.242,0.04175,0.00010675,-0.00039675,0.00105275,1741884975.545517
0.021,0.24275,0.04225,-3.0500001e-05,-0.00035100002,0.000946,1741884975.5600052
0.02,0.242,0.04125,1.5250001e-05,-0.00036625,0.00074775,1741884975.574282
0.02,0.2405,0.04025,-3.0500001e-05,-0.00048825,0.00086975005,1741884975.589202
0.02075,0.24075,0.04075,-0.000122000005,-0.00057975,0.00109875,1741884975.60318
0.02075,0.24225,0.04125,-0.000122000005,-0.000534,0.001175,1741884975.618002
0.0185,0.24375,0.04025,-0.00013725001,-0.0004425,0.001068,1741884975.6319911
0.01775,0.24225,0.0395,-0.00036625,-0.00054925,0.0012665,1741884975.64638
0.0185,0.2385,0.04,-0.0004425,-0.00068675,0.00154125,1741884975.6608
0.019,0.23775,0.04075,-0.00027475,-0.0008545,0.001526,1741884975.675207
0.02,0.2375,0.04175,0.0,-0.000885,0.0013427499,1741884975.6893802
0.0195,0.23875,0.04225,0.00030525,-0.000824,0.00115975,1741884975.70368
0.018,0.24,0.0415,0.00067150005,-0.000946,0.001236,1741884975.71804
0.01825,0.2405,0.04175,0.00062550005,-0.001068,0.00137325,1741884975.73229
0.01925,0.24175,0.043,0.00057975,-0.00090025004,0.00108325,1741884975.7465699
0.018,0.243,0.0425,0.00067150005,-0.00062550005,0.000763,1741884975.761034
0.0155,0.24325,0.041,0.000412,-0.00019825,0.000534,1741884975.7753012
0.01425,0.2415,0.04025,3.0500001e-05,-0.00035100002,0.00083925005,1741884975.7896268
0.01425,0.2405,0.04,-0.00045775,-0.00064075,0.0013427499,1741884975.8039901
0.01475,0.23975,0.03925,-0.0011445,-0.00112925,0.002411,1741884975.818374
0.01575,0.24125,0.03925,-0.0012055,-0.00119025,0.00254825,1741884975.832808
0.0165,0.24325,0.04,-0.0009155,-0.00096125,0.00216675,1741884975.848535
0.016,0.24175,0.04075,-0.0008545,-0.000885,0.0020295,1741884975.8616152
0.01475,0.24025,0.0405,-0.00109875,-0.00086975005,0.00201425,1741884975.875968
0.0145,0.2405,0.04175,-0.0013275,-0.000946,0.00216675,1741884975.890384
0.0155,0.24125,0.04325,-0.00157175,-0.001114,0.0023497501,1741884975.904795
0.01525,0.24175,0.042,-0.00148,-0.001007,0.0020905002,1741884975.919174
0.01375,0.2415,0.0395,-0.00137325,-0.000824,0.00169375,1741884975.933586
0.0115,0.24225,0.03725,-0.00119025,-0.00059500005,0.0011445,1741884975.94843
0.01025,0.24225,0.036,-0.0012817499,-0.00086975005,0.001419,1741884975.962374
0.0105,0.24075,0.036,-0.00175475,-0.0018005001,0.0023345,1741884975.976794
0.00975,0.23875,0.037,-0.0018615,-0.00204475,0.002365,1741884975.991189
0.0095,0.23925,0.0375,-0.0015565,-0.00193775,0.0019989999,1741884976.005596
0.00775,0.24225,0.0375,-0.0013275,-0.0017852499,0.00187675,1741884976.019983
0.0085,0.2435,0.0375,-0.0012665,-0.001709,0.00198375,1741884976.0343192
0.00925,0.24425,0.03675,-0.0015105,-0.00177,0.0023039998,1741884976.048727
0.0055,0.2435,0.03475,-0.0014037499,-0.00177,0.0022125002,1741884976.063122
0.004,0.24275,0.033,-0.000473,-0.002121,0.00184625,1741884976.078648
0.0045,0.24125,0.032,0.000473,-0.0024872501,0.0014495,1741884976.091895
0.00575,0.2385,0.03475,0.00204475,-0.002777,0.00010675,1741884976.1061919
0.00625,0.2355,0.0365,0.0023497501,-0.002533,-0.000412,1741884976.1206021
0.00575,0.237,0.037,0.0024872501,-0.0019225,-0.001007,1741884976.134969
0.00725,0.24025,0.039,0.0021972498,-0.0017852499,-0.00077825,1741884976.1493928
0.007,0.23975,0.03925,0.001648,-0.00187675,-0.00029,1741884976.1637871
0.0065,0.239,0.0395,0.00061025,-0.0021819999,0.00048825,1741884976.178119
0.006,0.24225,0.041,0.00024425,-0.0020295,0.00071725,1741884976.192418
0.00475,0.24375,0.0415,-0.00042725,-0.00131225,0.00096125,1741884976.2067788
0.00325,0.2445,0.041,-0.00086975005,-0.00109875,0.00112925,1741884976.221188
0.0025,0.24625,0.03975,-0.001709,-0.00115975,0.00163275,1741884976.23557
0.0035,0.24525,0.03725,-0.0020905002,-0.0014495,0.00198375,1741884976.249983
0.005,0.244,0.03675,-0.002365,-0.001831,0.0022735,1741884976.264367
0.0045,0.2445,0.037,-0.002472,-0.001892,0.0021515,1741884976.2787788
0.00225,0.24275,0.0375,-0.0025940002,-0.0016785001,0.00201425,1741884976.293168
0.00175,0.24125,0.037,-0.0032195,-0.00148,0.00187675,1741884976.308554
0.001,0.24125,0.035,-0.0035704998,-0.00149525,0.0016632499,1741884976.3219929
0.001,0.24275,0.03375,-0.00402825,-0.0013580001,0.001114,1741884976.3363929
-0.0,0.24275,0.03025,-0.0040587503,-0.00119025,0.00093075,1741884976.3508658
-0.00075,0.24175,0.02925,-0.00393675,-0.001114,0.000885,1741884976.365367
-0.001,0.2395,0.02975,-0.0039825,-0.0012665,0.00090025004,1741884976.379873
0.00025,0.23975,0.03,-0.004242,-0.0013885,0.00083925005,1741884976.394272
0.00075,0.241,0.02825,-0.004074,-0.001068,0.00035100002,1741884976.4086862
0.00225,0.243,0.02475,-0.00372325,-0.000534,-1.5250001e-05,1741884976.423263
0.00175,0.2435,0.02175,-0.004013,0.00065625,-0.00074775,1741884976.439042
-0.00025,0.2425,0.01875,-0.00444025,0.001114,-0.001007,1741884976.4521291
-0.00125,0.24325,0.018,-0.0034790002,0.00137325,-0.00112925,1741884976.467815
-0.0015,0.2435,0.01875,-0.00254825,0.00119025,-0.00099175,1741884976.4811049
0.00025,0.2425,0.02075,-0.00204475,0.0008545,-0.0007935,1741884976.4955
0.002,0.244,0.02275,-0.0023497501,0.00024425,-0.00051875,1741884976.509866
0.00275,0.24475,0.0235,-0.0026245,-3.0500001e-05,-0.0005645,1741884976.524501
0.0035,0.24575,0.02375,-0.002777,-0.00013725001,-0.00086975005,1741884976.5390022
0.00125,0.24675,0.022,-0.00296025,-4.575e-05,-0.00080875,1741884976.553482
0.00125,0.24525,0.02,-0.00352475,-0.00070200005,0.0003205,1741884976.5678349
0.00125,0.24175,0.01625,-0.0037079998,-0.0014495,0.000946,1741884976.582166
0.00175,0.24175,0.01575,-0.003891,-0.0020905002,0.001526,1741884976.597812
0.002,0.243,0.017,-0.00396725,-0.0019989999,0.001419,1741884976.611093
0.002,0.243,0.017,-0.0040435,-0.00190725,0.00115975,1741884976.625507
0.00275,0.24275,0.017,-0.0041810004,-0.00204475,0.00096125,1741884976.639858
0.0025,0.242,0.01625,-0.0039825,-0.00198375,0.00102225,1741884976.6542
0.001,0.24125,0.015,-0.003662,-0.0016632499,0.001419,1741884976.6686468
0.00025,0.2435,0.01425,-0.0038605002,-0.0017242499,0.001709,1741884976.68312
0.00025,0.24575,0.015,-0.004837,-0.00181575,0.002365,1741884976.698515
-0.0,0.246,0.01475,-0.0055237496,-0.001709,0.00270075,1741884976.7119548
-0.0,0.24425,0.0125,-0.006363,-0.0015565,0.00305175,1741884976.726497
-0.0025,0.24225,0.006,-0.0061645,-0.0014037499,0.0029145,1741884976.740992
-0.00475,0.24275,0.0025,-0.00564575,-0.00109875,0.0026245,1741884976.755575
-0.00725,0.24325,-0.001,-0.00437925,-0.00096125,0.0021515,1741884976.77015
-0.0125,0.24675,-0.008,-0.0037537501,-0.0013427499,0.00198375,1741884976.784713
-0.013,0.24675,-0.00825,-0.003296,-0.0026092501,0.0018005001,1741884976.7992792
-0.01075,0.24675,-0.007,-0.0031889998,-0.0030365,0.0017852499,1741884976.813977
-0.0105,0.24725,-0.00625,-0.00292975,-0.00355525,0.0015105,1741884976.828822
-0.008,0.24675,0.00125,-0.00305175,-0.0037995,0.00108325,1741884976.843062
-0.0065,0.247,0.003,-0.0031127501,-0.0037385002,0.0,1741884976.858606
-0.00875,0.245,-0.001,-0.00296025,-0.00372325,-0.0002135,1741884976.872258
-0.009,0.2445,-0.003,-0.0028074998,-0.0041810004,0.00035100002,1741884976.8870678
-0.00925,0.24775,-0.0045,-0.0028074998,-0.004242,0.00070200005,1741884976.901639
-0.00875,0.24825,-0.00325,-0.00279225,-0.0041810004,0.000824,1741884976.916285
-0.0085,0.24775,-0.00275,-0.002411,-0.00402825,0.00054925,1741884976.930864
-0.00875,0.2445,-0.0045,-0.002243,-0.0039825,0.00039675,1741884976.945584
-0.0075,0.24225,-0.00425,-0.0022125002,-0.003769,0.00057975,1741884976.9601269
-0.0085,0.2415,-0.007,-0.001892,-0.0034942501,0.0007325,1741884976.974698
-0.01025,0.24275,-0.01,-0.00057975,-0.0031585,0.00062550005,1741884976.989247
-0.0115,0.2455,-0.01275,1.5250001e-05,-0.00328075,0.00027475,1741884977.0037498
-0.011,0.24475,-0.011,-4.575e-05,-0.0033570002,-6.1000002e-05,1741884977.0184839
-0.009,0.24575,-0.006,-0.0005645,-0.00320425,0.000122000005,1741884977.033064
-0.00925,0.246,-0.005,-0.00137325,-0.00263975,0.00035100002,1741884977.048529
-0.00875,0.24275,-0.006,-0.00146475,-0.00238025,0.00029,1741884977.0622442
-0.00975,0.242,-0.00825,-0.0014037499,-0.002121,0.0002595,1741884977.078681
-0.01125,0.24225,-0.01025,-0.00157175,-0.001953,0.00029,1741884977.091561
-0.011,0.24225,-0.01,-0.00198375,-0.00213625,0.000229,1741884977.1061492
-0.0095,0.2435,-0.01025,-0.0027160002,-0.00251775,0.00013725001,1741884977.1207712
-0.00925,0.24425,-0.01175,-0.00263975,-0.00254825,0.00010675,1741884977.135385
-0.00875,0.24475,-0.012,-0.0023345,-0.0021515,-7.625e-05,1741884977.150013
-0.00925,0.24525,-0.0115,-0.00267025,-0.00181575,-9.15e-05,1741884977.1646342
-0.0095,0.24325,-0.0105,-0.0043335,-0.0015565,0.00029,1741884977.179262
-0.009,0.24025,-0.0115,-0.0049590003,-0.0016785001,0.00064075,1741884977.193973
-0.00975,0.2425,-0.01475,-0.005066,-0.001953,0.000763,1741884977.2085261
-0.0115,0.2465,-0.01975,-0.0050355,-0.00216675,0.00035100002,1741884977.223041
-0.00975,0.24525,-0.0195,-0.0058287503,-0.0030669998,-0.0005035,1741884977.2390342
-0.006,0.24325,-0.01725,-0.0058287503,-0.00317375,-0.00067150005,1741884977.252478
-0.00575,0.2425,-0.018,-0.0052795,-0.00296025,-0.0007325,1741884977.267817
-0.006,0.24275,-0.02025,-0.00331125,-0.00231925,-0.001007,1741884977.2817621
-0.00725,0.2435,-0.02575,-0.0020905002,-0.0020599999,-0.00112925,1741884977.297633
-0.008,0.24525,-0.02675,0.00019825,-0.00169375,-0.0014495,1741884977.311084
-0.0075,0.247,-0.02375,0.000885,-0.00154125,-0.001648,1741884977.325678
-0.00625,0.24475,-0.0205,0.00102225,-0.0013580001,-0.0017242499,1741884977.340225
-0.00775,0.24475,-0.0195,0.0007935,-0.0012970001,-0.001587,1741884977.354771
-0.01,0.2445,-0.022,-0.00054925,-0.00184625,-0.0011445,1741884977.3693461
-0.00575,0.23925,-0.0205,-0.0013427499,-0.00231925,-0.0009155,1741884977.384035
-0.004,0.237,-0.01975,-0.00112925,-0.0023345,-0.00070200005,1741884977.398761
-0.004,0.238,-0.02125,-0.00051875,-0.0020295,-0.0007325,1741884977.413497
-0.00475,0.2405,-0.0225,0.000473,-0.001587,-0.00068675,1741884977.428519
-0.008,0.24475,-0.02575,0.0005645,-0.001648,-0.00067150005,1741884977.442672
-0.008,0.24475,-0.026,0.00035100002,-0.00193775,-0.00067150005,1741884977.458039
-0.00725,0.2435,-0.02525,-0.000122000005,-0.002472,-0.00042725,1741884977.471942
-0.004,0.24125,-0.02325,-0.00013725001,-0.002655,-0.00019825,1741884977.486638
-0.00375,0.24225,-0.023,0.00027475,-0.00251775,9.15e-05,1741884977.5011818
-0.004,0.2445,-0.0235,0.00048825,-0.0022735,0.00016775,1741884977.515657
-0.004,0.244,-0.024,0.0004425,-0.0023345,0.0002595,1741884977.530199
-0.003,0.24275,-0.02475,0.000412,-0.0027160002,0.0003205,1741884977.544816
-0.00275,0.24225,-0.0235,0.00057975,-0.0035095,0.0002135,1741884977.559278
-0.0005,0.24375,-0.01875,0.00067150005,-0.0036010002,6.1000002e-05,1741884977.5739782
-0.001,0.2445,-0.01875,0.00061025,-0.003128,-0.0001525,1741884977.5894022
-0.002,0.24475,-0.01975,0.0003815,-0.00292975,-0.000183,1741884977.603255
-0.0015,0.2445,-0.0195,0.00010675,-0.00279225,-0.000122000005,1741884977.618029
-0.001,0.2445,-0.01925,-0.00024425,-0.002365,0.00030525,1741884977.632494
-0.0025,0.246,-0.02225,-0.00029,-0.0020752498,0.0003815,1741884977.64707
-0.003,0.2465,-0.0235,-0.0004425,-0.00181575,0.000229,1741884977.661673
-0.00275,0.24525,-0.0235,-0.00068675,-0.001831,9.15e-05,1741884977.67621
-0.002,0.24375,-0.02225,-0.00125125,-0.0021972498,-0.00027475,1741884977.6909308
-0.001,0.24125,-0.0215,-0.0012055,-0.002243,-0.00039675,1741884977.705699
-0.0025,0.24075,-0.02275,-0.00093075,-0.0023039998,-0.00042725,1741884977.720304
-0.004,0.24375,-0.025,-0.001175,-0.002884,-0.00059500005,1741884977.734942
-0.00325,0.24425,-0.02425,-0.0016175,-0.0038605002,-0.000946,1741884977.749666
-0.00175,0.24525,-0.02375,-0.001587,-0.00378425,-0.00108325,1741884977.764415
-0.002,0.245,-0.0245,-0.00154125,-0.0031127501,-0.00137325,1741884977.779042
-0.001,0.24,-0.024,-0.0017395001,-0.0028687501,-0.0014495,1741884977.793716
0.0005,0.23875,-0.02375,-0.0019225,-0.00267025,-0.0013427499,1741884977.808522
0.001,0.23775,-0.02325,-0.0013580001,-0.0019685,-0.00061025,1741884977.8228538
0.0,0.2395,-0.022,-0.00077825,-0.001419,-0.00027475,1741884977.839067
-0.00025,0.242,-0.02125,0.000122000005,-0.0003205,-6.1000002e-05,1741884977.8521512
-0.0025,0.24475,-0.02375,0.00036625,6.1000002e-05,-0.00024425,1741884977.8678558
-0.0035,0.24225,-0.02575,0.00027475,6.1000002e-05,-0.00080875,1741884977.881174
-0.002,0.2405,-0.0265,0.0002595,-9.15e-05,-0.001007,1741884977.89567
-0.0005,0.24375,-0.0255,0.00102225,4.575e-05,-0.00137325,1741884977.910128
-0.0005,0.2465,-0.0225,0.00149525,0.00033575002,-0.0016785001,1741884977.924576
-0.0015,0.24625,-0.022,0.00149525,0.00102225,-0.002533,1741884977.939183
0.00025,0.2435,-0.02175,0.0012665,0.0013427499,-0.002884,1741884977.953557
0.00075,0.2435,-0.022,0.0013427499,0.0016785001,-0.0031889998,1741884977.967965
0.00075,0.244,-0.02375,0.00228875,0.00289925,-0.00334175,1741884977.9823701
0.00325,0.24375,-0.02225,0.00279225,0.00369275,-0.00314325,1741884977.996778
0.004,0.244,-0.02075,0.00343325,0.0047302498,-0.0031127501,1741884978.011154
0.00525,0.24475,-0.021,0.00354,0.0049285004,-0.0033570002,1741884978.025568
0.0055,0.244,-0.0225,0.0034942501,0.0055237496,-0.0037385002,1741884978.04005
0.00525,0.24225,-0.023,0.0034942501,0.00593575,-0.00378425,1741884978.054456
0.0055,0.24175,-0.0215,0.0034484998,0.0061035,-0.0036010002,1741884978.0688288
0.006,0.24275,-0.0205,0.0028535,0.0053405,-0.00245675,1741884978.0832
0.0075,0.246,-0.018,0.002411,0.0045625,-0.0020599999,1741884978.097897
0.0085,0.2465,-0.01725,0.001709,0.0035095,-0.0021972498,1741884978.111926
0.01125,0.247,-0.01675,0.0017242499,0.003418,-0.0025787498,1741884978.126365
0.013,0.246,-0.01575,0.002365,0.00399775,-0.0033722501,1741884978.140793
0.01625,0.24575,-0.01075,0.00270075,0.00444025,-0.003769,1741884978.155155
0.0145,0.2455,-0.00925,0.0030975002,0.0051574996,-0.00428775,1741884978.169576
0.01025,0.247,-0.012,0.0029145,0.0049285004,-0.00411975,1741884978.184009
0.01075,0.248,-0.01425,0.00245675,0.00428775,-0.0038605002,1741884978.198557
0.01275,0.24625,-0.01475,0.0012665,0.00296025,-0.00317375,1741884978.2128582
0.01675,0.242,-0.0125,0.000946,0.0027465,-0.00276175,1741884978.228297
0.01825,0.2425,-0.011,0.0014037499,0.0033875,-0.002777,1741884978.241618
0.02225,0.24725,-0.00675,0.0020599999,0.0041504996,-0.00328075,1741884978.2560818
0.02225,0.2475,-0.00775,0.00440975,0.006302,-0.0049895,1741884978.2707388
0.01525,0.24125,-0.01475,0.005249,0.00688175,-0.0055237496,1741884978.285116
0.01425,0.23925,-0.01725,0.00517275,0.0065765,-0.0053405,1741884978.2995641
0.0185,0.23525,-0.01575,0.00396725,0.00453175,-0.0041044997,1741884978.3139641
0.0225,0.23575,-0.0105,0.00378425,0.003891,-0.0036315,1741884978.328935
0.02525,0.2385,-0.005,0.0045777503,0.004547,-0.00358575,1741884978.342973
0.02825,0.248,0.004,0.0049742498,0.0055695,-0.0040435,1741884978.358732
0.028,0.2485,0.005,0.004776,0.0072785,-0.0045777503,1741884978.37159
0.026,0.246,-0.00025,0.0041810004,0.007599,-0.00408925,1741884978.386225
0.02425,0.24425,-0.003,0.00289925,0.007904,-0.0028687501,1741884978.400626
0.02225,0.242,-0.005,0.00242625,0.0077515002,-0.0023039998,1741884978.415041
0.0225,0.24025,-0.00675,0.002121,0.0073395,-0.00181575,1741884978.42958
0.02275,0.239,-0.0085,0.0019225,0.005783,-0.00146475,1741884978.444036
0.0265,0.24,-0.00675,0.00198375,0.00485225,-0.0015565,1741884978.458464
0.02875,0.24175,-0.00325,0.002411,0.0041044997,-0.00181575,1741884978.472975
0.031,0.2445,0.00225,0.0025634998,0.00444025,-0.00198375,1741884978.489357
0.02975,0.245,0.00125,0.0022125002,0.0052642496,-0.002121,1741884978.5015209
0.02825,0.2455,-0.00125,0.00177,0.0054475004,-0.00177,1741884978.5159528
0.02925,0.243,-0.001,0.000763,0.005066,-9.15e-05,1741884978.5303922
0.0305,0.2355,-0.00175,0.00068675,0.0048674997,0.00070200005,1741884978.5448499
0.03125,0.233,-0.0005,0.0009765,0.0047912505,0.00105275,1741884978.559121
0.0335,0.23525,0.00275,0.0025025,0.0051880004,0.0003815,1741884978.573355
0.03425,0.24525,0.00725,0.0035095,0.00631725,-0.00029,1741884978.589488
0.0305,0.245,0.005,0.0043182503,0.0075225,-0.00148,1741884978.602206
0.02275,0.24375,-0.0045,0.003952,0.00717175,-0.001648,1741884978.6178849
0.023,0.2465,-0.00625,0.002533,0.0059967497,-0.00077825,1741884978.631011
0.026,0.247,-0.00325,0.0021972498,0.0052642496,-0.0003205,1741884978.645577
0.0265,0.2445,-0.00325,0.0024872501,0.0047455,-6.1000002e-05,1741884978.660021
0.0255,0.2415,-0.004,0.00384525,0.00453175,0.00019825,1741884978.674478
0.02625,0.2395,0.0015,0.0041044997,0.0045777503,0.00051875,1741884978.689004
0.02775,0.24225,0.006,0.003952,0.0049285004,0.0009765,1741884978.7029
0.02525,0.24375,0.006,0.0038757501,0.0048979996,0.00068675,1741884978.7179
0.02325,0.242,0.00375,0.0037537501,0.0033722501,-0.00019825,1741884978.731586
0.02475,0.24225,0.0055,0.003769,0.00270075,-0.00039675,1741884978.745968
0.02625,0.24375,0.00825,0.0037385002,0.002365,-0.00042725,1741884978.76021
0.028,0.2445,0.011,0.003418,0.0022735,-0.00051875,1741884978.774521
0.03,0.24275,0.014,0.0033722501,0.002472,-0.00070200005,1741884978.7890408
0.03,0.2405,0.01375,0.00354,0.00292975,-0.000824,1741884978.803193
0.02525,0.237,0.01075,0.00354,0.0028687501,-0.00068675,1741884978.818036
0.02375,0.23525,0.01075,0.0033722501,0.0016785001,-0.00035100002,1741884978.831928
0.026,0.236,0.01675,0.0037079998,0.0008545,-0.0002135,1741884978.8462489
0.029,0.2375,0.0185,0.00444025,0.00016775,3.0500001e-05,1741884978.8605561
0.03125,0.24025,0.019,0.0061339997,-0.0001525,0.0,1741884978.874905
0.029,0.25325,0.01725,0.0065002497,0.0002135,-0.00059500005,1741884978.8892128
0.0295,0.257,0.01825,0.00561525,0.00051875,-0.0026092501,1741884978.90363
0.03125,0.25125,0.01975,0.0049285004,0.00062550005,-0.0037385002,1741884978.917973
0.03125,0.246,0.0195,0.003952,0.0005035,-0.00541675,1741884978.932238
0.03175,0.2385,0.01675,0.0037995,0.00061025,-0.0054932497,1741884978.9465878
0.032,0.2365,0.018,0.0034790002,0.00068675,-0.00485225,1741884978.960982
0.035,0.2375,0.023,0.00245675,0.00067150005,-0.00317375,1741884978.9754329
0.036,0.2385,0.024,0.0023497501,0.0007325,-0.0031585,1741884978.98975
0.03775,0.24025,0.02525,0.00225825,0.0003205,-0.004303,1741884979.004094
0.039,0.2415,0.02575,0.00201425,4.575e-05,-0.004776,1741884979.018429
0.03775,0.23825,0.024,0.000885,-0.00061025,-0.0045777503,1741884979.032834
0.03875,0.23375,0.0235,0.0004425,-0.001007,-0.00416575,1741884979.048748
0.0405,0.23425,0.0245,-1.5250001e-05,-0.0012055,-0.0035704998,1741884979.061758
0.04325,0.23875,0.02475,0.0001525,-0.000946,-0.0031889998,1741884979.076098
0.04425,0.23975,0.025,0.00071725,-0.00057975,-0.0028229998,1741884979.0904992
0.0445,0.23925,0.0255,0.00137325,-0.0003205,-0.0024872501,1741884979.1049159
0.04425,0.24025,0.025,0.0013275,-0.000412,-0.002533,1741884979.1193118
0.04575,0.24075,0.02625,0.00102225,-0.00067150005,-0.00279225,1741884979.1337411
0.04775,0.2385,0.03075,0.0009155,-0.00061025,-0.0027160002,1741884979.148445
0.04675,0.2365,0.03025,0.0007935,-0.000229,-0.0024414998,1741884979.162549
0.046,0.236,0.03,0.00074775,-0.00019825,-0.002411,1741884979.178895
0.048,0.239,0.031,0.0007935,-0.000229,-0.00245675,1741884979.191564
0.0495,0.24225,0.03025,0.001175,-0.000122000005,-0.00292975,1741884979.206014
0.0495,0.2405,0.03,0.00108325,-0.00010675,-0.0030975002,1741884979.2205179
0.04975,0.237,0.02975,0.0005035,7.625e-05,-0.00296025,1741884979.234946
0.04925,0.23275,0.02925,0.00045775,0.000229,-0.0028074998,1741884979.2493591
0.05175,0.23625,0.03125,0.001007,0.00083925005,-0.002533,1741884979.263947
0.0555,0.24475,0.037,0.0014495,0.0014037499,-0.00263975,1741884979.278465
0.05325,0.2425,0.03675,0.0021819999,0.002411,-0.00334175,1741884979.292578
0.05275,0.237,0.0335,0.0021972498,0.00238025,-0.00354,1741884979.308667
0.056,0.23825,0.03375,0.00204475,0.00225825,-0.00354,1741884979.3212311
0.05775,0.239,0.03325,0.00177,0.0028229998,-0.0033570002,1741884979.335525
0.0545,0.23275,0.02725,0.0015105,0.0032655,-0.0032347501,1741884979.349938
0.05375,0.22925,0.02525,0.00077825,0.003769,-0.00187675,1741884979.364237
0.0525,0.23,0.023,0.00077825,0.0037995,-0.00093075,1741884979.3785222
0.05125,0.22975,0.02175,0.00096125,0.00369275,0.00027475,1741884979.3929331
0.0515,0.2335,0.022,0.0011445,0.00372325,0.00048825,1741884979.4083798
0.052,0.23625,0.02375,0.0013580001,0.0036010002,0.00064075,1741884979.421304
0.0535,0.23825,0.02675,0.001236,0.0029449998,0.0015105,1741884979.435817
0.05675,0.23925,0.0325,0.00108325,0.002884,0.0019989999,1741884979.450049
0.05675,0.24075,0.0345,0.00074775,0.00384525,0.0023039998,1741884979.464255
0.0545,0.23775,0.03575,0.00039675,0.0044555003,0.00231925,1741884979.478869
0.0535,0.23275,0.0345,0.00029,0.0057677496,0.0028074998,1741884979.4926562
0.05475,0.22775,0.031,0.0007935,0.0062712496,0.0035095,1741884979.506887
0.05525,0.2305,0.03125,0.0013580001,0.00631725,0.00437925,1741884979.521065
0.0565,0.23625,0.033,0.001953,0.0054780003,0.00535575,1741884979.535519
0.055,0.2455,0.03325,0.0023497501,0.0049742498,0.005249,1741884979.5498
0.047,0.24475,0.031,0.00283825,0.00399775,0.003952,1741884979.5641239
0.041,0.236,0.026,0.0026245,0.003296,0.00289925,1741884979.57869
0.0425,0.2345,0.02625,0.0028535,0.00109875,0.001587,1741884979.592652
0.046,0.2345,0.03,0.00331125,0.00039675,0.00157175,1741884979.6068952
0.0465,0.2365,0.0325,0.0035095,7.625e-05,0.00169375,1741884979.621118
0.047,0.23825,0.0345,0.00289925,-0.0002135,0.00148,1741884979.635419
0.04675,0.237,0.035,0.002365,-0.00030525,0.0012970001,1741884979.649864
0.0465,0.2365,0.0335,0.0021819999,-0.0005035,0.000824,1741884979.6642392
0.04525,0.23375,0.03225,0.002533,-0.0007935,0.000473,1741884979.678685
0.04525,0.2335,0.03275,0.0029755002,-0.0014037499,0.000473,1741884979.692924
0.04775,0.24075,0.03875,0.0028535,-0.0014037499,0.00080875,1741884979.7085388
0.049,0.2425,0.043,0.00251775,-0.00119025,0.00109875,1741884979.721511
0.04825,0.241,0.04425,0.00193775,-0.0005035,0.001007,1741884979.7359629
0.045,0.2365,0.039,0.0018615,-0.00027475,0.00065625,1741884979.750222
0.0435,0.2365,0.037,0.00154125,-0.00033575002,0.0005035,1741884979.764555
0.045,0.23725,0.03775,0.0012970001,-0.000534,0.00083925005,1741884979.7788951
0.04625,0.23825,0.039,0.00086975005,-0.00068675,0.0012665,1741884979.7932029
0.0465,0.24,0.042,0.00051875,-0.000534,0.0014037499,1741884979.808637
0.04575,0.24125,0.04225,6.1000002e-05,-0.0002595,0.00169375,1741884979.8221319
0.04425,0.24125,0.04075,-0.00051875,0.00027475,0.00254825,1741884979.836446
0.0435,0.2405,0.03975,-0.00067150005,0.00045775,0.00296025,1741884979.850842
0.042,0.2395,0.0395,-0.00067150005,0.00074775,0.0031127501,1741884979.865124
0.04025,0.239,0.0385,-0.00064075,0.00070200005,0.003128,1741884979.879461
0.04175,0.23825,0.03975,-0.00057975,0.00061025,0.0034942501,1741884979.89375
0.04,0.23675,0.038,-0.00083925005,0.00065625,0.0037079998,1741884979.90861
0.0385,0.239,0.038,-0.00137325,0.00059500005,0.00390625,1741884979.922461
0.038,0.242,0.039,-0.00204475,0.000122000005,0.0038757501,1741884979.936844
0.0355,0.241,0.03825,-0.0019989999,0.00013725001,0.0039825,1741884979.951235
0.03225,0.2385,0.03575,-0.00190725,0.000534,0.0052337497,1741884979.965558
0.0295,0.2385,0.032,-0.0020905002,0.00067150005,0.00611875,1741884979.979954
0.02725,0.23825,0.0285,-0.0032655,-0.00016775,0.007019,1741884979.994354
0.02425,0.23725,0.0265,-0.00453175,-0.0013885,0.00720225,1741884980.008739
0.02775,0.23875,0.03125,-0.00543225,-0.00238025,0.007187,1741884980.02312
0.0305,0.2395,0.03375,-0.00453175,-0.0023039998,0.0065917503,1741884980.039124
0.0275,0.2395,0.03325,-0.0035704998,-0.0019225,0.0062407497,1741884980.052026
0.0265,0.24,0.03425,-0.00245675,-0.0012055,0.006073,1741884980.066447
0.0245,0.24075,0.03375,-0.0024414998,-0.00077825,0.0067445002,1741884980.080843
0.024,0.24075,0.0315,-0.0035095,9.15e-05,0.009796251,1741884980.095181
0.02225,0.2445,0.029,-0.00444025,9.15e-05,0.011078,1741884980.1094348
0.019,0.2445,0.0275,-0.0047150003,-0.0015105,0.01020825,1741884980.1238248
0.01475,0.24175,0.02575,-0.00419625,-0.0023345,0.00845325,1741884980.138967
0.0145,0.24075,0.026,-0.0033875,-0.0025940002,0.006546,1741884980.1526499
0.01425,0.24075,0.02725,-0.00175475,-0.00193775,0.0038757501,1741884980.167936
0.00875,0.2425,0.02625,-0.0012207499,-0.00169375,0.0033570002,1741884980.181448
0.00525,0.2425,0.024,-0.00105275,-0.00228875,0.003128,1741884980.195806
0.00675,0.2415,0.023,-0.0013427499,-0.00276175,0.0033264998,1741884980.210187
0.00725,0.241,0.02325,-0.0012207499,-0.00320425,0.0032347501,1741884980.2244868
0.00525,0.2405,0.02275,-0.00096125,-0.0031585,0.0028687501,1741884980.239232
0.00375,0.2395,0.0225,-0.00086975005,-0.00308225,0.00245675,1741884980.253231
0.00275,0.2385,0.02275,-0.000534,-0.0032655,0.00109875,1741884980.267901
0.0025,0.24,0.025,-0.00029,-0.0032195,0.00039675,1741884980.282024
0.002,0.24275,0.025,-0.00010675,-0.0030669998,-0.0005035,1741884980.2965162
0.0015,0.2445,0.0225,-0.0004425,-0.0032655,-0.00065625,1741884980.3110888
0.00325,0.243,0.02225,-0.0012055,-0.00393675,-0.00027475,1741884980.325533
0.003,0.2405,0.02225,-0.0012817499,-0.00434875,-0.00033575002,1741884980.340097
0.00275,0.23875,0.023,-0.001587,-0.00538625,-0.00157175,1741884980.354632
0.00525,0.24175,0.02475,-0.00181575,-0.0058287503,-0.002365,1741884980.369086
0.0075,0.24425,0.0255,-0.00177,-0.00590525,-0.0028535,1741884980.3834848
0.00825,0.2455,0.0255,-0.0013885,-0.00514225,-0.0020295,1741884980.398669
0.00775,0.24675,0.02425,-0.001526,-0.0048217503,-0.00102225,1741884980.412544
0.00775,0.249,0.02375,-0.0018615,-0.00437925,0.00033575002,1741884980.428658
0.0065,0.25175,0.02225,-0.00177,-0.0039825,0.00045775,1741884980.441421
0.0055,0.251,0.02225,-0.0018005001,-0.002884,0.0003815,1741884980.455911
0.00625,0.246,0.0215,-0.001892,-0.0025025,0.00059500005,1741884980.47023
0.005,0.2445,0.0195,-0.00169375,-0.0021972498,0.0013275,1741884980.484521
0.00275,0.243,0.01725,-0.0013885,-0.0022735,0.00169375,1741884980.49901
0.00375,0.2415,0.01775,-0.00109875,-0.0026092501,0.0020752498,1741884980.5134442
0.00475,0.2405,0.0195,-0.00019825,-0.00320425,0.0019989999,1741884980.528681
0.005,0.24125,0.02275,0.00030525,-0.00328075,0.00143425,1741884980.542204
0.0045,0.24225,0.02275,0.00109875,-0.00334175,-3.0500001e-05,1741884980.556627
0.00425,0.2435,0.01975,0.0009765,-0.003128,-0.0002595,1741884980.571041
0.0045,0.24125,0.01825,-0.0003205,-0.0020905002,0.00096125,1741884980.5854368
0.0035,0.244,0.01525,-0.000763,-0.0018005001,0.00131225,1741884980.599892
0.0015,0.243,0.015,-0.00083925005,-0.00187675,0.0012970001,1741884980.6142201
0.00175,0.24225,0.016,-0.00112925,-0.0022125002,0.00228875,1741884980.62863
0.00275,0.243,0.0175,-0.0014037499,-0.0020905002,0.0028535,1741884980.643039
0.00225,0.243,0.01675,-0.00146475,-0.00181575,0.0025634998,1741884980.658113
0.00175,0.242,0.0155,-0.001236,-0.0017395001,0.00198375,1741884980.671783
0.0015,0.2415,0.01525,-0.00039675,-0.0013580001,0.0007325,1741884980.68622
-0.001,0.24275,0.01625,-0.00013725001,-0.001068,0.0003205,1741884980.70072
-0.00275,0.24325,0.0165,-0.0003205,-0.0012665,0.00027475,1741884980.715192
-0.00075,0.243,0.01725,-0.00057975,-0.00169375,0.00059500005,1741884980.729711
0.0005,0.243,0.01725,-0.0007325,-0.0020295,0.00083925005,1741884980.744142
-0.00025,0.24275,0.01675,-0.0012207499,-0.0023039998,0.0009765,1741884980.758743
-0.0045,0.24475,0.0145,-0.001526,-0.0024414998,0.00090025004,1741884980.773098
-0.004,0.243,0.01375,-0.00146475,-0.002655,0.000412,1741884980.7891462
-0.00325,0.243,0.01375,-0.00143425,-0.0030975002,0.000122000005,1741884980.80209
-0.00125,0.243,0.013,-0.001068,-0.0041504996,-0.00024425,1741884980.81664
0.00025,0.24225,0.013,-0.000763,-0.00453175,-0.0002135,1741884980.831104
-0.00125,0.2455,0.0145,-0.000534,-0.0043639997,-0.00033575002,1741884980.845653
-0.0025,0.24925,0.015,-0.00059500005,-0.0037385002,-0.0003815,1741884980.8602061
-0.00425,0.24875,0.01425,-0.00083925005,-0.0034942501,-6.1000002e-05,1741884980.8747892
-0.00425,0.2475,0.013,-0.00096125,-0.0042115003,0.00086975005,1741884980.889347
-0.0015,0.245,0.01325,-0.00071725,-0.00428775,0.00105275,1741884980.903784
-0.00325,0.2455,0.013,-0.000473,-0.0041044997,0.00054925,1741884980.9183402
-0.0035,0.248,0.01275,-0.00042725,-0.004242,9.15e-05,1741884980.932821
-0.00225,0.25025,0.014,6.1000002e-05,-0.0042267498,-0.000473,1741884980.948597
-0.00075,0.247,0.01575,-6.1000002e-05,-0.0041504996,-0.0003205,1741884980.961927
-0.0025,0.247,0.01725,-0.00067150005,-0.00384525,0.0002595,1741884980.9780438
-0.00275,0.24325,0.01475,-0.00057975,-0.0032195,0.00030525,1741884980.991107
-0.004,0.24425,0.01375,-0.00057975,-0.0028687501,0.00042725,1741884981.005621
-0.00125,0.2415,0.01425,-0.000946,-0.00276175,0.0009155,1741884981.020202
-0.00025,0.23975,0.01425,-0.00096125,-0.00254825,0.00105275,1741884981.034732
-0.00125,0.23925,0.01375,-0.000473,-0.00213625,0.001236,1741884981.0492458
-0.0025,0.2425,0.012,-0.00019825,-0.002121,0.0012207499,1741884981.063752
-0.00275,0.24375,0.011,0.00065625,-0.00242625,0.00065625,1741884981.078732
-0.0045,0.2455,0.01025,0.001068,-0.0026245,0.00033575002,1741884981.0926468
-0.00425,0.2445,0.01,0.000824,-0.00289925,0.00036625,1741884981.108516
-0.004,0.24475,0.01325,0.000412,-0.0030669998,0.00054925,1741884981.121418
-0.0045,0.2445,0.01475,0.00016775,-0.00308225,0.00062550005,1741884981.1358132
-0.00425,0.24225,0.01325,0.0002135,-0.0027160002,0.0007325,1741884981.1502059
-0.0055,0.24225,0.011,0.00033575002,-0.0025634998,0.00086975005,1741884981.164626
-0.00625,0.243,0.00925,0.00064075,-0.0025025,0.0009765,1741884981.179008
-0.007,0.24525,0.0105,0.0008545,-0.0027465,0.00086975005,1741884981.193451
-0.0075,0.24625,0.0125,0.00125125,-0.003296,0.00051875,1741884981.208461
-0.006,0.246,0.01625,0.0012055,-0.0032655,0.0003205,1741884981.222181
-0.006,0.24475,0.01675,0.00083925005,-0.002777,0.000183,1741884981.236686
-0.0065,0.24325,0.014,0.0005645,-0.002655,0.0003815,1741884981.251219
-0.006,0.243,0.0135,0.00036625,-0.002655,0.000534,1741884981.265712
-0.00625,0.24275,0.01425,0.0005035,-0.00263975,0.00042725,1741884981.280194
-0.008,0.2435,0.0135,0.0007325,-0.0026245,0.00024425,1741884981.294642
-0.00925,0.2455,0.01425,0.0012207499,-0.0029907501,-0.00016775,1741884981.309115
-0.00825,0.249,0.01625,0.001236,-0.00308225,-0.0003815,1741884981.323641
-0.0065,0.2475,0.01725,0.00080875,-0.0031127501,-0.00067150005,1741884981.339115
-0.006,0.24275,0.0175,0.00067150005,-0.0029755002,-0.00057975,1741884981.3526242
-0.0065,0.2425,0.01725,0.0005035,-0.002533,-9.15e-05,1741884981.367842
-0.007,0.24225,0.01625,0.00045775,-0.0023497501,0.0001525,1741884981.3814359
-0.00775,0.2415,0.0145,0.000473,-0.00225825,0.0003205,1741884981.3958862
-0.008,0.24125,0.01375,0.000473,-0.002777,0.00030525,1741884981.4102242
-0.00725,0.24325,0.01575,0.00045775,-0.0031127501,0.00019825,1741884981.424714
-0.0075,0.24375,0.01675,0.000473,-0.0027465,0.0001525,1741884981.439116
-0.0075,0.24575,0.0155,0.0005035,-0.0025025,0.000183,1741884981.45349
-0.007,0.24525,0.015,0.000473,-0.002365,0.0001525,1741884981.4679198
-0.00725,0.24075,0.01425,0.00035100002,-0.0023039998,0.000183,1741884981.482332
-0.00825,0.242,0.01475,0.000229,-0.0022277501,0.00027475,1741884981.496707
-0.008,0.24625,0.01675,0.000229,-0.0019225,0.00024425,1741884981.511114
-0.0085,0.2475,0.0165,0.00030525,-0.001648,-4.575e-05,1741884981.525629
-0.0095,0.24825,0.01525,0.00019825,-0.0012817499,-0.00096125,1741884981.54009
-0.00775,0.24725,0.016,-6.1000002e-05,-0.00131225,-0.0012970001,1741884981.554698
-0.006,0.24575,0.01825,-0.00016775,-0.00105275,-0.001526,1741884981.5693061
-0.006,0.245,0.01725,-0.00016775,-0.00071725,-0.001587,1741884981.583885
-0.008,0.246,0.0155,-0.00086975005,-0.00077825,-0.0016632499,1741884981.5985548
-0.00775,0.24475,0.01575,-0.0012207499,-0.0012665,-0.0014037499,1741884981.6129768
-0.0055,0.24275,0.01775,-0.00090025004,-0.00160225,-0.00068675,1741884981.628607
-0.00275,0.24125,0.02125,-0.00065625,-0.00131225,-0.0005035,1741884981.642189
-0.003,0.241,0.0215,-0.00054925,-0.00090025004,-0.00051875,1741884981.6567879
-0.0035,0.2425,0.02075,-0.00035100002,-0.00024425,-0.00096125,1741884981.671413
-0.003,0.24475,0.01825,-0.00030525,0.0,-0.0012817499,1741884981.685911
-0.0025,0.24275,0.016,-0.00067150005,0.0004425,-0.0018005001,1741884981.7005131
-0.002,0.24225,0.012,-0.00080875,0.00057975,-0.0020752498,1741884981.715185
-0.00275,0.243,0.0115,-0.00074775,0.00045775,-0.0028687501,1741884981.729727
-0.00325,0.244,0.012,-0.00068675,0.00024425,-0.0031585,1741884981.744355
-0.00225,0.24475,0.0125,-0.00086975005,0.000122000005,-0.0032347501,1741884981.758805
-0.0005,0.2435,0.01225,-0.001114,0.0002595,-0.0031127501,1741884981.77331
-0.0005,0.24275,0.011,-0.0011445,0.00029,-0.00328075,1741884981.789098
0.002,0.2375,0.009,-0.00086975005,6.1000002e-05,-0.00352475,1741884981.802191
0.00325,0.235,0.00875,-0.0005645,-0.00027475,-0.00384525,1741884981.817808
0.0025,0.237,0.0095,3.0500001e-05,-0.0012970001,-0.0047455,1741884981.8310971
0.00125,0.24425,0.01075,0.00030525,-0.001587,-0.005005,1741884981.845463
0.0025,0.245,0.01175,0.00065625,-0.00204475,-0.0048674997,1741884981.860013
0.0055,0.24575,0.01525,0.00099175,-0.00213625,-0.0047302498,1741884981.874432
0.008,0.24575,0.0165,0.00154125,-0.001419,-0.00408925,1741884981.889045
0.012,0.246,0.0185,0.00157175,-0.0007935,-0.00358575,1741884981.903195
0.01225,0.246,0.01825,0.00148,-0.00013725001,-0.0031127501,1741884981.917824
0.0115,0.24375,0.01625,0.00093075,0.0007325,-0.0025025,1741884981.931867
0.01125,0.244,0.016,0.00064075,0.0009155,-0.0023497501,1741884981.9463308
0.01175,0.2445,0.016,0.0005035,0.00109875,-0.00213625,1741884981.960641
0.012,0.24425,0.01625,0.0004425,0.00112925,-0.00177,1741884981.9749088
0.0115,0.24575,0.0155,0.00033575002,0.000946,-0.000946,1741884981.989388
0.01325,0.2475,0.01525,0.0002595,0.00071725,-0.000885,1741884982.003605
0.01425,0.2465,0.0155,0.00062550005,0.0007325,-0.0013580001,1741884982.0180202
0.014,0.2445,0.016,0.00086975005,0.0009155,-0.00160225,1741884982.032174
0.0135,0.24375,0.0165,0.00102225,0.00102225,-0.0017395001,1741884982.046509
0.0125,0.2455,0.01625,0.001114,0.0007935,-0.001709,1741884982.060927
0.01375,0.247,0.01725,0.00090025004,0.0005035,-0.0013580001,1741884982.0751529
0.01525,0.244,0.018,7.625e-05,9.15e-05,-0.0003815,1741884982.089482
0.0155,0.24525,0.01675,0.00010675,0.0002135,-0.000183,1741884982.1038778
0.01525,0.249,0.01675,0.0004425,0.00059500005,-0.00065625,1741884982.118173
0.01575,0.24875,0.0185,0.00035100002,0.00057975,-0.001068,1741884982.132494
0.0155,0.2455,0.019,0.0002595,0.00061025,-0.00137325,1741884982.147968
0.0145,0.24325,0.01825,7.625e-05,0.00067150005,-0.00146475,1741884982.161206
0.014,0.24275,0.01575,0.0,0.00059500005,-0.00137325,1741884982.1754858
0.0145,0.24275,0.015,0.000412,0.0003205,-0.00169375,1741884982.189843
0.01375,0.24475,0.0115,0.00068675,0.000122000005,-0.0020599999,1741884982.2041202
0.0135,0.246,0.01,0.000946,-0.00059500005,-0.00314325,1741884982.218387
0.01675,0.244,0.014,0.0008545,-0.001007,-0.00354,1741884982.23279
0.019,0.241,0.017,0.00080875,-0.00125125,-0.003769,1741884982.248487
0.02025,0.23825,0.01875,0.00119025,-0.001175,-0.0037079998,1741884982.2616022
0.022,0.23425,0.0205,0.0012207499,-0.00109875,-0.0033570002,1741884982.276011
0.02075,0.23575,0.01975,0.00062550005,-0.0011445,-0.00270075,1741884982.290394
0.01925,0.242,0.01675,0.00042725,-0.0012970001,-0.002884,1741884982.3050408
0.02125,0.24225,0.019,0.00067150005,-0.00213625,-0.00352475,1741884982.319267
0.02525,0.241,0.023,0.001068,-0.0021057501,-0.003296,1741884982.333718
0.025,0.24225,0.0225,0.00125125,-0.0018005001,-0.002777,1741884982.3489192
0.02475,0.2435,0.02175,0.00054925,-0.0012207499,-0.0018615,1741884982.362614
0.02625,0.24175,0.0225,6.1000002e-05,-0.001114,-0.0016175,1741884982.3782651
0.02675,0.24075,0.02275,-0.00019825,-0.00068675,-0.001236,1741884982.391506
0.02375,0.242,0.01925,-7.625e-05,-0.0003815,-0.00102225,1741884982.406101
0.02325,0.2425,0.018,-7.625e-05,-0.000183,-0.00068675,1741884982.420594
0.02475,0.2425,0.02025,-6.1000002e-05,-0.00035100002,-0.000534,1741884982.435091
0.026,0.24225,0.0205,-3.0500001e-05,-0.0003205,-0.00029,1741884982.4496078
0.02675,0.242,0.02025,-1.5250001e-05,-0.0001525,-0.00030525,1741884982.464046
0.0265,0.24225,0.02,-4.575e-05,-1.5250001e-05,-0.00039675,1741884982.478637
0.02625,0.24225,0.01925,-0.0001525,6.1000002e-05,-0.00068675,1741884982.493023
0.02575,0.24025,0.018,-6.1000002e-05,4.575e-05,-0.0009155,1741884982.5084648
0.02575,0.2395,0.01775,0.00042725,6.1000002e-05,-0.0012665,1741884982.5216708
0.02525,0.238,0.0165,0.000534,4.575e-05,-0.00131225,1741884982.536022
0.02525,0.239,0.01575,6.1000002e-05,-0.00019825,-0.00131225,1741884982.550409
0.0275,0.24075,0.0195,-0.00019825,-0.00030525,-0.00112925,1741884982.56497
0.02725,0.24125,0.02,-0.000183,-0.00016775,-0.00061025,1741884982.5795069
0.02675,0.24475,0.0195,-6.1000002e-05,-0.00010675,-0.00064075,1741884982.593982
0.02725,0.2455,0.02025,3.0500001e-05,-1.5250001e-05,-0.0007935,1741884982.608693
0.02725,0.2455,0.0205,0.00029,0.00010675,-0.0010375,1741884982.6230478
0.027,0.2475,0.02075,0.000412,7.625e-05,-0.001236,1741884982.637303
0.02775,0.2465,0.02175,0.00042725,-0.00019825,-0.0016785001,1741884982.651673
0.02825,0.2465,0.0225,0.000473,-0.00035100002,-0.0018615,1741884982.666141
0.0285,0.24575,0.02275,0.0004425,-0.00059500005,-0.001587,1741884982.6805918
0.03,0.24225,0.02275,0.0003205,-0.00064075,-0.0012055,1741884982.6949801
0.0305,0.24225,0.02325,0.00035100002,-0.0005035,-0.00102225,1741884982.709425
0.0315,0.243,0.025,0.00090025004,4.575e-05,-0.0013427499,1741884982.723684
0.0315,0.2435,0.024,0.0010375,0.00024425,-0.0015105,1741884982.737982
0.031,0.244,0.02275,0.00048825,0.00068675,-0.0013427499,1741884982.752299
0.032,0.2415,0.02175,3.0500001e-05,0.0007935,-0.0009155,1741884982.768043
0.032,0.23975,0.02,-0.00033575002,0.000824,0.0,1741884982.7808971
0.03075,0.24075,0.01675,-0.0002595,0.00083925005,0.000229,1741884982.7952561
0.03175,0.2395,0.01725,-0.00024425,0.00083925005,0.00048825,1741884982.809471
0.03325,0.23725,0.019,-0.00030525,0.000824,0.0010375,1741884982.823908
0.034,0.23575,0.02,-0.0002135,0.00099175,0.0012207499,1741884982.839734
0.0325,0.23725,0.018,-0.00016775,0.0013275,0.00154125,1741884982.852576
0.03225,0.24025,0.01725,-0.00027475,0.0012970001,0.00157175,1741884982.868238
0.03375,0.2395,0.02,-0.00054925,0.0012055,0.00146475,1741884982.881252
0.03425,0.2385,0.023,-0.00061025,0.00143425,0.0014495,1741884982.895493
0.03225,0.23725,0.02225,-0.00086975005,0.00187675,0.00115975,1741884982.909781
0.028,0.23425,0.0195,-0.00115975,0.00184625,0.00096125,1741884982.924103
0.0275,0.23325,0.0175,-0.0013275,0.0017242499,0.00093075,1741884982.939345
0.027,0.2325,0.0155,-0.00109875,0.0013885,0.0016175,1741884982.9528692
0.02525,0.243,0.01175,-0.00105275,0.001236,0.001892,1741884982.9680839
0.025,0.24875,0.011,-0.0009765,0.0009765,0.00146475,1741884982.981431
0.02375,0.25175,0.0085,-0.0009765,0.0007935,0.00108325,1741884982.99591
0.02325,0.25125,0.0085,-0.00109875,-3.0500001e-05,0.00039675,1741884983.01031
0.0255,0.25,0.0135,-0.00105275,-0.00036625,0.00024425,1741884983.0247061
0.0255,0.25275,0.015,-0.00093075,-0.0004425,0.000229,1741884983.03917
0.025,0.25725,0.01575,-0.00080875,-0.00030525,-9.15e-05,1741884983.053667
0.02625,0.26075,0.017,-0.00080875,-0.00030525,-0.0004425,1741884983.068375
0.0265,0.26,0.0165,-0.00067150005,-0.0003205,-0.001236,1741884983.082779
0.02775,0.2555,0.019,-0.0007935,-0.00039675,-0.00154125,1741884983.0986292
0.029,0.25175,0.022,-0.0013427499,-0.0003205,-0.00169375,1741884983.111758
0.029,0.2455,0.0245,-0.0013427499,-0.00016775,-0.0017242499,1741884983.126356
0.029,0.24225,0.0235,-0.00119025,-0.000122000005,-0.0015105,1741884983.140912
0.0305,0.23725,0.023,-0.0013427499,-0.00010675,-0.00115975,1741884983.1552808
0.03125,0.236,0.02325,-0.00157175,6.1000002e-05,-0.00068675,1741884983.169696
0.03175,0.235,0.0235,-0.00181575,0.0007325,-4.575e-05,1741884983.184146
0.0305,0.234,0.02025,-0.0017395001,0.00109875,6.1000002e-05,1741884983.198675
0.028,0.233,0.01675,-0.0012665,0.00148,0.00016775,1741884983.212901
0.0245,0.229,0.0095,-0.00109875,0.0013427499,0.000473,1741884983.228102
0.0245,0.2275,0.00825,-0.00096125,0.00068675,0.0013580001,1741884983.241419
0.02625,0.23,0.0095,-0.0007935,0.000473,0.00154125,1741884983.255688
0.02675,0.23025,0.01,-0.00062550005,0.000473,0.00163275,1741884983.270037
0.02625,0.23,0.0095,-0.00035100002,0.000946,0.0016785001,1741884983.284582
0.0245,0.233,0.00875,-9.15e-05,0.001236,0.0016632499,1741884983.2988212
0.02375,0.235,0.008,0.00065625,0.0015565,0.00175475,1741884983.312997
0.02425,0.23475,0.00875,0.00077825,0.00154125,0.0020752498,1741884983.328224
0.025,0.2345,0.01125,0.00065625,0.00163275,0.003006,1741884983.3414972
0.0255,0.23525,0.0145,0.0007935,0.0020295,0.0033570002,1741884983.355778
0.02475,0.2375,0.01425,0.00102225,0.0026245,0.0035704998,1741884983.369956
0.02425,0.23875,0.01425,0.0014495,0.0034942501,0.00328075,1741884983.3842912
0.02325,0.239,0.01425,0.001526,0.0036315,0.0028074998,1741884983.398804
0.0245,0.2395,0.0145,0.00115975,0.00367725,0.002243,1741884983.412898
0.02425,0.24275,0.01475,0.0009155,0.00384525,0.0026245,1741884983.428758
0.02275,0.24125,0.01425,0.0001525,0.0041504996,0.0040587503,1741884983.441522
0.02125,0.2375,0.014,-0.0004425,0.00402825,0.0047455,1741884983.4559119
0.02125,0.2405,0.0135,-0.0007325,0.00384525,0.005066,1741884983.47024
0.02125,0.24375,0.01325,-0.000229,0.003418,0.0042115003,1741884983.484737
0.021,0.243,0.01425,4.575e-05,0.0030975002,0.0035095,1741884983.499
0.0215,0.24375,0.01525,0.00039675,0.0023039998,0.0026092501,1741884983.513161
0.0215,0.25075,0.0165,0.00071725,0.0020295,0.002121,1741884983.5287192
0.02075,0.25475,0.0165,0.00177,0.00160225,0.000534,1741884983.5417569
0.0185,0.26075,0.01325,0.0022277501,0.0013580001,-0.00029,1741884983.556072
0.01675,0.2645,0.011,0.0024414998,0.0010375,-0.000885,1741884983.5703628
0.015,0.26775,0.0095,0.00228875,0.00033575002,-0.001648,1741884983.58466
0.01425,0.267,0.00975,0.001892,0.0,-0.0017852499,1741884983.5989819
0.0145,0.2635,0.0115,0.0010375,-4.575e-05,-0.00184625,1741884983.6134772
0.01625,0.25675,0.01675,0.0007935,3.0500001e-05,-0.00187675,1741884983.628766
0.01725,0.2535,0.01925,0.00061025,0.00033575002,-0.0023345,1741884983.6420548
0.018,0.246,0.02075,0.00065625,0.0005035,-0.002777,1741884983.656492
0.0185,0.24125,0.02075,0.00074775,0.00048825,-0.00317375,1741884983.670841
0.01875,0.23675,0.02025,0.00115975,0.0003815,-0.00352475,1741884983.68525
0.01825,0.23325,0.01775,0.0015565,0.000473,-0.0035095,1741884983.6995862
0.019,0.23225,0.01675,0.00213625,0.00059500005,-0.0031585,1741884983.7138371
0.02125,0.22675,0.018,0.0022125002,0.000473,-0.0029145,1741884983.728665
0.02125,0.22475,0.01875,0.00242625,0.00062550005,-0.002243,1741884983.742595
0.02275,0.22625,0.02125,0.0025025,0.0009155,-0.00177,1741884983.758549
0.02275,0.22825,0.02225,0.0025025,0.001175,-0.0012207499,1741884983.771355
0.022,0.2305,0.022,0.00242625,0.0013580001,-0.0003815,1741884983.7856388
0.022,0.23575,0.02,0.0024414998,0.0014037499,-0.000229,1741884983.799901
0.02225,0.2395,0.01925,0.0023039998,0.001419,-4.575e-05,1741884983.814226
0.02225,0.25175,0.01975,0.00225825,0.00146475,-9.15e-05,1741884983.828935
0.022,0.2575,0.02025,0.0021515,0.00154125,-0.00036625,1741884983.842901
0.02225,0.259,0.01925,0.001953,0.0012970001,-0.00051875,1741884983.858201
0.0225,0.25875,0.0185,0.00169375,0.001068,-0.0007325,1741884983.8716118
0.02325,0.258,0.019,0.00115975,0.0007935,-0.00137325,1741884983.885858
0.02625,0.2545,0.0235,0.0009155,0.00068675,-0.00177,1741884983.900067
0.027,0.25175,0.02575,0.00062550005,0.00059500005,-0.002533,1741884983.9144168
0.028,0.2455,0.028,0.00061025,0.00067150005,-0.0027312501,1741884983.928776
0.0285,0.24225,0.028,0.00051875,0.00077825,-0.00267025,1741884983.943027
0.03075,0.23425,0.029,0.00036625,0.00074775,-0.0025787498,1741884983.9587789
0.031,0.23125,0.02825,0.00033575002,0.0007935,-0.00239575,1741884983.9715872
0.02975,0.2295,0.0265,0.00035100002,0.00105275,-0.0017395001,1741884983.985868
0.02875,0.22325,0.02325,0.00030525,0.00119025,-0.00125125,1741884984.000031
0.02775,0.22125,0.021,0.00048825,0.00115975,-0.00029,1741884984.014622
0.02575,0.21725,0.01925,0.00062550005,0.0007935,0.00013725001,1741884984.0288498
0.02625,0.218,0.0205,0.00102225,0.0004425,0.0012665,1741884984.0429409
0.02775,0.22775,0.02325,0.001236,0.0005645,0.00175475,1741884984.058193
0.02775,0.2325,0.02375,0.00131225,0.00067150005,0.0021057501,1741884984.071371
0.0275,0.2365,0.024,0.0012055,0.00080875,0.002411,1741884984.0856588
0.0275,0.2445,0.02375,0.0012207499,0.0009155,0.0024872501,1741884984.099946
0.02775,0.25025,0.02375,0.0012207499,0.001068,0.002365,1741884984.1142259
0.0285,0.25675,0.02675,0.001068,0.00108325,0.0021515,1741884984.128861
0.02925,0.2575,0.02875,0.00039675,0.00112925,0.001831,1741884984.142747
0.029,0.2595,0.03025,7.625e-05,0.00137325,0.0016632499,1741884984.158879
0.02775,0.25925,0.0295,-7.625e-05,0.0017242499,0.0013427499,1741884984.171312
0.02575,0.25725,0.02825,-9.15e-05,0.00190725,0.00027475,1741884984.185772
0.02375,0.25325,0.0275,-6.1000002e-05,0.00177,-0.0002595,1741884984.200161
0.023,0.2515,0.0275,4.575e-05,0.001526,-0.00105275,1741884984.2144709
0.022,0.25325,0.0255,0.000122000005,0.001419,-0.00146475,1741884984.229043
0.022,0.253,0.0255,-0.000183,0.0012207499,-0.00201425,1741884984.243136
0.022,0.24725,0.02625,-0.0005035,0.0012970001,-0.00204475,1741884984.258649
0.02125,0.24475,0.02575,-0.00068675,0.00146475,-0.0020905002,1741884984.2719061
0.01975,0.2455,0.0235,-0.00061025,0.0016632499,-0.0022277501,1741884984.286185
0.0165,0.25075,0.01775,-0.000412,0.00146475,-0.0023345,1741884984.30058
0.01725,0.248,0.01675,-0.00019825,0.00035100002,-0.0025787498,1741884984.31498
0.01925,0.2355,0.01975,-0.000122000005,-9.15e-05,-0.002655,1741884984.329706
0.02075,0.22875,0.02275,9.15e-05,-0.00057975,-0.0021819999,1741884984.3441331
0.02625,0.21925,0.0305,0.000229,-0.00062550005,-0.0017395001,1741884984.358859
0.027,0.2145,0.0315,0.00054925,-0.00059500005,-0.00137325,1741884984.3732219
0.02775,0.209,0.03075,0.001175,-0.000473,-0.0005035,1741884984.38966
0.02925,0.211,0.03,0.0013275,-0.000412,0.000122000005,1741884984.402099
0.02925,0.21425,0.02925,0.0016632499,-0.0004425,0.00149525,1741884984.416393
0.0295,0.222,0.027,0.001831,-0.000473,0.00204475,1741884984.430685
0.0285,0.22725,0.025,0.00204475,-0.00035100002,0.0028687501,1741884984.445024
0.0255,0.24375,0.023,0.00184625,-0.0003205,0.0032347501,1741884984.459481
0.026,0.2525,0.0235,0.0013885,-6.1000002e-05,0.0031585,1741884984.4738932
0.02625,0.266,0.02225,0.0012665,0.0,0.00276175,1741884984.4880588
0.0255,0.26925,0.022,0.00112925,-0.00013725001,0.002243,1741884984.502353
0.026,0.271,0.0235,0.00080875,-0.00051875,0.00096125,1741884984.5181499
0.03,0.26975,0.0285,0.00061025,-0.000534,0.00030525,1741884984.531245
0.031,0.266,0.03025,0.00010675,-0.00048825,-0.0007935,1741884984.545695
0.0315,0.257,0.033,-9.15e-05,-0.00039675,-0.0012817499,1741884984.560297
0.03175,0.253,0.03375,-0.00039675,-0.00013725001,-0.00187675,1741884984.574764
0.0325,0.24625,0.034,-0.00064075,-3.0500001e-05,-0.00193775,1741884984.58965
0.03275,0.24175,0.0345,-0.00093075,7.625e-05,-0.00187675,1741884984.603752
0.032,0.235,0.0325,-0.0010375,0.00036625,-0.0017852499,1741884984.618439
0.0315,0.233,0.03075,-0.00086975005,0.00051875,-0.00177,1741884984.632579
0.031,0.231,0.02925,-0.00074775,0.00068675,-0.00143425,1741884984.6470149
0.029,0.2305,0.02575,-0.00065625,0.00070200005,-0.0012207499,1741884984.661497
0.02925,0.2315,0.02475,-0.00054925,0.00067150005,-0.0007325,1741884984.6758862
0.02825,0.22975,0.023,-0.00061025,0.00064075,-0.00035100002,1741884984.690291
0.02725,0.231,0.02225,-0.0004425,0.00042725,0.00033575002,1741884984.704563
0.02775,0.23725,0.02375,-0.0002595,0.00030525,0.00048825,1741884984.7187881
0.028,0.23975,0.025,-0.000122000005,0.000229,0.000534,1741884984.733075
0.02775,0.2415,0.02575,1.5250001e-05,0.00013725001,0.0004425,1741884984.748493
0.02675,0.2425,0.02575,3.0500001e-05,9.15e-05,0.00039675,1741884984.761564
0.02625,0.2425,0.026,-0.00010675,1.5250001e-05,0.000412,1741884984.7758589
0.027,0.24175,0.02775,-0.00019825,-3.0500001e-05,0.00042725,1741884984.790154
0.02775,0.24225,0.02825,-0.0001525,-0.00010675,0.00048825,1741884984.804668
0.02875,0.24475,0.0305,-3.0500001e-05,-0.0001525,0.00042725,1741884984.8190951
0.0295,0.2455,0.0315,6.1000002e-05,-0.0001525,0.0002595,1741884984.8335621
0.03025,0.245,0.032,-7.625e-05,6.1000002e-05,-1.5250001e-05,1741884984.848651
0.03025,0.2425,0.03025,-0.00019825,0.0002135,-0.000122000005,1741884984.862444
0.0295,0.241,0.0285,-0.000229,0.0003815,-0.0002135,1741884984.8785129
0.02875,0.2395,0.02625,-0.000229,0.00036625,-0.00016775,1741884984.8911831
0.029,0.24,0.026,3.0500001e-05,0.000183,-0.0003205,1741884984.905567
0.02875,0.242,0.026,0.0002595,0.00016775,-0.000473,1741884984.919765
0.02775,0.2415,0.02525,0.00036625,0.00016775,-0.00061025,1741884984.934032
0.02775,0.2405,0.0245,0.000229,0.000122000005,-0.000534,1741884984.948846
0.0295,0.2405,0.0245,0.0002595,0.000122000005,-0.0004425,1741884984.9627452
0.0295,0.24,0.02575,0.00057975,0.0001525,-0.0007325,1741884984.978264
0.02925,0.23975,0.02725,0.00065625,7.625e-05,-0.0008545,1741884984.991381
0.029,0.2405,0.02675,0.0005035,9.15e-05,-0.00064075,1741884985.0057752
0.0285,0.24125,0.0265,0.000534,0.0001525,-0.0005645,1741884985.020044
0.02875,0.242,0.028,0.00074775,0.00030525,-0.00061025,1741884985.034359
0.02925,0.244,0.02975,0.001007,0.00065625,-0.00068675,1741884985.049004
0.03025,0.2435,0.0305,0.00090025004,0.00064075,-0.00054925,1741884985.0630348
0.02975,0.241,0.0295,0.00083925005,0.00061025,-0.00054925,1741884985.078815
0.028,0.24025,0.0275,0.0009765,0.00080875,-0.0007935,1741884985.0917041
0.0275,0.24075,0.026,0.00086975005,0.001007,-0.0013580001,1741884985.1060748
0.028,0.23975,0.02425,0.00065625,0.0008545,-0.0014037499,1741884985.120448
0.0285,0.23925,0.02425,0.00061025,0.00029,-0.0012970001,1741884985.1348102
0.03075,0.2385,0.026,0.00080875,9.15e-05,-0.0013427499,1741884985.149089
0.03175,0.23825,0.02725,0.00093075,0.0,-0.00131225,1741884985.16333
0.032,0.2375,0.02875,0.00077825,-1.5250001e-05,-0.00090025004,1741884985.178852
0.0325,0.238,0.03075,0.0005645,-4.575e-05,-0.00064075,1741884985.192141
0.0335,0.24025,0.03275,0.0004425,0.0002135,-0.0003815,1741884985.206547
0.031,0.241,0.0315,0.00042725,0.00033575002,-0.00048825,1741884985.220926
0.031,0.24075,0.02975,-0.00030525,-0.000122000005,-0.0007935,1741884985.235544
0.0325,0.24275,0.02675,-0.00059500005,-0.0002595,-0.0007935,1741884985.250033
0.03225,0.244,0.027,-0.00068675,-0.00036625,-0.00074775,1741884985.26455
0.0325,0.247,0.02925,-0.00068675,-0.00051875,-0.0008545,1741884985.279128
0.033,0.25025,0.03375,-0.00059500005,-0.00039675,-0.00099175,1741884985.293823
0.033,0.24775,0.035,-0.00048825,-3.0500001e-05,-0.00102225,1741884985.3088691
0.031,0.2465,0.0345,-0.00054925,0.000122000005,-0.001175,1741884985.3227289
0.032,0.244,0.035,-0.00064075,0.0003205,-0.00184625,1741884985.3371232
0.03475,0.2405,0.03575,-0.0003815,0.000534,-0.002121,1741884985.351678
0.03275,0.242,0.03375,0.00019825,0.00083925005,-0.0027160002,1741884985.365939
0.0305,0.2415,0.03125,7.625e-05,0.00077825,-0.0029907501,1741884985.380275
0.0305,0.241,0.031,-9.15e-05,0.00068675,-0.0030975002,1741884985.3946571
0.0305,0.2405,0.03025,0.00033575002,0.000534,-0.0029755002,1741884985.4090822
0.03175,0.23775,0.0295,0.00080875,0.000473,-0.00292975,1741884985.4231858
0.03325,0.239,0.03,0.0013885,0.00070200005,-0.0029449998,1741884985.4375648
0.03325,0.23825,0.02675,0.00131225,0.000763,-0.003006,1741884985.4519308
0.034,0.23825,0.02425,0.0012817499,0.00036625,-0.0028535,1741884985.4662652
0.0355,0.23875,0.0205,0.00157175,0.000229,-0.002777,1741884985.480503
0.03725,0.23975,0.022,0.00175475,-7.625e-05,-0.00267025,1741884985.494874
0.03875,0.241,0.02475,0.001892,-0.0012055,-0.0026245,1741884985.509248
0.04275,0.23775,0.03,0.0017242499,-0.0014495,-0.0025634998,1741884985.523652
0.04525,0.23625,0.032,0.0008545,-0.00119025,-0.0020905002,1741884985.539828
0.048,0.23525,0.0315,0.00068675,-0.000946,-0.00198375,1741884985.552454
0.049,0.23325,0.0305,0.0008545,-0.00071725,-0.00163275,1741884985.568316
0.0485,0.22975,0.03125,0.00086975005,-0.00068675,-0.00108325,1741884985.581161
0.0495,0.22925,0.0335,0.0007325,-0.00051875,-0.00039675,1741884985.5955431
0.05075,0.2305,0.03625,0.000122000005,0.0001525,0.0008545,1741884985.609899
0.05025,0.2375,0.036,-0.0002135,0.00068675,0.0014037499,1741884985.624179
0.0485,0.2395,0.03325,-0.000946,0.00146475,0.001953,1741884985.6398652
0.0475,0.23875,0.03125,-0.00119025,0.00149525,0.00193775,1741884985.652947
0.046,0.24025,0.03075,-0.0011445,0.00154125,0.00204475,1741884985.668174
0.04275,0.239,0.02825,-0.001007,0.0013885,0.00201425,1741884985.681773
0.043,0.23675,0.02775,-0.0008545,0.000885,0.0019225,1741884985.69604
0.0405,0.241,0.0245,-0.000885,0.000763,0.0020295,1741884985.710609
0.03875,0.2415,0.023,-0.00109875,0.00068675,0.0022277501,1741884985.724993
0.0375,0.2415,0.0225,-0.00160225,0.0005035,0.0025634998,1741884985.739498
0.038,0.24475,0.02525,-0.00157175,0.000412,0.0025787498,1741884985.753835
0.03925,0.24575,0.02675,-0.00125125,0.0003205,0.0021819999,1741884985.7681339
0.0395,0.24425,0.02775,-0.0010375,0.00030525,0.00169375,1741884985.782341
0.03775,0.2425,0.026,-0.0011445,0.0003205,0.0013580001,1741884985.796761
0.037,0.239,0.02525,-0.001526,0.00029,0.00177,1741884985.811019
0.038,0.2395,0.027,-0.0018005001,0.00029,0.00225825,1741884985.8254359
0.03775,0.2415,0.0275,-0.0018615,0.0003815,0.002777,1741884985.839742
0.03625,0.243,0.028,-0.0020295,0.00029,0.0029449998,1741884985.85412
0.03625,0.24125,0.02875,-0.0028229998,0.0002595,0.00369275,1741884985.868416
0.036,0.23775,0.02775,-0.00325,0.0004425,0.00419625,1741884985.882782
0.035,0.2375,0.0265,-0.00334175,0.00054925,0.00460825,1741884985.898606
0.03225,0.23875,0.02525,-0.00314325,0.00051875,0.0047150003,1741884985.911378
0.031,0.239,0.025,-0.003006,0.00051875,0.0048979996,1741884985.925896
0.02975,0.23875,0.0255,-0.0028074998,0.0005035,0.0051880004,1741884985.940205
0.02675,0.23725,0.02425,-0.0027465,0.00035100002,0.0052185003,1741884985.954478
0.0255,0.238,0.0235,-0.00213625,-0.0002135,0.004486,1741884985.968846
0.0235,0.244,0.0245,-0.00149525,-0.00033575002,0.0037385002,1741884985.983264
0.02175,0.24575,0.0245,-0.000763,1.5250001e-05,0.0021819999,1741884985.998684
0.01825,0.241,0.01825,-0.0008545,6.1000002e-05,0.0019225,1741884986.012026
0.01625,0.23825,0.01475,-0.001114,1.5250001e-05,0.0021819999,1741884986.026363
0.0155,0.2375,0.01275,-0.001587,-0.0002595,0.00328075,1741884986.040731
0.01525,0.23925,0.011,-0.00160225,-0.00035100002,0.0034942501,1741884986.0551932
0.01525,0.241,0.0105,-0.00105275,-0.00039675,0.0030975002,1741884986.069553
0.018,0.2425,0.01425,-0.0007935,-0.00059500005,0.002884,1741884986.083908
0.0195,0.2425,0.0175,-0.00035100002,-0.00086975005,0.00238025,1741884986.0982358
0.023,0.24275,0.0235,-0.000122000005,-0.00071725,0.0019989999,1741884986.112642
0.02325,0.24225,0.0235,0.0,-9.15e-05,0.00160225,1741884986.1284218
0.024,0.23675,0.021,-7.625e-05,0.000183,0.001831,1741884986.1413682
0.02375,0.23675,0.01875,-0.00010675,0.00045775,0.002243,1741884986.155829
0.02125,0.2385,0.016,0.00013725001,0.00064075,0.0027465,1741884986.16992
0.02025,0.24,0.01575,0.00027475,0.0005645,0.0028229998,1741884986.1841888
0.021,0.24125,0.0185,0.00086975005,0.00077825,0.00331125,1741884986.198329
0.0185,0.2435,0.024,0.0009765,0.00108325,0.0037995,1741884986.2127428
0.01625,0.24575,0.02525,0.000824,0.001419,0.004303,1741884986.228564
0.01425,0.2495,0.025,0.00029,0.0019989999,0.0043944996,1741884986.241467
0.0125,0.255,0.02275,0.000229,0.0022277501,0.0038757501,1741884986.2556381
0.01225,0.25475,0.02125,0.0003815,0.00254825,0.00225825,1741884986.269939
0.011,0.24925,0.02025,0.000473,0.00254825,0.00169375,1741884986.284194
0.0095,0.24525,0.01925,0.00057975,0.0023345,0.00175475,1741884986.299051
0.005,0.24325,0.01675,0.0004425,0.0020599999,0.0023039998,1741884986.3127859
0.0025,0.24675,0.015,0.0002595,0.00175475,0.00308225,1741884986.328712
0.00225,0.25025,0.01425,-1.5250001e-05,0.0012970001,0.0047607496,1741884986.3412569
0.00875,0.24775,0.02125,-0.00016775,0.001236,0.0050965,1741884986.3556402
0.00825,0.2475,0.02375,0.00010675,0.0019989999,0.0039825,1741884986.369857
0.00475,0.24475,0.0205,0.00036625,0.00238025,0.00314325,1741884986.384063
0.00425,0.241,0.01925,0.00039675,0.0020599999,0.00187675,1741884986.398769
0.00325,0.24125,0.01875,0.00039675,0.0016175,0.00125125,1741884986.412452
0.002,0.2425,0.01775,0.00042725,0.001114,0.00077825,1741884986.426668
0.002,0.242,0.01675,0.0005035,0.00039675,0.00102225,1741884986.44095
0.0035,0.24075,0.01625,0.00045775,0.0003815,0.00146475,1741884986.455168
0.00525,0.23975,0.0165,0.00070200005,0.00093075,0.0018005001,1741884986.469389
0.00575,0.24125,0.017,0.00083925005,0.00131225,0.00169375,1741884986.48366
0.00475,0.24275,0.01775,0.00077825,0.001831,0.00137325,1741884986.498037
0.00375,0.24175,0.018,0.000824,0.00198375,0.00137325,1741884986.512189
0.00375,0.23975,0.017,0.00093075,0.002121,0.001587,1741884986.526453
0.003,0.239,0.016,0.00115975,0.00228875,0.00216675,1741884986.540747
0.00375,0.24,0.01775,0.0012207499,0.0022125002,0.00239575,1741884986.554931
0.004,0.24075,0.0195,0.0012970001,0.0017242499,0.0020752498,1741884986.569083
0.00325,0.243,0.02175,0.001419,0.0014037499,0.0015565,1741884986.583262
0.0025,0.244,0.0215,0.0016175,0.00108325,0.001068,1741884986.598374
0.00225,0.24475,0.02175,0.0016632499,0.00042725,0.00051875,1741884986.611687
0.00225,0.246,0.0245,0.00146475,0.00024425,0.0003205,1741884986.6259258
0.00175,0.24525,0.02525,0.0010375,0.00036625,-1.5250001e-05,1741884986.64023
0.00175,0.24325,0.02625,0.000885,0.000473,-0.00019825,1741884986.65448
0.00125,0.2445,0.02525,0.0007935,0.00051875,-0.00096125,1741884986.6687381
-0.0015,0.245,0.021,0.00070200005,0.00039675,-0.001175,1741884986.683157
-0.00075,0.2435,0.0205,0.00059500005,0.00019825,-0.00099175,1741884986.698665
0.0005,0.2425,0.021,0.0007325,-0.000229,-0.0007935,1741884986.711893
0.003,0.2445,0.024,0.00096125,-0.000412,-0.0011445,1741884986.7263649
0.004,0.2465,0.02625,0.00131225,-0.00048825,-0.0025634998,1741884986.740848
0.0065,0.2475,0.0295,0.0013275,-0.00039675,-0.0033875,1741884986.755239
0.0055,0.2475,0.02875,0.00080875,-0.00045775,-0.00485225,1741884986.7696111
0.00275,0.24525,0.02425,0.00048825,-0.0005645,-0.00520325,1741884986.783964
0.00175,0.2425,0.022,0.00027475,-0.00064075,-0.0049285004,1741884986.798613
0.001,0.2415,0.02075,4.575e-05,-0.000824,-0.00317375,1741884986.812938
0.00625,0.242,0.02325,-0.00016775,-0.00093075,-0.002121,1741884986.828141
0.00925,0.24325,0.02625,-0.00062550005,-0.0003205,-0.0013275,1741884986.841943
0.00925,0.24775,0.03,-0.00067150005,0.0003205,-0.00169375,1741884986.856361
0.01,0.2475,0.03025,-0.001068,0.0013580001,-0.0027160002,1741884986.870794
0.0095,0.24225,0.02725,-0.0013885,0.00157175,-0.0027465,1741884986.8851311
0.0085,0.2395,0.02475,-0.0018615,0.0016785001,-0.001648,1741884986.8995311
0.0075,0.23675,0.02,-0.00181575,0.00157175,-0.00093075,1741884986.9141629
0.007,0.23775,0.01775,-0.00157175,0.00131225,-0.00039675,1741884986.9288142
0.00725,0.241,0.01725,-0.00083925005,0.00074775,-1.5250001e-05,1741884986.942848
0.008,0.249,0.02,-0.00070200005,0.0007325,-0.00013725001,1741884986.9584482
0.00775,0.25175,0.0205,-0.00108325,0.00074775,-0.001068,1741884986.971689
0.00725,0.249,0.01975,-0.00143425,0.0005645,-0.0017242499,1741884986.986006
0.00775,0.2465,0.01925,-0.001648,0.0,-0.0028229998,1741884987.000383
0.00825,0.24225,0.01525,-0.00137325,-0.00039675,-0.0029755002,1741884987.014903
0.00625,0.24375,0.01175,-0.001114,-0.0018005001,-0.00340275,1741884987.029428
0.0045,0.2565,0.009,-0.0013427499,-0.00283825,-0.00419625,1741884987.043974
0.00825,0.25575,0.01125,-0.00157175,-0.00393675,-0.0053252503,1741884987.058474
0.01225,0.24975,0.013,-0.001419,-0.0056609996,-0.007599,1741884987.0729191
0.016,0.244,0.01075,-0.001175,-0.0063325,-0.008316,1741884987.087421
0.013,0.2535,0.00875,-0.00099175,-0.0069885002,-0.009597749,1741884987.1019578
0.02475,0.25075,0.0235,-0.0009765,-0.00737,-0.010376001,1741884987.116429
0.03325,0.238,0.03175,-0.000122000005,-0.00643925,-0.0101775,1741884987.130923
0.03425,0.23,0.0335,0.0003205,-0.0051269997,-0.009384249,1741884987.1453571
0.03525,0.23025,0.03375,-0.00039675,-0.0033875,-0.006363,1741884987.159928
0.039,0.231,0.03475,-0.000763,-0.002365,-0.0047607496,1741884987.174418
0.03925,0.231,0.0335,-0.000473,-0.000885,-0.0036162501,1741884987.189184
0.03825,0.228,0.03025,0.00039675,0.0016175,-0.00148,1741884987.2032058
0.03275,0.23175,0.022,0.00029,0.0021819999,-0.00030525,1741884987.2182379
0.0325,0.234,0.02225,4.575e-05,0.0026245,0.0011445,1741884987.231858
0.0285,0.23725,0.02075,6.1000002e-05,0.002884,0.00157175,1741884987.24604
0.02325,0.2395,0.017,-0.0002135,0.0029145,0.002533,1741884987.260364
0.0265,0.236,0.01575,-0.00045775,0.002533,0.0032195,1741884987.274807
0.02625,0.238,0.0155,-0.00036625,0.0024414998,0.0037537501,1741884987.289383
0.0235,0.2425,0.01375,0.00013725001,0.0028229998,0.0044707498,1741884987.303346
0.02625,0.23775,0.01475,0.000122000005,0.0025025,0.0050965,1741884987.3183339
0.02925,0.23475,0.02,0.00057975,0.002472,0.0060882503,1741884987.332041
0.02725,0.2365,0.023,0.00077825,0.00331125,0.0066374997,1741884987.346252
0.02225,0.24225,0.021,-0.00054925,0.0047150003,0.007782,1741884987.360615
0.01575,0.25325,0.01975,-0.00115975,0.00463875,0.00794975,1741884987.374958
0.0155,0.25225,0.01975,-0.0011445,0.00428775,0.00794975,1741884987.389791
0.01275,0.25,0.01925,-0.000412,0.0039825,0.008285499,1741884987.403834
0.01125,0.239,0.02,-0.00036625,0.00411975,0.0090485,1741884987.418296
0.0105,0.23725,0.01975,-0.00099175,0.00460825,0.010666001,1741884987.432461
-0.0005,0.2465,0.0125,-0.0012055,0.0047455,0.01077275,1741884987.446861
-0.0025,0.24875,0.00975,-0.00131225,0.00413525,0.009231499,1741884987.461229
-0.002,0.24875,0.00825,-0.00105275,0.0033570002,0.0077515002,1741884987.475633
-0.0005,0.2475,0.00875,-0.00061025,0.00225825,0.0061035,1741884987.489991
0.0035,0.248,0.015,0.00035100002,0.00042725,0.00314325,1741884987.504236
0.004,0.24975,0.0165,0.00059500005,-0.000122000005,0.00216675,1741884987.518409
0.0045,0.2495,0.01725,1.5250001e-05,-0.0007325,0.0011445,1741884987.5327191
0.00425,0.24575,0.01775,-0.00042725,-0.000946,0.0008545,1741884987.5487092
0.004,0.24475,0.01825,-0.0003205,-0.000824,0.00039675,1741884987.5615392
0.007,0.2455,0.02225,9.15e-05,-0.0007325,0.00010675,1741884987.575844
0.006,0.24775,0.0235,0.00057975,-0.00057975,-0.000412,1741884987.590227
0.002,0.248,0.02225,0.0015565,-0.00030525,-0.00143425,1741884987.6048481
0.0035,0.2455,0.0225,0.0019225,-0.00042725,-0.0013580001,1741884987.619215
0.0045,0.245,0.0235,0.0024872501,-3.0500001e-05,-0.00149525,1741884987.633727
0.00525,0.246,0.0265,0.0027160002,0.00059500005,-0.0020599999,1741884987.648177
0.00475,0.24675,0.02525,0.002884,0.00181575,-0.0031889998,1741884987.662529
0.003,0.24625,0.0195,0.00254825,0.001831,-0.0031889998,1741884987.678228
0.00575,0.24575,0.0205,0.0017852499,0.00154125,-0.0028074998,1741884987.691168
0.0095,0.24525,0.02425,0.00201425,0.0017242499,-0.0033570002,1741884987.705437
0.0095,0.2445,0.02525,0.0024414998,0.0019989999,-0.0042267498,1741884987.719732
0.0085,0.245,0.026,0.002655,0.002411,-0.005249,1741884987.734015
0.0105,0.24375,0.028,0.0024414998,0.0026092501,-0.0052795,1741884987.748766
0.012,0.2415,0.02675,0.00231925,0.0029907501,-0.0059205,1741884987.7628539
0.01425,0.24275,0.025,0.0022735,0.003296,-0.0063477503,1741884987.7781591
0.01475,0.2425,0.02675,0.00148,0.00402825,-0.0065612504,1741884987.7913852
0.0145,0.241,0.0255,0.001007,0.0042267498,-0.0065307496,1741884987.8057039
0.0175,0.2405,0.0215,0.0007325,0.0042267498,-0.0063934997,1741884987.820126
0.02225,0.24,0.01975,0.00057975,0.0032195,-0.0054780003,1741884987.8345
0.02775,0.2405,0.02625,0.000763,0.00267025,-0.005005,1741884987.848724
0.0315,0.2425,0.03525,0.00086975005,0.00381475,-0.0047150003,1741884987.863008
0.0385,0.25025,0.049,0.0004425,0.005844,-0.0051269997,1741884987.878932
0.03375,0.2505,0.04325,-0.00125125,0.009597749,-0.0065765,1741884987.89184
0.02525,0.2415,0.0215,-0.00201425,0.009842,-0.00646975,1741884987.9062452
0.02375,0.23625,0.0145,-0.00238025,0.009140001,-0.00541675,1741884987.92064
0.0245,0.2325,0.01075,-0.0020905002,0.00712575,-0.0027312501,1741884987.935013
0.0285,0.2335,0.007,-0.0015565,0.006363,-0.0019989999,1741884987.9494379
0.02625,0.23525,0.00825,-0.0007935,0.0048979996,-0.00231925,1741884987.963794
0.0275,0.241,0.012,-0.00062550005,0.00488275,-0.003418,1741884987.978861
0.02775,0.24275,0.0095,-0.00019825,0.005005,-0.0044555003,1741884987.992608
0.02925,0.2385,0.00525,-0.0003815,0.0044250004,-0.00364675,1741884988.008848
0.0305,0.2375,0.0055,-0.0012207499,0.003296,-0.0017852499,1741884988.021526
0.02775,0.23525,0.00475,-0.0012970001,0.0028074998,-0.00112925,1741884988.035885
0.0265,0.233,0.00325,-0.000946,0.0020905002,-0.0003815,1741884988.050339
0.026,0.23375,0.0025,3.0500001e-05,0.00027475,0.00071725,1741884988.0646138
0.02675,0.2355,0.00425,0.0002135,-0.00045775,0.001068,1741884988.0790532
0.02625,0.236,0.006,0.00030525,-0.0014037499,0.00149525,1741884988.0933278
