acc_x,acc_y,acc_z,gyro_x,gyro_y,gyro_z,timestamp
-0.00025,0.0005,0.252,0.00027475,-0.0003205,0.00027475,1741885094.831805
-0.0005,-0.00025,0.25225,0.0003205,-0.0003815,0.00035100002,1741885094.8423848
-0.001,-0.00275,0.2525,0.00039675,-0.000412,0.00051875,1741885094.856958
-0.00075,-0.00125,0.2525,0.0005035,-0.00062550005,0.00105275,1741885094.871417
-0.00075,0.0,0.2515,0.000534,-0.00070200005,0.00115975,1741885094.8858109
-0.001,0.0,0.25125,0.00059500005,-0.00062550005,0.00102225,1741885094.9001112
-0.00125,0.0015,0.25125,0.00057975,-0.00054925,0.000946,1741885094.916211
-0.0015,0.0015,0.25175,0.000534,-0.00045775,0.00083925005,1741885094.9289129
-0.00175,0.00125,0.2515,0.000412,-0.00035100002,0.00048825,1741885094.9433181
-0.00225,0.002,0.251,0.00035100002,-0.00029,0.0003205,1741885094.958623
-0.00225,0.002,0.251,0.000183,-9.15e-05,9.15e-05,1741885094.97226
-0.00225,0.00125,0.2515,0.00013725001,-1.5250001e-05,4.575e-05,1741885094.986593
-0.002,0.00075,0.25175,0.00010675,1.5250001e-05,3.0500001e-05,1741885095.000936
-0.0015,0.0,0.25175,6.1000002e-05,1.5250001e-05,3.0500001e-05,1741885095.015234
-0.00175,-0.00025,0.2515,1.5250001e-05,1.5250001e-05,4.575e-05,1741885095.0296462
-0.002,-0.0,0.2515,-0.00010675,6.1000002e-05,0.00013725001,1741885095.044113
-0.00175,-0.0,0.252,-0.000122000005,6.1000002e-05,0.00016775,1741885095.058673
-0.00175,-0.00025,0.252,-7.625e-05,0.00010675,0.00010675,1741885095.0731142
-0.0015,-0.00025,0.25175,-7.625e-05,0.0001525,4.575e-05,1741885095.0890582
-0.00125,-0.00025,0.25175,-0.000122000005,0.000183,0.0,1741885095.102247
-0.00125,-0.00075,0.252,-0.000122000005,0.00016775,-3.0500001e-05,1741885095.11678
-0.0015,-0.0005,0.252,-6.1000002e-05,0.00013725001,-7.625e-05,1741885095.131413
-0.002,-0.0,0.25225,-3.0500001e-05,0.000122000005,-9.15e-05,1741885095.146039
-0.00175,0.0,0.25225,1.5250001e-05,7.625e-05,-4.575e-05,1741885095.160429
-0.00125,0.0,0.252,0.0,1.5250001e-05,-1.5250001e-05,1741885095.174813
-0.00125,-0.0,0.2515,-1.5250001e-05,0.0,3.0500001e-05,1741885095.189204
-0.0015,-0.00025,0.25175,-4.575e-05,4.575e-05,7.625e-05,1741885095.203657
-0.00175,-0.00025,0.25175,-6.1000002e-05,7.625e-05,6.1000002e-05,1741885095.2182028
-0.00175,-0.0005,0.2515,-9.15e-05,0.000122000005,1.5250001e-05,1741885095.232678
-0.00175,-0.0005,0.2515,-6.1000002e-05,0.0001525,-3.0500001e-05,1741885095.2486951
-0.00175,-0.0,0.25175,-3.0500001e-05,0.0002595,-7.625e-05,1741885095.261965
-0.00175,0.00025,0.25175,0.0,0.00027475,-6.1000002e-05,1741885095.276263
-0.002,0.0,0.25225,0.00010675,0.00027475,6.1000002e-05,1741885095.2907798
-0.00225,0.0,0.252,0.00013725001,0.000229,0.0001525,1741885095.3051782
-0.00125,0.00025,0.25175,0.00016775,0.00019825,0.000229,1741885095.319485
-0.0005,0.0,0.252,0.0001525,0.0001525,0.0002595,1741885095.3337758
0.0,-0.0005,0.25175,9.15e-05,0.00013725001,0.0002135,1741885095.348872
-0.0005,-0.0005,0.2515,-0.000122000005,1.5250001e-05,0.0,1741885095.362657
-0.00175,-0.0,0.25175,-4.575e-05,3.0500001e-05,-0.00010675,1741885095.377973
-0.0015,-0.0,0.25175,0.000183,7.625e-05,-0.0001525,1741885095.391904
-0.00125,-0.0005,0.252,0.0002135,7.625e-05,-0.00010675,1741885095.407858
-0.0015,-0.001,0.25225,0.00019825,3.0500001e-05,-6.1000002e-05,1741885095.420877
-0.00075,-0.001,0.252,0.000122000005,-0.00010675,0.0,1741885095.435406
-0.0,-0.00125,0.252,0.00016775,-0.000183,4.575e-05,1741885095.449892
-0.0005,-0.00225,0.252,0.00029,-0.00036625,-0.00010675,1741885095.4644768
-0.00125,-0.003,0.25225,0.00036625,-0.000412,-0.0001525,1741885095.478985
-0.001,-0.0015,0.252,0.00048825,-0.00045775,1.5250001e-05,1741885095.4934242
-0.0015,-0.001,0.252,0.0005035,-0.00045775,0.000122000005,1741885095.5086982
-0.00175,-0.00175,0.2525,0.0005645,-0.000473,0.0004425,1741885095.522395
-0.00175,-0.00225,0.25275,0.00062550005,-0.00048825,0.000763,1741885095.536897
-0.00175,-0.0015,0.2525,0.00045775,-0.00074775,0.0013885,1741885095.5513651
-0.0035,0.00275,0.252,0.00029,-0.00090025004,0.00146475,1741885095.5658119
-0.00425,0.00525,0.25225,0.0001525,-0.00105275,0.0013885,1741885095.5802271
-0.004,0.00575,0.25275,0.00029,-0.0013580001,0.00154125,1741885095.59462
-0.00425,-0.002,0.252,0.00048825,-0.00149525,0.001648,1741885095.6091268
-0.00575,-0.00525,0.252,0.0004425,-0.0016785001,0.0015105,1741885095.623584
-0.00875,-0.00675,0.2515,0.000229,-0.0017852499,0.00125125,1741885095.639012
-0.00775,-0.006,0.2515,0.000122000005,-0.00160225,0.00105275,1741885095.652534
-0.006,-0.004,0.2515,0.000122000005,-0.00148,0.00115975,1741885095.668576
-0.0065,-0.00275,0.25175,7.625e-05,-0.00143425,0.00115975,1741885095.681401
-0.007,-0.003,0.251,-0.00010675,-0.0014037499,0.00086975005,1741885095.6960378
-0.00675,-0.00275,0.251,-0.0002135,-0.0013427499,0.00067150005,1741885095.710602
-0.00575,-0.002,0.2515,-0.00019825,-0.0012665,0.000763,1741885095.725256
-0.00575,-0.001,0.25275,0.00016775,-0.00125125,0.000885,1741885095.739907
-0.00625,0.00025,0.25225,0.0009155,-0.0013275,0.00051875,1741885095.754297
-0.00725,0.00175,0.2535,0.0013275,-0.0013580001,0.0001525,1741885095.768818
-0.00875,0.00075,0.253,0.00245675,-0.00125125,-6.1000002e-05,1741885095.783077
-0.00875,-0.00225,0.25125,0.0026245,-0.0012207499,9.15e-05,1741885095.798721
-0.008,-0.003,0.25225,0.0025025,-0.00105275,0.0,1741885095.812205
-0.00875,-0.0035,0.2545,0.00270075,-0.00090025004,-0.00030525,1741885095.8284612
-0.00925,-0.004,0.254,0.0030975002,-0.00068675,-0.00065625,1741885095.841405
-0.00925,-0.0045,0.25275,0.0037385002,-0.000122000005,-0.0009155,1741885095.8559859
-0.008,-0.00625,0.2505,0.0037079998,-1.5250001e-05,-0.0008545,1741885095.870603
-0.00775,-0.00525,0.25075,0.0032347501,-0.00019825,-0.00064075,1741885095.8851671
-0.007,-0.00625,0.24975,0.0031585,-0.0004425,-0.0007325,1741885095.89982
-0.0065,-0.009,0.249,0.0028229998,-0.00083925005,-0.00086975005,1741885095.9144151
-0.0075,-0.011,0.25075,0.002411,-0.00077825,-0.00077825,1741885095.928982
-0.0075,-0.01125,0.25375,0.00193775,-0.00010675,-0.00071725,1741885095.943527
-0.00975,-0.01325,0.25325,0.0019685,0.0004425,-0.00057975,1741885095.958519
-0.011,-0.0135,0.25125,0.0019989999,0.00061025,-0.0001525,1741885095.97242
-0.01275,-0.01375,0.25125,0.00201425,0.00036625,-6.1000002e-05,1741885095.9886038
-0.0135,-0.01375,0.25325,0.002121,0.00013725001,4.575e-05,1741885096.0013041
-0.0135,-0.01525,0.257,0.0024872501,0.00019825,-4.575e-05,1741885096.015925
-0.01175,-0.017,0.26425,0.002243,0.00039675,-0.00010675,1741885096.030438
-0.012,-0.01725,0.2615,0.000412,0.00029,0.00042725,1741885096.044817
-0.0135,-0.017,0.254,0.0,0.00013725001,0.0007325,1741885096.0591629
-0.013,-0.018,0.254,0.001007,-0.00027475,0.0007935,1741885096.073677
-0.007,-0.01425,0.26425,0.001419,-3.0500001e-05,0.000946,1741885096.089121
-0.0095,-0.00975,0.26525,0.00096125,0.00054925,0.0012055,1741885096.1026309
-0.009,-0.01,0.25675,0.000534,0.00035100002,0.00074775,1741885096.1170292
-0.00775,-0.012,0.25175,0.00030525,0.00042725,0.00051875,1741885096.131433
-0.009,-0.013,0.24475,0.001236,0.001114,0.00074775,1741885096.145857
-0.008,-0.01275,0.2455,0.00251775,0.0015565,0.00054925,1741885096.160395
-0.00825,-0.014,0.24925,0.004547,0.001831,0.0,1741885096.1748228
-0.00425,-0.01675,0.251,0.0044707498,0.0017242499,-0.000229,1741885096.189339
-0.00325,-0.01775,0.25075,0.00302125,0.00187675,0.00035100002,1741885096.203692
-0.0035,-0.01925,0.252,0.0025787498,0.0023497501,0.00062550005,1741885096.218627
-0.00275,-0.019,0.2525,0.002365,0.00305175,0.000763,1741885096.232566
-0.00275,-0.0205,0.24225,0.001236,0.0030365,0.0010375,1741885096.247027
-0.0035,-0.01975,0.2395,0.00061025,0.001831,0.0009155,1741885096.2614121
-0.00075,-0.019,0.2425,9.15e-05,-0.0010375,0.00096125,1741885096.275897
-0.00475,-0.0255,0.23875,-0.0003205,-0.0021972498,0.0016632499,1741885096.290548
-0.00975,-0.02575,0.23625,-0.0002595,-0.0033570002,0.001236,1741885096.3052092
-0.008,-0.02225,0.24325,-0.00054925,-0.0034942501,0.00064075,1741885096.319791
-0.007,-0.022,0.247,-0.002121,-0.00384525,0.00074775,1741885096.334342
-0.00575,-0.022,0.254,-0.00245675,-0.003952,0.00108325,1741885096.3489869
-0.0075,-0.02,0.257,-0.0009155,-0.0028687501,0.001236,1741885096.36349
-0.0075,-0.02175,0.25925,-6.1000002e-05,-0.0016785001,0.00083925005,1741885096.378568
-0.0075,-0.02375,0.25725,-0.000824,-0.00115975,0.00070200005,1741885096.392571
-0.01025,-0.021,0.25575,-0.0037079998,-0.0016175,0.00112925,1741885096.408766
-0.014,-0.01625,0.2485,-0.0036010002,-0.0015105,0.0010375,1741885096.4218261
-0.01375,-0.0155,0.246,-0.00279225,-0.001526,0.00099175,1741885096.436332
-0.0135,-0.014,0.24875,-0.0025787498,-0.001419,0.00115975,1741885096.451007
-0.0125,-0.01375,0.25275,-0.0023039998,-0.00099175,0.00108325,1741885096.465617
-0.01225,-0.01225,0.258,-0.002411,-0.000824,0.00099175,1741885096.480296
-0.012,-0.01175,0.25925,-0.00283825,-0.00045775,0.000824,1741885096.495019
-0.0105,-0.0175,0.25825,-0.0027465,0.00010675,0.0008545,1741885096.509488
-0.01175,-0.0175,0.2545,-0.00267025,0.00108325,0.0014495,1741885096.523937
-0.015,-0.00825,0.2455,-0.0020752498,0.0014037499,0.00146475,1741885096.539434
-0.01325,-0.0045,0.24975,-0.00083925005,0.0016785001,0.0011445,1741885096.552902
-0.011,-0.006,0.25475,0.0017242499,0.002243,0.000534,1741885096.568987
-0.01025,-0.013,0.2575,0.002777,0.0028687501,0.00042725,1741885096.58181
-0.00975,-0.013,0.25725,0.0036010002,0.00511175,0.000534,1741885096.596128
-0.0175,-0.00275,0.24475,0.003769,0.0059205,0.00057975,1741885096.6106172
-0.02125,0.00175,0.23425,0.0049590003,0.0068512503,-0.00125125,1741885096.625023
0.00325,-0.01875,0.2445,0.00494375,0.0065917503,-0.002121,1741885096.639498
0.00475,-0.019,0.25025,0.00331125,0.00292975,-0.0012055,1741885096.6538649
0.0035,-0.0215,0.25675,0.00228875,0.0013427499,-4.575e-05,1741885096.668958
0.0005,-0.01575,0.25875,0.001007,0.000412,0.0007935,1741885096.682485
-0.00225,-0.01425,0.25725,0.00039675,0.0007325,0.00051875,1741885096.696842
-0.005,-0.0195,0.2445,0.00042725,0.0009155,0.000473,1741885096.711104
-0.00625,-0.01675,0.23975,0.00045775,-0.0004425,0.0004425,1741885096.725685
-0.003,-0.0205,0.249,0.00083925005,-0.00148,0.00016775,1741885096.740216
-0.00325,-0.02075,0.252,0.00033575002,-0.00238025,0.00039675,1741885096.754714
-0.0075,-0.0145,0.24725,-0.00024425,-0.002411,0.0005035,1741885096.76931
-0.0095,-0.013,0.24725,-0.00029,-0.0025025,0.000412,1741885096.783983
-0.0055,-0.015,0.25475,0.000946,-0.0028229998,0.00045775,1741885096.799249
-0.00475,-0.0195,0.2555,0.001587,-0.00292975,0.00080875,1741885096.812937
-0.00625,-0.02025,0.252,0.00131225,-0.00292975,0.00157175,1741885096.828361
-0.005,-0.0205,0.25,0.00083925005,-0.0027312501,0.0012207499,1741885096.841887
-0.009,-0.01,0.25,0.003952,-0.00035100002,-0.00024425,1741885096.856506
-0.01075,-0.01125,0.2395,0.00770575,0.001068,-0.00061025,1741885096.870921
-0.00725,-0.02975,0.23625,0.01104725,0.00068675,-0.0012665,1741885096.885377
-0.00425,-0.037,0.25175,0.01071175,0.0001525,-0.00148,1741885096.899939
-0.0015,-0.03575,0.26225,0.0102235,0.00024425,-0.00169375,1741885096.914358
-0.0005,-0.03875,0.26575,0.008514499,0.0009765,-0.00137325,1741885096.928907
-0.00175,-0.04175,0.2605,0.0075072497,0.00108325,-0.00086975005,1741885096.943419
-0.00375,-0.045,0.2555,0.0068665,0.000885,-0.000122000005,1741885096.958878
-0.00275,-0.04625,0.25475,0.00744625,0.00057975,3.0500001e-05,1741885096.972357
-0.00275,-0.04425,0.25825,0.009734999,0.000824,0.0002595,1741885096.9868019
-0.00525,-0.0365,0.25475,0.010391249,0.00131225,-0.00016775,1741885097.0012841
-0.0005,-0.0395,0.2485,0.009017999,0.00146475,-0.00231925,1741885097.0156832
0.00275,-0.05225,0.23775,0.0067445002,0.00042725,-0.0030669998,1741885097.0300832
-0.00175,-0.056,0.2365,0.00408925,-0.000885,-0.0035095,1741885097.044811
-0.0195,-0.0385,0.23725,0.001068,-0.0012665,-0.0030975002,1741885097.059262
-0.0195,-0.02975,0.244,0.00048825,-0.00077825,-0.0023497501,1741885097.0739682
-0.01325,-0.03325,0.251,-0.00035100002,0.00019825,-0.001526,1741885097.088425
-0.00575,-0.0455,0.248,-0.000763,0.00070200005,-0.0013427499,1741885097.102953
-0.005,-0.04525,0.24475,-0.00181575,0.00146475,-0.0015105,1741885097.118774
-0.004,-0.0495,0.2435,-0.00184625,0.001419,-0.00181575,1741885097.131953
-0.0035,-0.05225,0.24425,-0.00045775,0.00090025004,-0.00270075,1741885097.1479838
-0.0005,-0.0515,0.25175,0.00048825,0.0012817499,-0.0032347501,1741885097.161073
0.0,-0.04825,0.257,0.00048825,0.0034637498,-0.0045012496,1741885097.175564
-0.00425,-0.04675,0.254,-0.00137325,0.00440975,-0.00485225,1741885097.190204
-0.00775,-0.04775,0.24725,-0.0037537501,0.0051880004,-0.0047455,1741885097.204752
-0.00275,-0.0425,0.23925,-0.0038299998,0.0052185003,-0.0027312501,1741885097.219274
0.00375,-0.04,0.23725,-0.00067150005,0.0025025,-0.0018615,1741885097.2338471
0.0015,-0.042,0.2365,0.0039215,-0.00640875,-0.0018615,1741885097.248399
-0.0065,-0.04625,0.24175,0.0043182503,-0.00924675,-0.0019989999,1741885097.2629938
-0.00975,-0.0505,0.23825,0.0016785001,-0.008712751,-0.0016175,1741885097.2786849
-0.0115,-0.049,0.23975,-0.0012817499,-0.0062712496,-0.00062550005,1741885097.2921789
-0.009,-0.042,0.246,-0.006256,-0.00231925,0.00105275,1741885097.306786
-0.00375,-0.0335,0.251,-0.00737,-0.0009155,0.00074775,1741885097.321355
-0.00475,-0.035,0.24825,-0.0072480002,-0.00010675,-3.0500001e-05,1741885097.3360481
-0.01,-0.03875,0.243,-0.00671375,-0.0012207499,0.00013725001,1741885097.350795
-0.00975,-0.04175,0.2455,-0.006073,-0.0026092501,0.00036625,1741885097.365279
-0.01,-0.04425,0.253,-0.00437925,-0.0042115003,0.00029,1741885097.379971
-0.012,-0.04125,0.255,-0.0039825,-0.00444025,0.00036625,1741885097.394449
-0.0145,-0.038,0.2555,-0.0042115003,-0.0047150003,0.00045775,1741885097.408982
-0.01425,-0.034,0.25675,-0.00466925,-0.0044555003,0.00033575002,1741885097.423465
-0.0175,-0.031,0.2565,-0.0067597497,-0.0028229998,0.000229,1741885097.439014
-0.0225,-0.02425,0.254,-0.008499251,-0.002411,0.00045775,1741885097.452523
-0.0215,-0.0235,0.25325,-0.01086425,-0.00242625,0.00090025004,1741885097.468322
-0.021,-0.027,0.2505,-0.0103455,-0.00270075,0.0009765,1741885097.481792
-0.021,-0.02725,0.25175,-0.008361749,-0.00328075,0.0011445,1741885097.496285
-0.0225,-0.02,0.25675,-0.0075225,-0.0030365,0.00112925,1741885097.510974
-0.02275,-0.01825,0.2555,-0.0077210004,-0.00279225,0.001419,1741885097.5254369
-0.02125,-0.0205,0.2535,-0.012191749,-0.00334175,0.00239575,1741885097.539982
-0.0195,-0.03175,0.24825,-0.014282251,-0.00334175,0.002655,1741885097.554442
-0.00975,-0.04675,0.23825,-0.017685,-0.0060272496,0.0053709997,1741885097.568981
-0.034,0.01175,0.24075,-0.019287001,-0.0095672505,0.00643925,1741885097.583471
-0.037,0.02375,0.2585,-0.0117035,-0.00801075,0.003769,1741885097.5987892
-0.02975,0.0015,0.25525,-0.0077972496,-0.00531,0.0029145,1741885097.6123788
-0.0345,0.00825,0.244,-0.00596625,-0.0031889998,0.0023039998,1741885097.628368
-0.0315,0.004,0.24425,-0.0053252503,-0.0026092501,0.00160225,1741885097.641357
-0.02775,0.00225,0.25225,-0.004593,-0.00225825,0.00119025,1741885097.6558468
-0.034,0.01425,0.256,-0.00305175,-0.00125125,0.00131225,1741885097.670353
-0.03625,0.016,0.25375,-0.001953,-0.000412,0.00137325,1741885097.684868
-0.034,0.0135,0.252,-0.000122000005,0.000946,0.0012055,1741885097.6992698
-0.02925,0.01075,0.24775,-0.0001525,0.0012665,0.00109875,1741885097.713803
-0.02925,0.00975,0.238,-0.00115975,0.00010675,0.00108325,1741885097.728697
-0.027,0.0065,0.2385,-0.0023039998,-0.0027465,0.00080875,1741885097.742625
-0.02875,0.00575,0.25675,0.000183,-0.0021972498,0.0012055,1741885097.758065
-0.03675,0.01825,0.25525,0.0021515,-0.00042725,0.001114,1741885097.771574
-0.0375,0.0185,0.25125,0.0025940002,0.0003205,0.000824,1741885097.7858229
-0.03575,0.0105,0.25025,0.0007325,0.0009155,7.625e-05,1741885097.800189
-0.03025,0.00325,0.25225,0.00019825,0.00080875,-3.0500001e-05,1741885097.814548
-0.02975,0.00475,0.252,0.0003205,0.001068,-0.0002135,1741885097.828966
-0.03125,0.0065,0.25,0.0002135,0.0016632499,-0.00033575002,1741885097.843284
-0.03375,0.0065,0.2455,-0.00048825,0.0031127501,-7.625e-05,1741885097.858447
-0.0315,-0.0035,0.23925,-0.00119025,0.0035095,-3.0500001e-05,1741885097.872451
-0.02875,-0.008,0.237,-0.0037385002,0.0033875,0.0003205,1741885097.888565
-0.02875,0.00175,0.245,-0.00531,0.00251775,0.00057975,1741885097.901236
-0.02925,0.00725,0.25375,-0.006363,0.0016632499,0.00061025,1741885097.915788
-0.028,0.0105,0.259,-0.0071409997,0.0009155,9.15e-05,1741885097.930094
-0.0285,0.017,0.25675,-0.007309,0.00057975,-0.00010675,1741885097.94464
-0.0295,0.021,0.253,-0.006302,0.000412,4.575e-05,1741885097.959012
-0.026,0.0185,0.25,-0.00514225,0.00054925,0.000183,1741885097.9735591
-0.02575,0.017,0.24925,-0.0023039998,0.00048825,0.00042725,1741885097.989432
-0.02875,0.02,0.246,-0.0010375,0.00036625,0.000473,1741885098.002264
-0.02825,0.02075,0.248,4.575e-05,0.00042725,4.575e-05,1741885098.018155
-0.02675,0.022,0.2535,-0.00013725001,0.00074775,-0.000229,1741885098.0311308
-0.0275,0.02125,0.25175,-0.0005035,0.001175,-0.000534,1741885098.045608
-0.02775,0.01975,0.24875,-0.00080875,0.0017242499,-0.000946,1741885098.060143
-0.02875,0.01725,0.244,-0.00059500005,0.0016785001,-0.00108325,1741885098.074639
-0.02825,0.017,0.2445,-0.00030525,0.0009155,-0.00154125,1741885098.089155
-0.0265,0.0205,0.25125,-0.00024425,0.00062550005,-0.001709,1741885098.1036448
-0.027,0.022,0.2525,0.00054925,0.00083925005,-0.0019225,1741885098.118973
-0.02475,0.0185,0.248,0.00093075,0.00102225,-0.00181575,1741885098.1325161
-0.02325,0.01575,0.24375,0.0009765,0.0009765,-0.001587,1741885098.1469262
-0.02375,0.01775,0.24775,7.625e-05,-0.000824,-0.00112925,1741885098.161351
-0.02425,0.01975,0.25325,-4.575e-05,-0.00146475,-0.001068,1741885098.175927
-0.024,0.01875,0.2555,-9.15e-05,-0.0013427499,-0.00099175,1741885098.191811
-0.025,0.01475,0.25325,-0.00030525,-0.00090025004,-0.00083925005,1741885098.20496
-0.026,0.01575,0.25275,-0.00010675,-4.575e-05,-0.00048825,1741885098.219483
-0.02575,0.01675,0.254,0.0002595,9.15e-05,-0.00036625,1741885098.233783
-0.0265,0.01525,0.2525,0.00086975005,-4.575e-05,-0.0002135,1741885098.2488651
-0.0275,0.01575,0.24925,0.001007,-0.00010675,-0.00010675,1741885098.262988
-0.02625,0.016,0.2495,0.00093075,-0.000122000005,4.575e-05,1741885098.27856
-0.0255,0.017,0.25025,0.00071725,6.1000002e-05,0.0002135,1741885098.291647
-0.02575,0.01925,0.25025,0.00086975005,0.000229,0.00016775,1741885098.3059368
-0.02575,0.019,0.25,0.00096125,0.0005035,-0.00016775,1741885098.320307
-0.026,0.01425,0.2465,0.00057975,0.000534,-0.000229,1741885098.334738
-0.0265,0.0145,0.24575,0.00013725001,0.0003815,-4.575e-05,1741885098.34905
-0.02625,0.01625,0.24675,0.00033575002,0.00019825,6.1000002e-05,1741885098.36339
-0.02625,0.01675,0.24725,0.00054925,-0.00042725,0.00016775,1741885098.3785641
-0.026,0.01675,0.25,0.00030525,-0.00065625,0.000122000005,1741885098.39211
-0.026,0.017,0.2505,3.0500001e-05,-0.00065625,7.625e-05,1741885098.406493
-0.02625,0.01675,0.2495,-1.5250001e-05,-0.000183,-4.575e-05,1741885098.4210649
-0.02675,0.016,0.2475,0.00016775,-0.00010675,-0.00013725001,1741885098.435573
-0.02675,0.01625,0.24725,0.0003815,-0.000412,-0.00016775,1741885098.4501061
-0.026,0.0155,0.24925,0.00035100002,-0.0005645,-0.000122000005,1741885098.4645581
-0.02625,0.01525,0.25125,0.00019825,-0.00054925,-4.575e-05,1741885098.4790232
-0.02775,0.01775,0.25025,0.00013725001,-0.00042725,-1.5250001e-05,1741885098.493633
-0.0275,0.0175,0.25,0.0002135,-0.000412,-0.00016775,1741885098.5087109
-0.0265,0.01725,0.2525,0.00024425,-0.000473,-0.0002135,1741885098.522602
-0.02675,0.01825,0.253,0.0002595,-0.000412,-0.000183,1741885098.539058
-0.027,0.018,0.25375,0.00036625,0.0,-0.00029,1741885098.551473
-0.02675,0.016,0.25325,0.0003205,0.00030525,-0.0003815,1741885098.565888
-0.02775,0.01675,0.25125,0.00024425,0.00065625,-0.00061025,1741885098.580273
-0.02725,0.01875,0.24875,0.00016775,0.00054925,-0.00071725,1741885098.594748
-0.02625,0.017,0.2495,6.1000002e-05,-4.575e-05,-0.00070200005,1741885098.609157
-0.0275,0.014,0.249,0.00027475,-0.000229,-0.00062550005,1741885098.623609
-0.028,0.014,0.2475,0.00059500005,-0.00027475,-0.00061025,1741885098.638748
-0.028,0.0135,0.24775,0.00071725,-0.0003205,-0.00059500005,1741885098.65258
-0.0275,0.01325,0.24975,0.00059500005,-0.00033575002,-0.00061025,1741885098.668771
-0.02725,0.0135,0.252,0.00039675,-0.00019825,-0.00054925,1741885098.681603
-0.02875,0.016,0.25075,0.00036625,-0.00010675,-0.00048825,1741885098.696104
-0.0295,0.01625,0.24925,0.000229,-0.0002135,-0.00074775,1741885098.71062
-0.02725,0.01525,0.25025,4.575e-05,-0.00036625,-0.00083925005,1741885098.725125
-0.0265,0.0155,0.251,6.1000002e-05,-0.0003205,-0.00074775,1741885098.7395542
-0.0265,0.01625,0.249,0.000229,-0.0002135,-0.00070200005,1741885098.7539961
-0.02675,0.01575,0.247,0.00045775,-0.00033575002,-0.00074775,1741885098.7689369
-0.0265,0.0145,0.24625,0.000412,-0.0004425,-0.000763,1741885098.782992
-0.027,0.01575,0.24625,0.00029,-0.0005035,-0.00074775,1741885098.798607
-0.0275,0.017,0.2455,0.0,-0.00061025,-0.0007935,1741885098.812062
-0.02825,0.01775,0.244,-7.625e-05,-0.00080875,-0.00093075,1741885098.826754
-0.02825,0.017,0.24425,7.625e-05,-0.001419,-0.0012817499,1741885098.841175
-0.02875,0.01575,0.24675,0.00027475,-0.0016785001,-0.0014037499,1741885098.8556108
-0.03075,0.016,0.24675,0.0004425,-0.0020295,-0.0016175,1741885098.870092
-0.03475,0.01325,0.248,0.00024425,-0.00239575,-0.0017395001,1741885098.8845718
-0.036,0.011,0.24875,-0.000183,-0.00364675,-0.0017395001,1741885098.89903
-0.03625,0.01,0.254,-0.00036625,-0.00444025,-0.0016175,1741885098.913677
-0.03725,0.0135,0.25575,-0.00048825,-0.00505075,-0.00146475,1741885098.928441
-0.039,0.01725,0.25575,-0.00027475,-0.0055085,-0.0014495,1741885098.9426692
-0.03975,0.01875,0.25375,-0.00030525,-0.0056609996,-0.00163275,1741885098.958102
-0.03925,0.01725,0.25425,-0.00035100002,-0.0058135,-0.0022125002,1741885098.971909
-0.0375,0.016,0.25575,-0.00019825,-0.00561525,-0.00231925,1741885098.986464
-0.03875,0.01725,0.2525,0.000534,-0.0045012496,-0.0021972498,1741885099.00089
-0.0425,0.01625,0.2475,0.0009155,-0.004074,-0.002121,1741885099.0153449
-0.044,0.015,0.24675,0.00143425,-0.0042572496,-0.00177,1741885099.029833
-0.047,0.0105,0.2465,0.00175475,-0.0045777503,-0.00157175,1741885099.044343
-0.04775,0.008,0.24675,0.0022277501,-0.0050202496,-0.001419,1741885099.0588381
-0.04775,0.007,0.24725,0.0031127501,-0.00535575,-0.00125125,1741885099.07335
-0.047,0.006,0.248,0.0033264998,-0.00517275,-0.00099175,1741885099.088172
-0.0485,0.00525,0.247,0.0032347501,-0.0047607496,-0.0003205,1741885099.1023061
-0.0505,0.00575,0.24525,0.0033570002,-0.0047302498,-0.0001525,1741885099.116833
-0.049,0.0055,0.24575,0.004074,-0.00469975,6.1000002e-05,1741885099.131277
-0.048,0.0065,0.246,0.00419625,-0.004486,0.000122000005,1741885099.14575
-0.04825,0.008,0.24475,0.00390625,-0.003891,3.0500001e-05,1741885099.1601439
-0.049,0.00725,0.24275,0.0037079998,-0.0037079998,-1.5250001e-05,1741885099.174603
-0.049,0.00625,0.24425,0.00340275,-0.00352475,0.0,1741885099.189039
-0.04725,0.0065,0.24825,0.0023039998,-0.002533,-3.0500001e-05,1741885099.203555
-0.04575,0.009,0.252,0.0018005001,-0.00163275,-0.00013725001,1741885099.2182488
-0.0485,0.00875,0.24725,0.00086975005,-0.00029,-0.00019825,1741885099.2326348
-0.05425,0.00575,0.2335,0.00048825,-0.00030525,-0.000122000005,1741885099.248683
-0.055,0.00475,0.23075,0.00071725,-0.0013580001,0.00010675,1741885099.261494
-0.05375,0.0055,0.2355,0.00119025,-0.00193775,0.00013725001,1741885099.2759302
-0.0545,0.00675,0.23725,0.001953,-0.0026092501,-0.00016775,1741885099.290335
-0.05575,0.006,0.23875,0.0020295,-0.00292975,-0.00024425,1741885099.3048651
-0.05575,0.00475,0.2405,0.00190725,-0.0031585,-0.000229,1741885099.319336
-0.05675,0.004,0.242,0.001587,-0.0031585,0.0,1741885099.333766
-0.05775,0.0025,0.24525,0.00149525,-0.0031127501,9.15e-05,1741885099.348601
-0.05775,0.00225,0.2475,0.00125125,-0.0028687501,0.0002595,1741885099.3624918
-0.05825,0.00425,0.25075,0.00093075,-0.00263975,0.00033575002,1741885099.377822
-0.06075,0.0055,0.2505,-0.000122000005,-0.0022277501,0.0002135,1741885099.391359
-0.06,0.004,0.25525,-0.00035100002,-0.0018615,4.575e-05,1741885099.405822
-0.058,0.00225,0.26025,0.00033575002,0.000122000005,0.0001525,1741885099.4201138
-0.05975,0.004,0.25875,0.00096125,0.0012970001,0.0002595,1741885099.434417
-0.06075,0.00475,0.25525,0.00146475,0.0022277501,0.00024425,1741885099.448676
-0.06,0.0045,0.25375,0.00160225,0.00340275,9.15e-05,1741885099.4629781
-0.05825,0.005,0.2525,0.0016785001,0.00393675,0.000122000005,1741885099.478538
-0.05875,0.00575,0.24975,0.0020752498,0.0046539996,0.00019825,1741885099.4916632
-0.06075,0.00325,0.2415,0.00204475,0.00460825,0.000122000005,1741885099.505962
-0.06,0.00075,0.23875,0.0016175,0.00384525,-6.1000002e-05,1741885099.520406
-0.05575,-0.003,0.24025,0.0017242499,0.0035095,-0.00010675,1741885099.534828
-0.05325,-0.004,0.2445,0.0019989999,0.003418,-0.000122000005,1741885099.549332
-0.0525,-0.00325,0.2475,0.0025940002,0.0040587503,0.00010675,1741885099.5637639
-0.05375,-0.0035,0.2435,0.00270075,0.0043639997,0.00019825,1741885099.57845
-0.05375,-0.005,0.2395,0.0021819999,0.0041044997,0.0001525,1741885099.5924768
-0.05175,-0.00675,0.23575,0.00213625,0.00367725,0.0002595,1741885099.608615
-0.05075,-0.007,0.23575,0.0026854998,0.0024872501,0.00068675,1741885099.6212852
-0.0485,-0.00525,0.23875,0.0027465,0.00184625,0.000763,1741885099.6357481
-0.0485,-0.004,0.24125,0.002533,0.0013427499,0.000763,1741885099.650094
-0.0485,-0.0035,0.24375,0.0018615,0.00093075,0.00059500005,1741885099.66448
-0.0465,-0.007,0.24925,0.00157175,0.00086975005,0.00057975,1741885099.678923
-0.04575,-0.00775,0.25,0.0012665,0.000763,0.000824,1741885099.693237
-0.0485,-0.00825,0.24625,0.00115975,0.00061025,0.0008545,1741885099.708374
-0.0495,-0.01,0.2455,0.00112925,0.0007935,0.0014037499,1741885099.722063
-0.04725,-0.0115,0.2405,0.001892,0.0012665,0.00184625,1741885099.7365491
-0.045,-0.01225,0.2405,0.003418,0.0005035,0.0020752498,1741885099.7509089
-0.0465,-0.013,0.24525,0.00402825,-0.000183,0.0023345,1741885099.765315
-0.048,-0.011,0.2475,0.0047150003,-0.0002135,0.0024414998,1741885099.77985
-0.04775,-0.00875,0.25025,0.00494375,0.00083925005,0.00175475,1741885099.794198
-0.045,-0.013,0.255,0.00411975,0.001419,0.00143425,1741885099.808658
-0.04275,-0.0165,0.2575,0.00308225,0.0030975002,0.00149525,1741885099.822926
-0.045,-0.0145,0.2545,0.0034484998,0.0040435,0.0019225,1741885099.838672
-0.04775,-0.012,0.25025,0.0039825,0.0046539996,0.0028229998,1741885099.851733
-0.04875,-0.0135,0.2425,0.00358575,0.00396725,0.0027465,1741885099.866136
-0.04675,-0.015,0.24175,0.0029449998,0.0029755002,0.0022277501,1741885099.880474
-0.0445,-0.01625,0.2435,0.00201425,0.00149525,0.00115975,1741885099.894939
-0.04125,-0.0195,0.25025,0.0017242499,0.001419,0.001007,1741885099.9092538
-0.04075,-0.01875,0.25125,0.0012970001,0.0022735,0.000946,1741885099.9237509
-0.04125,-0.017,0.2485,0.001114,0.0027465,0.00090025004,1741885099.938664
-0.04075,-0.01775,0.2475,0.00068675,0.0031585,0.0007325,1741885099.952497
-0.041,-0.01825,0.24725,0.00065625,0.00317375,0.00068675,1741885099.966924
-0.04075,-0.01875,0.2465,0.000412,0.00245675,0.000473,1741885099.9812732
-0.03725,-0.01925,0.2475,7.625e-05,0.00213625,0.00030525,1741885099.995759
-0.0365,-0.0185,0.24875,-0.00016775,0.0019685,0.000183,1741885100.0102699
-0.03675,-0.01825,0.2495,-0.0002135,0.0019225,0.00010675,1741885100.024842
-0.03675,-0.01875,0.2495,-0.00027475,0.00198375,0.000183,1741885100.0393338
-0.03675,-0.01925,0.24825,-0.00036625,0.00187675,0.00039675,1741885100.053787
-0.03575,-0.02125,0.248,-0.00036625,0.00181575,0.0003205,1741885100.068636
-0.03475,-0.02075,0.24875,-0.00035100002,0.0018005001,1.5250001e-05,1741885100.0828009
-0.0325,-0.02025,0.24975,-0.00051875,0.00187675,-9.15e-05,1741885100.097746
-0.03175,-0.02075,0.2505,-0.00131225,0.0023345,-0.00010675,1741885100.1119108
-0.035,-0.019,0.249,-0.0014037499,0.002533,1.5250001e-05,1741885100.126355
-0.035,-0.01975,0.2475,-0.0012207499,0.00245675,0.00027475,1741885100.140832
-0.03325,-0.02125,0.247,-0.00064075,0.0016632499,0.00065625,1741885100.1553102
-0.03025,-0.02125,0.24825,-0.00029,0.0013427499,0.00067150005,1741885100.169826
-0.03025,-0.02,0.249,7.625e-05,0.00115975,0.000534,1741885100.184217
-0.03025,-0.01875,0.24925,-0.0002595,0.00125125,0.000412,1741885100.1986701
-0.0295,-0.02,0.25,-0.0010375,0.001709,0.00019825,1741885100.213113
-0.0295,-0.0205,0.24975,-0.00080875,0.0021057501,0.0,1741885100.22833
-0.03025,-0.01825,0.249,-6.1000002e-05,0.0021515,0.000229,1741885100.242052
-0.03325,-0.01525,0.2435,-0.00027475,0.00157175,0.00051875,1741885100.256525
-0.0325,-0.01575,0.2435,-0.00074775,0.001068,0.00059500005,1741885100.2709749
-0.031,-0.0165,0.2455,-0.00093075,0.00036625,0.0005035,1741885100.285515
-0.03,-0.01425,0.25025,-0.00057975,9.15e-05,0.00039675,1741885100.299954
-0.0295,-0.01275,0.252,-0.0002135,0.00016775,-0.0004425,1741885100.314611
-0.0275,-0.01075,0.2535,-0.0003815,0.00042725,-0.00077825,1741885100.329174
-0.02825,-0.0105,0.25175,-0.0013275,0.00045775,-0.000534,1741885100.343633
-0.03125,-0.01025,0.24675,-0.0017242499,0.00057975,-0.00061025,1741885100.358571
-0.03075,-0.01175,0.24675,-0.001526,0.00042725,-0.000824,1741885100.3727412
-0.02925,-0.01225,0.25025,-0.001175,4.575e-05,-0.00086975005,1741885100.3886452
-0.02925,-0.01125,0.2525,-0.000946,-0.00010675,-0.00096125,1741885100.401831
-0.029,-0.0105,0.2535,-0.001007,0.00030525,-0.001419,1741885100.4164119
-0.028,-0.013,0.2535,-0.00115975,0.00068675,-0.0016632499,1741885100.430921
-0.02725,-0.01475,0.25375,-0.0012970001,0.0013580001,-0.001892,1741885100.4456131
-0.02825,-0.0125,0.25425,-0.00112925,0.00157175,-0.00181575,1741885100.4601321
-0.02875,-0.0115,0.253,-0.00080875,0.0015565,-0.00137325,1741885100.474669
-0.02775,-0.01325,0.2495,-0.0008545,0.0013275,-0.00119025,1741885100.489194
-0.027,-0.015,0.2485,-0.000824,0.001068,-0.001068,1741885100.503905
-0.02525,-0.01525,0.24925,-0.00064075,0.00109875,-0.00102225,1741885100.518613
-0.02475,-0.01375,0.25125,-0.00036625,0.0015105,-0.00105275,1741885100.5330381
-0.02525,-0.01075,0.25325,-0.00024425,0.001892,-0.001236,1741885100.5478458
-0.02625,-0.01,0.252,-9.15e-05,0.0022277501,-0.0015565,1741885100.562098
-0.0265,-0.01075,0.25025,3.0500001e-05,0.00225825,-0.00187675,1741885100.5779772
-0.02575,-0.012,0.2485,0.0,0.001892,-0.00169375,1741885100.590902
-0.025,-0.01325,0.24825,3.0500001e-05,0.0010375,-0.0013885,1741885100.6054988
-0.0245,-0.0155,0.24775,-1.5250001e-05,0.00074775,-0.0013275,1741885100.62005
-0.02425,-0.01425,0.24775,0.0,0.00062550005,-0.0014495,1741885100.6345239
-0.02225,-0.0105,0.25125,4.575e-05,0.00071725,-0.00154125,1741885100.64907
-0.02175,-0.01,0.25325,-7.625e-05,0.00102225,-0.0014495,1741885100.663627
-0.0235,-0.01175,0.2505,-0.00029,0.00109875,-0.0012970001,1741885100.678496
-0.0235,-0.01425,0.24775,-0.000534,0.00115975,-0.00112925,1741885100.6925929
-0.02275,-0.01475,0.24575,-0.0005645,0.00093075,-0.0008545,1741885100.708528
-0.022,-0.013,0.2475,-0.00033575002,0.0007325,-0.0008545,1741885100.721576
-0.02075,-0.011,0.2495,-9.15e-05,0.00051875,-0.001068,1741885100.736116
-0.02075,-0.00825,0.25125,-0.00027475,0.00057975,-0.0012207499,1741885100.750653
-0.02225,-0.009,0.2505,-0.0008545,0.00083925005,-0.00160225,1741885100.765228
-0.023,-0.01425,0.251,-0.00109875,0.00083925005,-0.001648,1741885100.779904
-0.023,-0.01425,0.25275,-0.001175,0.00045775,-0.00108325,1741885100.794425
-0.0225,-0.01075,0.25325,-0.00105275,0.000412,-0.0007325,1741885100.808929
-0.022,-0.01025,0.2525,-0.00067150005,0.000763,-0.00093075,1741885100.82362
-0.019,-0.0105,0.25175,-0.0004425,0.000824,-0.00102225,1741885100.8384619
-0.0185,-0.00975,0.25025,-0.0002595,0.000824,-0.0010375,1741885100.852822
-0.01875,-0.00875,0.24925,-0.0003815,0.0009765,-0.0012970001,1741885100.868469
-0.02025,-0.012,0.2495,-0.00068675,0.00105275,-0.00148,1741885100.881912
-0.02,-0.0155,0.2515,-0.00109875,0.00125125,-0.001419,1741885100.89762
-0.019,-0.01775,0.255,-0.00105275,0.0012970001,-0.00105275,1741885100.91093
-0.0195,-0.0175,0.25475,-0.0007325,0.0013580001,-1.5250001e-05,1741885100.9255161
-0.0195,-0.01425,0.25225,-0.00064075,0.00146475,0.00030525,1741885100.939973
-0.01875,-0.01175,0.25125,-0.0007325,0.001709,0.00042725,1741885100.954485
-0.01625,-0.0095,0.2505,-0.000824,0.0018615,0.00030525,1741885100.9689531
-0.01525,-0.0105,0.24975,-0.0007325,0.0021972498,3.0500001e-05,1741885100.983516
-0.017,-0.01375,0.24675,-0.000534,0.0021819999,-7.625e-05,1741885100.9986508
-0.01725,-0.014,0.24675,-0.0004425,0.0019685,-6.1000002e-05,1741885101.0125902
-0.016,-0.013,0.2495,-0.000412,0.00154125,0.00033575002,1741885101.028451
-0.01325,-0.007,0.25625,-0.00029,0.0016785001,0.0004425,1741885101.041533
-0.01375,-0.00375,0.25575,-0.00019825,0.00239575,0.00039675,1741885101.055978
-0.016,-0.004,0.24925,-0.0003205,0.002533,0.00045775,1741885101.070484
-0.0155,-0.007,0.24825,-0.00027475,0.00231925,0.0007935,1741885101.084936
-0.01325,-0.0095,0.252,0.00019825,0.00225825,0.000946,1741885101.099385
-0.01325,-0.00875,0.25225,0.0010375,0.0025634998,0.0012055,1741885101.1137438
-0.013,-0.00375,0.2495,0.00086975005,0.0027312501,0.0013275,1741885101.128711
-0.0115,-0.00025,0.249,0.00059500005,0.00289925,0.0013427499,1741885101.1424372
-0.01025,0.00225,0.2495,0.0003815,0.0030669998,0.00083925005,1741885101.1567738
-0.01,0.00175,0.25125,0.00030525,0.00302125,0.0004425,1741885101.1710222
-0.01,0.00075,0.25125,0.00019825,0.0031585,7.625e-05,1741885101.185361
-0.00925,-0.00075,0.252,0.0003205,0.0032655,1.5250001e-05,1741885101.199743
-0.0095,-0.0015,0.252,0.00083925005,0.0031585,-0.00071725,1741885101.214154
-0.00925,-0.006,0.25125,0.00096125,0.00292975,-0.0012665,1741885101.2288
-0.00825,-0.00725,0.252,0.00086975005,0.0026854998,-0.0016785001,1741885101.243047
-0.007,-0.0075,0.25325,0.00036625,0.002365,-0.0021819999,1741885101.258527
-0.0045,-0.0065,0.258,0.00010675,0.00254825,-0.00238025,1741885101.271955
-0.005,-0.0065,0.2575,-0.0001525,0.0035095,-0.0027160002,1741885101.286525
-0.00575,-0.008,0.252,-0.00019825,0.0037385002,-0.0027312501,1741885101.301044
-0.004,-0.0095,0.25225,-0.00030525,0.0034942501,-0.0023497501,1741885101.315597
-0.00225,-0.00675,0.25175,-0.0002135,0.00340275,-0.002365,1741885101.330107
-0.002,-0.007,0.25,-0.00010675,0.0028229998,-0.0029449998,1741885101.344594
-0.00075,-0.012,0.25,-0.000412,0.00245675,-0.003128,1741885101.35912
0.0005,-0.01375,0.252,-0.00086975005,0.002243,-0.0031585,1741885101.373513
0.0015,-0.01325,0.25325,-0.00125125,0.00238025,-0.0029755002,1741885101.388696
0.002,-0.01225,0.2515,-0.0010375,0.00245675,-0.002884,1741885101.402475
0.00075,-0.01275,0.25175,-0.00109875,0.00251775,-0.0023497501,1741885101.416946
0.001,-0.012,0.24775,-0.00115975,0.0025787498,-0.00213625,1741885101.431466
0.00125,-0.011,0.24575,-0.00070200005,0.00201425,-0.0017852499,1741885101.4459178
0.00325,-0.0105,0.2485,-0.0005645,0.00146475,-0.0016175,1741885101.4604201
0.00475,-0.0095,0.252,-0.00057975,0.0007325,-0.0013275,1741885101.474891
0.00475,-0.008,0.255,-0.000534,0.00080875,-0.00137325,1741885101.489336
0.00625,-0.0085,0.25525,-0.0005035,0.00112925,-0.001526,1741885101.5037498
0.007,-0.00975,0.2545,-0.000534,0.0016632499,-0.0012970001,1741885101.5184472
0.0055,-0.012,0.25075,-0.0005035,0.0017852499,-0.001007,1741885101.532835
0.0045,-0.01125,0.25,-0.0005035,0.0016785001,-0.00033575002,1741885101.5482502
0.004,-0.00675,0.25025,-0.0005645,0.001526,-0.00010675,1741885101.5617988
0.0045,-0.0055,0.25,-0.0007935,0.00112925,-0.0002135,1741885101.576307
0.007,-0.007,0.25125,-0.00086975005,0.00093075,-0.00033575002,1741885101.590792
0.00825,-0.0075,0.253,-0.00083925005,0.00077825,-0.00029,1741885101.6052601
0.00775,-0.00625,0.25325,-0.0007935,0.000885,-0.0002135,1741885101.6197948
0.0065,-0.00575,0.25025,-0.000763,0.001007,-0.00019825,1741885101.63421
0.00575,-0.00525,0.24675,-0.00086975005,0.00071725,-0.0001525,1741885101.6487849
0.00625,-0.0055,0.24675,-0.000946,0.00030525,-4.575e-05,1741885101.663193
0.007,-0.0045,0.248,-0.00071725,-0.00024425,0.0001525,1741885101.6783
0.00875,-0.00225,0.251,-0.00042725,-0.00039675,0.000122000005,1741885101.692213
0.009,-0.0015,0.252,-0.00030525,-0.00042725,-4.575e-05,1741885101.7085388
0.008,-0.0035,0.25025,-0.000412,-0.00035100002,-9.15e-05,1741885101.721385
0.007,-0.005,0.2495,-0.00035100002,-0.0003205,-0.00010675,1741885101.735886
0.0055,-0.00575,0.2515,-0.0002595,-0.0003815,-9.15e-05,1741885101.750487
0.0055,-0.00575,0.25325,-0.0002595,-0.000473,-7.625e-05,1741885101.765007
0.00575,-0.0045,0.2555,-0.00033575002,-0.0005035,0.0,1741885101.779487
0.00575,-0.004,0.2555,-0.0002595,-0.00042725,0.0,1741885101.793924
0.007,-0.00325,0.256,-0.000183,-0.000122000005,-7.625e-05,1741885101.808773
0.00825,-0.0015,0.2545,-0.00019825,0.000183,-7.625e-05,1741885101.8230069
0.0075,-0.00225,0.25225,-0.00035100002,0.00051875,-0.0001525,1741885101.838582
0.00675,-0.00375,0.24975,-0.00042725,0.000473,-0.00016775,1741885101.851864
0.0065,-0.00425,0.2495,-0.00016775,0.00019825,-4.575e-05,1741885101.866296
0.00725,-0.004,0.252,-6.1000002e-05,4.575e-05,1.5250001e-05,1741885101.880718
0.00725,-0.00275,0.253,-3.0500001e-05,0.0,3.0500001e-05,1741885101.895106
0.0065,-0.00225,0.25275,-4.575e-05,0.00010675,-6.1000002e-05,1741885101.909539
0.0055,-0.00425,0.25175,-0.000229,0.00013725001,-9.15e-05,1741885101.924002
0.006,-0.006,0.2515,-0.0005035,7.625e-05,-4.575e-05,1741885101.938805
0.00725,-0.00575,0.2515,-0.00030525,4.575e-05,1.5250001e-05,1741885101.952878
0.0075,-0.00425,0.2515,4.575e-05,1.5250001e-05,9.15e-05,1741885101.96839
0.0075,-0.00175,0.25075,-9.15e-05,1.5250001e-05,0.000122000005,1741885101.9815948
0.00775,-0.00225,0.25,-0.0002595,1.5250001e-05,0.00010675,1741885101.995949
0.00825,-0.00275,0.25025,-0.0001525,4.575e-05,3.0500001e-05,1741885102.010347
0.0075,-0.0025,0.24975,-1.5250001e-05,7.625e-05,-3.0500001e-05,1741885102.024713
0.0065,-0.003,0.24925,0.0,-1.5250001e-05,-0.00010675,1741885102.0391512
0.006,-0.005,0.2515,-9.15e-05,-7.625e-05,-7.625e-05,1741885102.053696
0.0055,-0.0055,0.2525,-0.000122000005,-0.00016775,3.0500001e-05,1741885102.068584
0.00575,-0.0065,0.254,-0.00013725001,-0.00019825,0.000122000005,1741885102.082579
0.0065,-0.00525,0.25425,1.5250001e-05,-9.15e-05,0.00030525,1741885102.097588
0.0075,-0.00125,0.253,0.00013725001,1.5250001e-05,0.00030525,1741885102.111218
0.00775,0.00025,0.25175,0.00013725001,7.625e-05,0.000229,1741885102.125401
0.00775,0.00025,0.2505,-9.15e-05,7.625e-05,7.625e-05,1741885102.1397078
0.00775,-0.00075,0.24925,-0.00019825,6.1000002e-05,3.0500001e-05,1741885102.1540968
0.0075,-0.00125,0.2495,-0.00019825,1.5250001e-05,-6.1000002e-05,1741885102.168448
0.0065,-0.004,0.2505,-0.00013725001,-4.575e-05,-6.1000002e-05,1741885102.1830661
0.00675,-0.00525,0.25225,-9.15e-05,-9.15e-05,7.625e-05,1741885102.198377
0.00625,-0.00425,0.25425,0.0,-3.0500001e-05,0.00013725001,1741885102.211891
0.006,-0.00325,0.25425,1.5250001e-05,7.625e-05,0.0002135,1741885102.227783
0.00625,-0.0015,0.2535,-3.0500001e-05,7.625e-05,0.00019825,1741885102.24056
0.007,-0.0015,0.2535,-3.0500001e-05,4.575e-05,0.00013725001,1741885102.254886
0.0075,-0.0015,0.25325,3.0500001e-05,3.0500001e-05,6.1000002e-05,1741885102.269242
0.00725,-0.00175,0.25225,4.575e-05,7.625e-05,1.5250001e-05,1741885102.283464
0.007,-0.00125,0.25125,0.0,0.00016775,-6.1000002e-05,1741885102.298835
0.0065,-0.00175,0.25,-6.1000002e-05,0.00013725001,-7.625e-05,1741885102.312545
0.0065,-0.00225,0.25025,3.0500001e-05,7.625e-05,-9.15e-05,1741885102.327162
0.00675,-0.003,0.2515,0.00010675,3.0500001e-05,-9.15e-05,1741885102.341106
0.00675,-0.0025,0.25175,9.15e-05,3.0500001e-05,-4.575e-05,1741885102.355517
0.0065,-0.002,0.25175,0.0,9.15e-05,-3.0500001e-05,1741885102.369854
0.00675,-0.00225,0.25175,-7.625e-05,0.00010675,-7.625e-05,1741885102.3844
0.0075,-0.00275,0.25175,-6.1000002e-05,6.1000002e-05,-0.000122000005,1741885102.398818
0.0075,-0.0025,0.251,6.1000002e-05,4.575e-05,-0.000122000005,1741885102.413167
0.007,-0.00275,0.25075,3.0500001e-05,3.0500001e-05,-0.00010675,1741885102.428381
0.00675,-0.00325,0.2505,-4.575e-05,0.0,-6.1000002e-05,1741885102.442008
0.00675,-0.00375,0.25025,-7.625e-05,-1.5250001e-05,-1.5250001e-05,1741885102.4565482
0.0075,-0.0045,0.252,1.5250001e-05,-3.0500001e-05,0.00013725001,1741885102.4709032
0.008,-0.00375,0.25375,3.0500001e-05,4.575e-05,0.00019825,1741885102.4852018
0.008,-0.003,0.25475,4.575e-05,0.00035100002,0.000183,1741885102.4995031
0.0065,-0.00425,0.2525,-3.0500001e-05,0.000473,0.000183,1741885102.5139232
0.0065,-0.005,0.2515,-0.00016775,0.00051875,0.00029,1741885102.528482
0.00725,-0.00475,0.252,-3.0500001e-05,0.000473,0.0003815,1741885102.542711
0.0075,-0.00375,0.253,0.00010675,0.0005035,0.00054925,1741885102.558452
0.00825,-0.0025,0.25475,-1.5250001e-05,0.00067150005,0.00062550005,1741885102.571397
0.00825,-0.00375,0.254,-0.00010675,0.00090025004,0.00068675,1741885102.5857432
0.0085,-0.00475,0.25275,-9.15e-05,0.0012817499,0.00090025004,1741885102.600071
0.00825,-0.00125,0.25,4.575e-05,0.0013427499,0.00096125,1741885102.61429
0.0085,0.00075,0.24875,0.00019825,0.0012055,0.0007935,1741885102.628526
0.00925,0.0,0.248,0.0001525,0.00108325,0.00071725,1741885102.642735
0.00875,-0.00175,0.248,0.000122000005,0.001114,0.00086975005,1741885102.65812
0.0075,-0.005,0.25,0.00019825,0.0012055,0.001007,1741885102.671314
0.00825,-0.00475,0.25325,0.0002135,0.0012207499,0.00112925,1741885102.685673
0.01,-0.00325,0.25725,0.000229,0.00148,0.0012970001,1741885102.700022
0.0115,-0.00175,0.25875,0.00029,0.00169375,0.0012817499,1741885102.7143092
0.01075,-0.00175,0.255,1.5250001e-05,0.00163275,0.001007,1741885102.728575
0.011,-0.00175,0.2485,-0.00016775,0.00137325,0.0009155,1741885102.743028
0.01075,-0.00125,0.2475,-0.00027475,0.000946,0.000885,1741885102.75854
0.01175,-0.001,0.25,-0.0003815,0.000824,0.0009155,1741885102.771741
0.012,-0.001,0.25125,-0.00057975,0.00086975005,0.00099175,1741885102.786083
0.012,-0.0015,0.252,-0.00115975,0.001114,0.0009765,1741885102.800394
0.013,-0.00525,0.25025,-0.00148,0.001114,0.00096125,1741885102.8148139
0.0135,-0.007,0.249,-0.00204475,0.001068,0.00146475,1741885102.8292322
0.01375,-0.0045,0.25075,-0.0022125002,0.00105275,0.00177,1741885102.843606
0.0135,-0.00125,0.25225,-0.00231925,0.001114,0.00175475,1741885102.858635
0.01275,0.00075,0.252,-0.002533,0.00105275,0.0015105,1741885102.8723168
0.013,-0.0005,0.251,-0.00283825,0.000946,0.0013427499,1741885102.886716
0.0125,-0.00125,0.24925,-0.00308225,0.00057975,0.00137325,1741885102.901132
0.01325,0.001,0.24875,-0.00289925,0.00033575002,0.0013885,1741885102.9154181
0.01425,0.002,0.2495,-0.0024872501,0.00016775,0.00143425,1741885102.929727
0.0125,0.0055,0.249,-0.002365,0.000122000005,0.00137325,1741885102.944012
0.01,0.00675,0.2485,-0.002365,0.00016775,0.00096125,1741885102.958833
0.0085,0.009,0.249,-0.00213625,0.000412,0.00059500005,1741885102.972575
0.01025,0.0065,0.2505,-0.0016785001,0.00068675,0.000183,1741885102.9868422
0.0125,0.00375,0.25225,-0.0013427499,0.0010375,-9.15e-05,1741885103.001208
0.015,0.004,0.2545,-0.00125125,0.00108325,0.0,1741885103.015457
0.0155,0.00525,0.25325,-0.0005645,0.001236,0.00010675,1741885103.029813
0.0185,0.009,0.25375,-0.00042725,0.0011445,0.00013725001,1741885103.044102
0.018,0.00975,0.25425,-0.0005645,0.0012055,0.0002595,1741885103.058383
0.017,0.00825,0.25275,-0.00086975005,0.00131225,0.0002135,1741885103.072747
0.01725,0.00825,0.253,-0.0013427499,0.00137325,0.000229,1741885103.0886369
0.0165,0.008,0.25275,-0.00175475,0.00154125,0.00054925,1741885103.1012428
0.01825,0.006,0.25425,-0.00169375,0.0016175,0.00065625,1741885103.115554
0.01925,0.00675,0.25625,-0.00163275,0.0017395001,0.0010375,1741885103.129836
0.0165,0.009,0.25825,-0.00163275,0.001953,0.0012055,1741885103.1441228
0.01775,0.01175,0.25925,-0.0009765,0.00358575,0.0012665,1741885103.1586828
0.02025,0.01675,0.2655,0.00024425,0.00463875,0.00175475,1741885103.172579
0.0175,0.01375,0.2665,0.0015105,0.0057677496,0.0023497501,1741885103.186919
0.01825,0.01,0.26275,0.00154125,0.007599,0.00267025,1741885103.201217
0.0245,0.00325,0.2515,0.00074775,0.0074920002,0.0027312501,1741885103.2154372
0.02425,0.0025,0.24875,0.000885,0.00637825,0.002884,1741885103.2295942
0.0225,0.0055,0.253,0.002533,0.0061645,0.00328075,1741885103.244002
0.0225,0.0065,0.25425,0.0043182503,0.00631725,0.00378425,1741885103.258582
0.023,0.0085,0.25125,0.0053252503,0.00611875,0.00440975,1741885103.272394
0.0285,0.01125,0.2395,0.0047607496,0.00543225,0.004242,1741885103.286572
0.0305,0.01125,0.237,0.00331125,0.004074,0.00238025,1741885103.300759
0.03175,0.0085,0.238,0.0030669998,0.00340275,0.00175475,1741885103.315003
0.03225,0.00725,0.23725,0.0042115003,0.00204475,0.0021057501,1741885103.3291981
0.034,0.00275,0.2335,0.005066,0.00109875,0.00190725,1741885103.343369
0.0355,0.0005,0.235,0.0054932497,-0.0002595,0.0013427499,1741885103.3587358
0.0355,0.0005,0.237,0.00494375,-0.00302125,0.00093075,1741885103.37201
0.0325,0.002,0.24275,0.0042725,-0.003769,0.000885,1741885103.386281
0.03325,0.002,0.24725,0.0025634998,-0.0042572496,0.0003205,1741885103.400567
0.03275,-0.001,0.25225,0.0019225,-0.0043639997,9.15e-05,1741885103.415089
0.031,-0.00325,0.251,0.0012665,-0.00453175,-0.0004425,1741885103.4295611
0.02875,-0.0055,0.24725,0.00096125,-0.00491325,-0.00102225,1741885103.443987
0.03,-0.00425,0.247,0.0005645,-0.0053405,-0.0016175,1741885103.458494
0.0315,-0.003,0.2495,-6.1000002e-05,-0.0049590003,-0.001892,1741885103.4730911
0.0305,-0.0025,0.25475,-0.00016775,-0.004074,-0.0018615,1741885103.488513
0.026,-0.001,0.25375,-0.00071725,-0.0026854998,-0.00175475,1741885103.50225
0.022,0.00125,0.25025,-0.00119025,-0.00276175,-0.00112925,1741885103.516747
0.02475,-0.002,0.25175,-0.0016632499,-0.00399775,-0.00024425,1741885103.531277
0.02575,-0.00275,0.2545,-0.0013885,-0.004303,-9.15e-05,1741885103.545917
0.0225,-0.0025,0.25275,-0.00051875,-0.0035704998,-0.0001525,1741885103.5605419
0.01875,-0.00425,0.249,-0.000534,-0.00292975,-0.0002135,1741885103.5750668
0.0195,-0.004,0.249,-0.0008545,-0.00190725,-3.0500001e-05,1741885103.5895739
0.01975,-0.00325,0.24925,-0.00071725,-0.00169375,0.00010675,1741885103.6041899
0.01925,-0.00375,0.24925,-0.0004425,-0.00169375,0.00024425,1741885103.618701
0.018,-0.00275,0.249,9.15e-05,-0.0017852499,0.0002595,1741885103.633085
0.0155,-0.00275,0.25075,0.00019825,-0.00175475,0.00019825,1741885103.648576
0.015,-0.00275,0.252,0.00013725001,-0.0015565,0.0002135,1741885103.6620018
0.01675,-0.0025,0.25225,0.00019825,-0.0013580001,0.00024425,1741885103.676376
0.01875,-0.00225,0.25225,0.0007325,-0.00090025004,0.0002135,1741885103.6908329
0.0195,0.00075,0.25025,0.00109875,-0.00062550005,0.00019825,1741885103.705062
0.0155,0.00275,0.24775,0.0013580001,-0.00039675,0.0001525,1741885103.719361
0.01625,0.0015,0.24225,0.0007325,-4.575e-05,-0.00042725,1741885103.7337961
0.0195,-0.0005,0.241,-0.00013725001,-0.0001525,-0.000763,1741885103.748805
0.02,-0.0,0.23975,-0.00119025,-0.0012970001,-0.0010375,1741885103.7627468
0.0195,0.00225,0.238,-0.0013580001,-0.0019989999,-0.0012055,1741885103.778123
0.017,0.00025,0.23875,-0.00193775,-0.0041810004,-0.00154125,1741885103.791713
0.01275,0.00025,0.245,-0.00187675,-0.00491325,-0.00146475,1741885103.806178
0.01225,0.0005,0.24775,-0.00068675,-0.0047912505,-0.00108325,1741885103.8206909
0.01125,0.00025,0.25075,-0.00035100002,-0.0044250004,-0.00086975005,1741885103.835128
0.00975,0.0,0.2515,-0.00048825,-0.0039825,-0.00074775,1741885103.849469
0.00825,-0.00025,0.251,-0.00083925005,-0.00317375,-0.001068,1741885103.864062
0.005,-0.00025,0.2545,-0.00064075,-0.00292975,-0.0012970001,1741885103.878844
0.0045,-0.00025,0.2585,0.0002135,-0.00242625,-0.00096125,1741885103.893055
0.00625,-0.0015,0.26025,0.0005035,-0.00201425,-0.0005645,1741885103.908797
0.0075,-0.003,0.2585,0.000412,-0.00115975,-0.00024425,1741885103.921979
0.0065,-0.0035,0.2605,0.000229,-0.00090025004,-0.00016775,1741885103.936519
0.00625,-0.0045,0.26275,0.0,0.0001525,3.0500001e-05,1741885103.950968
0.007,-0.0045,0.26375,1.5250001e-05,0.00054925,9.15e-05,1741885103.965285
0.007,-0.00225,0.261,0.000412,0.000824,0.00033575002,1741885103.979566
0.00725,-0.00075,0.25775,0.00204475,0.00148,0.000946,1741885103.993898
0.00375,0.0025,0.25425,0.00267025,0.0016632499,0.001175,1741885104.008884
0.00175,0.0025,0.25575,0.0023345,0.0016632499,0.00119025,1741885104.0223439
0.0025,-0.00275,0.25625,0.00131225,0.00148,0.000763,1741885104.0366971
0.0055,-0.005,0.2545,-0.00054925,0.00125125,0.0,1741885104.0510368
0.0085,-0.00475,0.254,-0.00080875,0.00143425,-9.15e-05,1741885104.065563
0.0085,-0.00575,0.25325,-0.00099175,0.00177,-0.00010675,1741885104.0801542
0.00825,-0.00575,0.253,-0.0016785001,0.00216675,-0.0002595,1741885104.0947
0.009,-0.0045,0.254,-0.00193775,0.00216675,-0.000412,1741885104.109149
0.0105,-0.00325,0.254,-0.0015565,0.0023345,-0.00051875,1741885104.123759
0.012,-0.00225,0.2525,-0.00105275,0.00242625,-0.00062550005,1741885104.139112
0.01125,0.00075,0.25225,-0.000412,0.00254825,-0.00070200005,1741885104.152546
0.01225,0.0045,0.25,-0.000473,0.0025634998,-0.00061025,1741885104.166966
0.0135,0.00375,0.249,-0.0013275,0.0017242499,-0.000473,1741885104.18137
0.01425,0.0005,0.245,-0.00154125,0.001007,-0.000412,1741885104.195759
0.01275,-0.00125,0.243,-0.0014037499,0.00036625,-0.0003815,1741885104.2103271
0.01275,-0.0025,0.242,-0.00096125,-0.0002595,-0.00036625,1741885104.224842
0.0145,-0.00225,0.24275,-0.00093075,-0.000473,-0.00039675,1741885104.2395961
0.015,-0.00025,0.243,-0.00099175,-0.0005645,-0.00036625,1741885104.254049
0.014,0.00275,0.2435,-0.00090025004,-0.000473,-0.0003205,1741885104.269087
0.01375,0.004,0.243,-0.0007325,-0.0004425,-0.000229,1741885104.283061
0.01325,0.004,0.24175,-0.001114,-0.00109875,-0.00019825,1741885104.299017
0.01325,0.00325,0.2425,-0.0012970001,-0.00238025,-6.1000002e-05,1741885104.3119428
0.014,0.0035,0.2475,-0.000473,-0.00245675,-3.0500001e-05,1741885104.3264372
0.013,0.004,0.25125,0.00119025,-0.00198375,0.00027475,1741885104.340797
0.0085,0.00375,0.25575,0.00137325,-0.00154125,0.00042725,1741885104.355092
0.007,0.00225,0.25725,0.001419,-0.00108325,0.0004425,1741885104.369256
0.00725,-0.0,0.26,0.00154125,-0.0002135,0.0005035,1741885104.383683
0.0105,-0.004,0.26325,0.0013885,-1.5250001e-05,0.00059500005,1741885104.398676
0.01025,-0.00475,0.26275,0.00115975,-3.0500001e-05,0.00054925,1741885104.412595
0.011,-0.0015,0.26075,0.0010375,0.00010675,0.00054925,1741885104.428597
0.0095,0.00025,0.25925,0.00071725,0.00054925,0.0007935,1741885104.441204
0.00675,0.0035,0.257,0.0005035,0.0005035,0.000824,1741885104.4553869
0.00775,0.004,0.2585,0.000229,0.0002135,0.00067150005,1741885104.469552
0.00975,0.0035,0.26075,-0.000122000005,7.625e-05,0.00036625,1741885104.483912
0.01075,-0.00025,0.2605,-0.0003205,0.00035100002,0.00024425,1741885104.498253
0.011,-0.00125,0.2595,-0.00074775,0.00086975005,6.1000002e-05,1741885104.512701
0.011,0.0005,0.25625,-0.00077825,0.001114,1.5250001e-05,1741885104.528598
0.01125,0.0025,0.25325,-0.00093075,0.00163275,-6.1000002e-05,1741885104.541379
0.01,0.004,0.2505,-0.0012207499,0.0017242499,-0.000183,1741885104.5558872
0.00975,0.0045,0.24975,-0.00157175,0.00181575,-0.00039675,1741885104.570347
0.0115,0.005,0.24875,-0.0021057501,0.00193775,-0.0009765,1741885104.584904
0.01375,0.0065,0.24925,-0.00231925,0.0019225,-0.001068,1741885104.599252
0.0135,0.00675,0.25025,-0.0029907501,0.0022735,-0.00109875,1741885104.613683
0.01275,0.00625,0.248,-0.0033722501,0.00238025,-0.0012207499,1741885104.62885
0.0125,0.00675,0.24625,-0.003418,0.0018005001,-0.001526,1741885104.642438
0.01325,0.00625,0.2475,-0.0031889998,0.001175,-0.00154125,1741885104.658465
0.014,0.0065,0.25,-0.00308225,0.00059500005,-0.00146475,1741885104.67115
0.01425,0.00625,0.25275,-0.00331125,0.0,-0.00131225,1741885104.685521
0.01425,0.0045,0.25875,-0.0032655,1.5250001e-05,-0.0013275,1741885104.69992
0.01425,0.0055,0.2575,-0.002777,0.00051875,-0.0013885,1741885104.714314
0.01325,0.0115,0.25325,-0.00263975,0.00067150005,-0.00131225,1741885104.728838
0.0135,0.01275,0.25225,-0.00267025,0.00080875,-0.001114,1741885104.743339
0.0155,0.0115,0.254,-0.0027160002,0.0007935,-0.001236,1741885104.758817
0.01575,0.01225,0.2555,-0.0030365,0.00065625,-0.0018005001,1741885104.772094
0.01325,0.0115,0.25475,-0.0034790002,0.00051875,-0.0021515,1741885104.786537
0.014,0.0065,0.2545,-0.00408925,0.00013725001,-0.00251775,1741885104.800971
0.015,0.00625,0.254,-0.005066,-0.00059500005,-0.00225825,1741885104.815444
0.018,0.0145,0.2565,-0.00491325,-0.00048825,-0.0019225,1741885104.829932
0.018,0.01725,0.25625,-0.0036010002,-0.00010675,-0.0016175,1741885104.8444118
0.0145,0.0135,0.2525,-0.00302125,-9.15e-05,-0.00160225,1741885104.858921
0.014,0.0145,0.25225,-0.00296025,-0.00024425,-0.00148,1741885104.873353
0.01625,0.01725,0.2555,-0.003006,-0.000229,-0.00131225,1741885104.888892
0.0165,0.01825,0.255,-0.00325,-0.00013725001,-0.0009765,1741885104.9025202
0.0155,0.01875,0.25225,-0.0034790002,-0.000412,-0.00105275,1741885104.916938
0.01425,0.02,0.25125,-0.00364675,-0.00080875,-0.00115975,1741885104.93153
0.0145,0.021,0.2515,-0.00355525,-0.00115975,-0.0012817499,1741885104.946034
0.01475,0.01975,0.253,-0.00358575,-0.00108325,-0.0012970001,1741885104.9605482
0.014,0.0195,0.2515,-0.0038757501,-0.00077825,-0.0012970001,1741885104.975126
0.01475,0.019,0.2465,-0.00381475,-0.00057975,-0.00112925,1741885104.989695
0.01575,0.0195,0.24425,-0.00331125,-0.00077825,-0.00051875,1741885105.004116
0.01475,0.027,0.2445,-0.0027312501,-0.00102225,-0.0002595,1741885105.01865
0.015,0.0285,0.24575,-0.00131225,-0.0007325,3.0500001e-05,1741885105.0329149
0.01625,0.03025,0.247,-0.00112925,-0.00065625,0.00013725001,1741885105.048904
0.0155,0.03075,0.2455,-0.00131225,-0.00068675,0.00024425,1741885105.0617611
0.01475,0.02825,0.24325,-0.00177,-0.00071725,0.000412,1741885105.0760949
0.0135,0.0255,0.2415,-0.001709,-0.0008545,0.0004425,1741885105.090553
0.01275,0.02575,0.2425,-0.00090025004,-0.00109875,0.00030525,1741885105.1049259
0.01325,0.02325,0.24675,-0.000763,-0.00112925,0.0003205,1741885105.1195672
0.0135,0.0235,0.249,-0.00057975,-0.001068,0.00070200005,1741885105.133823
0.013,0.0255,0.252,-0.00035100002,-0.00099175,0.000885,1741885105.14903
0.0125,0.02675,0.2525,-0.00019825,-0.000946,0.0012817499,1741885105.162816
0.01125,0.029,0.25125,-4.575e-05,-0.000946,0.00143425,1741885105.1785579
0.011,0.02825,0.24975,0.00033575002,-0.00080875,0.00146475,1741885105.191572
0.01125,0.0265,0.24925,0.0018005001,-0.00042725,0.001175,1741885105.205806
0.01325,0.0245,0.24925,0.0028074998,-0.00035100002,0.00115975,1741885105.2202282
0.0145,0.0245,0.24925,0.0051269997,-0.00035100002,0.0016175,1741885105.234567
0.0135,0.02575,0.24875,0.0064545004,-0.00027475,0.0019225,1741885105.248883
0.01225,0.02425,0.2475,0.0090637505,-0.00035100002,0.0020599999,1741885105.263146
0.011,0.01925,0.24525,0.0101775,-0.00039675,0.0021819999,1741885105.278562
0.01075,0.0165,0.245,0.01115425,-0.0002595,0.00245675,1741885105.291739
0.01025,0.01475,0.24575,0.01251225,0.00029,0.0029145,1741885105.305965
0.01225,0.015,0.2495,0.0128785,0.00083925005,0.00296025,1741885105.320134
0.012,0.01475,0.24975,0.013183501,0.0021515,0.00276175,1741885105.334325
0.009,0.01175,0.248,0.012496999,0.0026245,0.002411,1741885105.348508
0.0095,0.0095,0.247,0.011184749,0.00279225,0.00198375,1741885105.362846
0.011,0.006,0.2465,0.009140001,0.0022277501,0.00148,1741885105.378678
0.01425,0.00375,0.2465,0.00903325,0.0019685,0.0013580001,1741885105.391381
0.01425,0.00225,0.24775,0.00962825,0.00154125,0.00099175,1741885105.405503
0.01375,-0.0055,0.251,0.00924675,0.00143425,0.00090025004,1741885105.4198132
0.0155,-0.007,0.25175,0.0077667497,0.00160225,0.000885,1741885105.4342
0.016,-0.0105,0.2535,0.0075225,0.00184625,0.000763,1741885105.4488761
0.016,-0.0115,0.2545,0.00764475,0.0022125002,0.00059500005,1741885105.462828
0.016,-0.01175,0.256,0.00846875,0.0025787498,0.00042725,1741885105.478324
0.01575,-0.011,0.25475,0.0073547503,0.00239575,0.0003205,1741885105.491468
0.0165,-0.01,0.25,0.00488275,0.00109875,-0.00042725,1741885105.505884
0.0185,-0.0115,0.25175,0.0055847503,0.00061025,-0.00059500005,1741885105.520279
0.01975,-0.01325,0.2515,0.00691225,4.575e-05,-0.000763,1741885105.534653
0.018,-0.02325,0.252,0.0080415,-0.00016775,-0.00080875,1741885105.54929
0.0195,-0.02625,0.256,0.00903325,0.00051875,-0.0005035,1741885105.563475
0.01875,-0.0265,0.259,0.009002751,0.0015105,-0.000122000005,1741885105.5784671
0.01825,-0.02475,0.25425,0.00897225,0.0030669998,0.0002595,1741885105.59214
0.01875,-0.024,0.248,0.00868225,0.00511175,-0.00033575002,1741885105.60655
0.0225,-0.02725,0.249,0.0077515002,0.0047912505,-0.00074775,1741885105.620942
0.02425,-0.02775,0.25275,0.0046234997,0.00428775,-0.000473,1741885105.635391
0.02075,-0.03125,0.253,0.0033875,0.0044250004,-0.00045775,1741885105.6499252
0.02125,-0.0345,0.25125,0.0016785001,0.0052947504,-0.001236,1741885105.6643388
0.02625,-0.03775,0.248,0.001175,0.0058287503,-0.00148,1741885105.678764
0.02775,-0.03825,0.24575,0.00080875,0.00617975,-0.001587,1741885105.693135
0.02975,-0.03825,0.24325,-0.0004425,0.00593575,-0.001419,1741885105.708731
0.02775,-0.03375,0.2365,-0.0013427499,0.0054475004,-0.00119025,1741885105.7222211
0.027,-0.0325,0.23675,-0.00334175,0.0038757501,-0.0009765,1741885105.736653
0.02825,-0.03175,0.243,-0.003769,0.003296,-0.00074775,1741885105.7510872
0.028,-0.03,0.24675,-0.00317375,0.0025940002,-0.000183,1741885105.765642
0.0335,-0.03075,0.25125,-0.002655,0.00238025,-4.575e-05,1741885105.780132
0.0335,-0.036,0.241,-0.00340275,0.00080875,7.625e-05,1741885105.794764
0.0335,-0.036,0.24325,-0.0045777503,-0.00068675,0.00036625,1741885105.8094652
0.03375,-0.03475,0.247,-0.0048979996,-0.0012055,0.00067150005,1741885105.82397
0.03225,-0.033,0.2465,-0.0043944996,-0.0015565,0.00105275,1741885105.838924
0.02775,-0.031,0.2465,-0.0043335,-0.001648,0.001587,1741885105.8529458
0.0275,-0.03025,0.2475,-0.004486,-0.0020905002,0.0033264998,1741885105.867997
0.03275,-0.033,0.2475,-0.0045165,-0.00263975,0.0045165,1741885105.882048
0.0345,-0.034,0.2475,-0.004593,-0.003006,0.0065765,1741885105.8965068
0.03725,-0.031,0.2525,-0.0044250004,-0.002411,0.0071409997,1741885105.911048
0.0355,-0.02775,0.254,-0.003128,-0.0003815,0.008148249,1741885105.92559
0.033,-0.02525,0.256,-0.0025787498,0.0005035,0.008606,1741885105.939937
0.032,-0.02375,0.2555,-0.0023497501,0.00112925,0.00918575,1741885105.9544451
0.02575,-0.01575,0.24625,-0.00225825,0.00096125,0.01062,1741885105.968805
0.02625,-0.011,0.2425,-0.00231925,0.000122000005,0.0110625,1741885105.983218
0.027,-0.0095,0.243,-0.00270075,-0.00137325,0.0111085,1741885105.998681
0.03,-0.0065,0.2495,-0.00308225,-0.001953,0.0110932505,1741885106.01221
0.0295,-0.0055,0.2525,-0.0047455,-0.00187675,0.0115205,1741885106.026666
0.02875,-0.00925,0.25375,-0.0046234997,-0.0003815,0.009597749,1741885106.041096
0.031,-0.009,0.25275,-0.00099175,0.00080875,0.0054932497,1741885106.055532
0.02825,-0.007,0.24675,0.0002135,-0.00019825,0.0050355,1741885106.069943
0.02675,-0.00475,0.2475,4.575e-05,-0.00071725,0.00494375,1741885106.0844579
0.026,-0.0015,0.24975,-0.001587,0.0002135,0.00372325,1741885106.0991411
0.028,0.00425,0.25125,-0.00154125,0.00048825,0.0026854998,1741885106.113436
0.03025,0.0025,0.25075,-0.0002595,-0.00080875,0.001953,1741885106.1286888
0.0295,-0.0045,0.251,0.0,-0.0017395001,0.00190725,1741885106.142226
0.029,-0.003,0.25275,-0.00030525,-0.00198375,0.00154125,1741885106.1567411
0.025,-0.002,0.25225,-0.000534,-0.00137325,0.00070200005,1741885106.171214
0.0255,-0.00525,0.2505,-0.000122000005,-0.00033575002,-0.002472,1741885106.185719
0.02875,-0.01175,0.249,0.0005645,-0.00096125,-0.0033722501,1741885106.200214
0.0275,-0.0115,0.24925,0.001007,-0.00177,-0.0037537501,1741885106.214721
0.026,-0.009,0.25,0.00030525,-0.0016175,-0.003952,1741885106.229229
0.022,-0.00325,0.25025,-0.0004425,-0.0012055,-0.00437925,1741885106.24387
0.021,-0.002,0.2495,-0.00148,-0.001892,-0.0060577504,1741885106.258652
0.023,-0.007,0.25025,-0.00175475,-0.0028229998,-0.00672925,1741885106.2730381
0.02425,-0.01,0.2525,-0.0022735,-0.004074,-0.0076599997,1741885106.2884932
0.024,-0.013,0.254,-0.0026854998,-0.00413525,-0.00801075,1741885106.302237
0.0225,-0.01275,0.253,-0.0033875,-0.00343325,-0.008133001,1741885106.316872
0.02,-0.01125,0.251,-0.0035095,-0.00289925,-0.0078735,1741885106.331383
0.01975,-0.01125,0.2505,-0.00320425,-0.00177,-0.00767525,1741885106.345885
0.02275,-0.00575,0.2535,-0.0029449998,-0.00175475,-0.0074004997,1741885106.360644
0.02075,-0.00525,0.252,-0.0031127501,-0.0021972498,-0.0065612504,1741885106.375272
0.01925,-0.0065,0.2515,-0.0046845004,-0.0021057501,-0.0057525,1741885106.389836
0.02,-0.006,0.25225,-0.0048674997,-0.0014037499,-0.0057677496,1741885106.4044
0.02075,-0.006,0.25125,-0.0035095,-0.00105275,-0.0051880004,1741885106.41914
0.01825,-0.0015,0.2495,-0.003296,-0.00160225,-0.0044707498,1741885106.4337358
0.01625,0.0005,0.24975,-0.004486,-0.00175475,-0.00408925,1741885106.44871
0.01775,0.003,0.2505,-0.005005,-0.00119025,-0.0046539996,1741885106.46272
0.0195,0.0045,0.2505,-0.0048065,-0.00054925,-0.0050812503,1741885106.4771898
0.01725,0.0025,0.24675,-0.0048979996,-0.00061025,-0.0047455,1741885106.49162
0.0155,0.0015,0.2455,-0.0056609996,-0.00096125,-0.0040435,1741885106.506054
0.0165,0.003,0.24625,-0.0056304997,-0.001068,-0.0037537501,1741885106.5205681
0.017,0.00625,0.24825,-0.0052337497,-0.0012665,-0.0034942501,1741885106.535058
0.017,0.00925,0.251,-0.0042725,-0.001892,-0.00369275,1741885106.5495648
0.016,0.00875,0.25275,-0.004074,-0.0021057501,-0.0041044997,1741885106.564049
0.01375,0.00575,0.25175,-0.0026854998,-0.0022277501,-0.0056609996,1741885106.5787132
0.01175,0.00025,0.25125,-0.0015105,-0.0026854998,-0.006302,1741885106.59315
0.01225,0.0015,0.25325,-1.5250001e-05,-0.00463875,-0.0061035,1741885106.60886
0.01275,0.0015,0.257,0.0005035,-0.0048674997,-0.00643925,1741885106.622287
0.0115,0.00725,0.25675,0.0012055,-0.00469975,-0.0070037497,1741885106.6366022
0.0135,0.018,0.251,0.0008545,-0.00517275,-0.00720225,1741885106.65094
0.0135,0.021,0.2515,-0.000122000005,-0.00546275,-0.0067597497,1741885106.665406
0.012,0.01875,0.25175,-0.0021972498,-0.0049742498,-0.0055847503,1741885106.679851
0.009,0.0025,0.252,-0.0024872501,-0.00419625,-0.0052795,1741885106.694344
0.00775,0.0025,0.2505,-0.00190725,-0.00283825,-0.0041044997,1741885106.708939
0.0075,0.007,0.24925,-0.00112925,-0.002777,-0.003662,1741885106.723316
0.006,0.007,0.2505,-0.0004425,-0.0032347501,-0.0030365,1741885106.739063
0.0075,0.01125,0.25275,-0.0004425,-0.0032195,-0.0030669998,1741885106.752317
0.009,0.01325,0.25475,0.0009765,-0.00201425,-0.002533,1741885106.766691
0.00575,0.0115,0.253,0.00163275,-0.0012665,-0.0020599999,1741885106.781137
0.004,0.0135,0.251,0.001648,-0.00062550005,-0.0016632499,1741885106.7955241
0.00325,0.01575,0.24975,0.000885,-1.5250001e-05,-0.001709,1741885106.809835
0.00625,0.01175,0.2515,0.0007935,4.575e-05,-0.00198375,1741885106.824152
0.00925,0.0075,0.2525,0.0016785001,0.00039675,-0.00154125,1741885106.8392
0.00475,0.006,0.251,0.002243,0.00057975,-0.00096125,1741885106.852849
0.00375,0.006,0.2505,0.00231925,0.00112925,-0.0002595,1741885106.868999
0.00225,0.00825,0.25075,0.00216675,0.00146475,-0.000183,1741885106.881551
0.00125,0.00825,0.24925,0.0021057501,0.00157175,-0.00042725,1741885106.8958468
0.0015,0.00825,0.2485,0.0016785001,0.00059500005,-0.00093075,1741885106.910262
0.0055,0.0075,0.252,0.00119025,-3.0500001e-05,-0.00090025004,1741885106.924649
0.006,0.00675,0.2525,0.00059500005,0.000229,-0.00070200005,1741885106.939153
0.00625,0.0055,0.2495,0.00067150005,0.00051875,-0.00064075,1741885106.9533162
0.00675,0.00525,0.24875,0.00146475,0.00048825,-0.000473,1741885106.968912
0.005,0.00675,0.24725,0.001831,0.0001525,-0.00051875,1741885106.981847
0.004,0.00625,0.2475,0.0019685,-0.000229,-0.00068675,1741885106.996225
0.0035,0.005,0.2485,0.0022125002,-0.0005035,-0.00119025,1741885107.010647
0.0055,0.00025,0.25175,0.00251775,-0.000534,-0.0013580001,1741885107.025119
0.00725,0.00025,0.25275,0.00279225,-0.00083925005,4.575e-05,1741885107.039401
0.00575,0.00175,0.254,0.0025940002,-0.00045775,0.00064075,1741885107.0537028
0.00525,0.002,0.25375,0.0025787498,0.00057975,0.00071725,1741885107.068943
0.00375,0.00075,0.252,0.00292975,0.00057975,0.00065625,1741885107.0821161
0.003,0.0,0.2515,0.00334175,0.00027475,0.000534,1741885107.096334
0.00425,-0.0,0.2525,0.00367725,-0.00067150005,0.000229,1741885107.110722
0.007,0.00025,0.2555,0.0037385002,-0.000763,0.0003205,1741885107.125037
0.00625,0.00075,0.25475,0.00305175,-0.00033575002,0.00045775,1741885107.139434
0.00425,-0.002,0.251,0.0031889998,-0.0001525,0.000473,1741885107.1538591
0.00225,-0.00375,0.24975,0.003769,-0.0002595,0.00019825,1741885107.168891
0.0025,-0.0065,0.2505,0.00384525,-0.00065625,-0.00010675,1741885107.182713
0.0025,-0.008,0.2515,0.00396725,-0.00102225,-0.00024425,1741885107.198706
0.0015,-0.00725,0.251,0.0041044997,-0.0013885,-0.00067150005,1741885107.212053
0.003,-0.00725,0.25075,0.0042572496,-0.0013427499,-0.001236,1741885107.226542
0.00525,-0.00725,0.25175,0.0049285004,-0.0017395001,-0.001419,1741885107.241004
0.0035,-0.01,0.25325,0.004837,-0.0020752498,-0.00086975005,1741885107.2555468
0.00325,-0.01175,0.2545,0.003952,-0.0014037499,-0.00045775,1741885107.270248
0.00325,-0.0135,0.254,0.004074,-0.00109875,-0.00048825,1741885107.284718
0.00175,-0.01325,0.252,0.00460825,-0.0012207499,-0.00027475,1741885107.2993438
0.0005,-0.0135,0.25225,0.004242,-0.0012817499,-6.1000002e-05,1741885107.3138182
0.0005,-0.0145,0.252,0.0031585,-0.00071725,0.000122000005,1741885107.3287501
0.0005,-0.018,0.252,0.0029907501,-0.000229,0.0,1741885107.3426502
0.0015,-0.0185,0.2525,0.00305175,0.0001525,-0.000183,1741885107.358863
0.00275,-0.01825,0.25275,0.00296025,0.00010675,0.000473,1741885107.37134
0.0015,-0.018,0.25,0.0025787498,0.00019825,0.000946,1741885107.385661
0.00075,-0.018,0.24925,0.0016632499,0.00093075,0.001419,1741885107.400094
0.00325,-0.0175,0.25,0.00125125,0.001236,0.0016175,1741885107.414313
0.00375,-0.017,0.2495,0.00090025004,0.001831,0.0021819999,1741885107.4287949
0.002,-0.02,0.249,0.00093075,0.00201425,0.002472,1741885107.44303
-0.001,-0.022,0.24975,0.001007,0.0020295,0.0026092501,1741885107.458124
-0.00225,-0.0225,0.25125,0.00067150005,0.00131225,0.0019685,1741885107.471864
0.00275,-0.02225,0.2565,0.000183,0.00096125,0.0017852499,1741885107.486153
0.0045,-0.02225,0.25825,-0.000473,0.001175,0.0021515,1741885107.5006661
0.0055,-0.02075,0.2565,-0.00061025,0.0015565,0.00238025,1741885107.515112
0.00625,-0.01925,0.254,-0.0009155,0.00238025,0.00279225,1741885107.5297012
0.00625,-0.016,0.24975,-0.001007,0.0025787498,0.0029907501,1741885107.544016
0.0055,-0.015,0.248,-0.000534,0.0025025,0.0029755002,1741885107.5588899
0.006,-0.01675,0.2475,-0.0001525,0.00238025,0.0028229998,1741885107.573118
0.0075,-0.01875,0.24875,9.15e-05,0.00231925,0.0028229998,1741885107.5882492
0.00875,-0.02025,0.2505,0.000122000005,0.0024414998,0.00334175,1741885107.601726
0.009,-0.02275,0.2515,0.0002135,0.002533,0.00364675,1741885107.615864
0.00875,-0.02375,0.25125,0.000946,0.0028074998,0.0042725,1741885107.630226
0.00875,-0.02025,0.25175,0.0013427499,0.0028074998,0.00444025,1741885107.644665
0.00875,-0.016,0.253,0.0013427499,0.00238025,0.00390625,1741885107.659053
0.01025,-0.01375,0.25325,0.00086975005,0.00216675,0.0033264998,1741885107.673343
0.01125,-0.01475,0.25175,0.00039675,0.0019989999,0.0028687501,1741885107.6890008
0.01125,-0.0155,0.24975,0.00054925,0.001587,0.0025634998,1741885107.701865
0.00975,-0.01775,0.2475,0.00074775,0.001175,0.0023345,1741885107.716165
0.0105,-0.01825,0.24775,0.000824,0.0005035,0.00154125,1741885107.730447
0.00875,-0.0195,0.2475,0.00074775,0.0002595,0.0010375,1741885107.745045
0.00925,-0.02075,0.247,1.5250001e-05,-0.00051875,1.5250001e-05,1741885107.759398
0.0115,-0.024,0.2485,-0.000183,-0.00080875,0.0001525,1741885107.773952
0.01,-0.0235,0.2485,-0.000229,-0.001068,0.00064075,1741885107.788417
0.0105,-0.02075,0.24925,-0.00039675,-0.00187675,0.0020295,1741885107.802853
0.01175,-0.021,0.2505,-0.00071725,-0.0023497501,0.002777,1741885107.818723
0.012,-0.021,0.251,-0.001419,-0.002472,0.00289925,1741885107.831732
0.0125,-0.0205,0.25175,-0.00146475,-0.00216675,0.00245675,1741885107.846297
0.01225,-0.021,0.25225,-0.0014037499,-0.0014037499,0.0018615,1741885107.8607519
0.01175,-0.023,0.253,-0.00146475,-0.00096125,0.00175475,1741885107.875385
0.011,-0.02375,0.25275,-0.00112925,-0.00016775,0.00175475,1741885107.889846
0.0095,-0.0265,0.25125,-0.000763,0.00010675,0.0018615,1741885107.904212
0.0095,-0.02725,0.251,-0.00051875,0.0003815,0.0019989999,1741885107.918783
0.01075,-0.02775,0.2515,-0.00019825,0.0009155,0.0025025,1741885107.9328902
0.01275,-0.02825,0.25375,7.625e-05,0.0012207499,0.00302125,1741885107.9480152
0.01175,-0.02575,0.253,0.0005645,0.00181575,0.0042115003,1741885107.961486
0.00775,-0.0135,0.25175,0.0004425,0.00193775,0.0045625,1741885107.975876
0.0085,-0.0065,0.25325,-0.00083925005,0.00184625,0.0042115003,1741885107.99023
0.014,-0.00375,0.2565,-0.00175475,0.00181575,0.00384525,1741885108.004637
0.0145,-0.00575,0.255,-0.0026245,0.001953,0.00355525,1741885108.019043
0.01375,-0.00775,0.251,-0.00358575,0.0024414998,0.00296025,1741885108.033401
0.01375,-0.0085,0.25,-0.0034484998,0.002472,0.00263975,1741885108.0490172
0.01375,-0.00875,0.24975,-0.0023039998,0.002121,0.0021515,1741885108.0622349
0.01375,-0.008,0.24975,-0.0017852499,0.00190725,0.0019225,1741885108.076652
0.01375,-0.00875,0.25025,-0.001526,0.0013427499,0.0013275,1741885108.091087
0.01525,-0.00975,0.2515,-0.00163275,0.00112925,0.001007,1741885108.105407
0.01575,-0.01075,0.25175,-0.00177,0.001068,0.00086975005,1741885108.1199958
0.01725,-0.0105,0.252,-0.0017395001,0.0011445,0.0009765,1741885108.134434
0.01725,-0.0095,0.25175,-0.001709,0.001236,0.00119025,1741885108.148899
0.01575,-0.00875,0.25075,-0.001892,0.0012665,0.00137325,1741885108.1633239
0.01675,-0.0085,0.251,-0.0018615,0.00119025,0.00119025,1741885108.178186
0.01825,-0.00875,0.252,-0.0013580001,0.00119025,0.001007,1741885108.192123
0.01975,-0.01025,0.253,-0.001114,0.0012207499,0.001068,1741885108.2065668
0.01925,-0.01125,0.2525,-0.00090025004,0.001526,0.00157175,1741885108.220902
0.0195,-0.0105,0.25025,-0.00067150005,0.00163275,0.001892,1741885108.235254
0.01925,-0.0105,0.2495,0.0001525,0.0017395001,0.00251775,1741885108.249504
0.01875,-0.01225,0.2475,0.0005035,0.0017242499,0.0025787498,1741885108.2638159
0.02,-0.0145,0.24725,0.0009155,0.001709,0.002533,1741885108.2782788
0.02,-0.0155,0.247,0.001587,0.00160225,0.0025787498,1741885108.292396
0.01725,-0.01125,0.247,0.0015105,0.0012665,0.0025787498,1741885108.306709
0.0165,-0.007,0.2485,0.00045775,0.00019825,0.0018005001,1741885108.321223
0.019,-0.0035,0.25225,-0.0002135,-0.0003205,0.00093075,1741885108.335726
0.021,-0.00475,0.252,-0.000946,-0.0007935,-0.0005645,1741885108.350349
0.0205,-0.0075,0.24825,-0.0009155,-0.000763,-0.000946,1741885108.364995
0.019,-0.0075,0.2475,-0.0008545,-0.00083925005,-0.001114,1741885108.379636
0.01725,-0.007,0.2475,-0.00039675,-0.00149525,-0.00143425,1741885108.394208
0.017,-0.011,0.24925,9.15e-05,-0.001831,-0.00169375,1741885108.408831
0.01825,-0.0125,0.251,0.000534,-0.0022125002,-0.0016175,1741885108.423303
0.01825,-0.007,0.25425,0.0003205,-0.00213625,-0.0014495,1741885108.438945
0.01725,-0.00675,0.25475,-0.0007325,-0.001648,-0.0012207499,1741885108.4523551
0.01475,-0.012,0.25325,-0.00108325,-0.0015565,-0.00108325,1741885108.4680052
0.01375,-0.01325,0.25275,-0.000763,-0.00213625,-0.00115975,1741885108.481521
0.01475,-0.011,0.25525,-0.000412,-0.00267025,-0.00131225,1741885108.4960902
0.01575,-0.0095,0.25725,6.1000002e-05,-0.00302125,-0.0013275,1741885108.510537
0.01575,-0.00825,0.25725,0.000122000005,-0.0028074998,-0.0012817499,1741885108.524998
0.0145,-0.00875,0.25525,0.00010675,-0.00251775,-0.0012665,1741885108.5394711
0.0135,-0.01,0.25225,0.00019825,-0.0021515,-0.00112925,1741885108.554006
0.01225,-0.01025,0.24825,0.00035100002,-0.00231925,-0.00096125,1741885108.5685608
0.01225,-0.0105,0.2485,0.00070200005,-0.00328075,-0.0005035,1741885108.582967
0.01175,-0.0085,0.25075,0.00071725,-0.0035704998,-0.0002135,1741885108.598131
0.0105,-0.00725,0.2505,0.00071725,-0.00369275,7.625e-05,1741885108.611927
0.00925,-0.0065,0.25075,0.0005645,-0.0036315,3.0500001e-05,1741885108.62653
0.009,-0.007,0.2515,-0.000473,-0.00343325,-0.00016775,1741885108.641118
0.00675,-0.00575,0.2485,-0.001114,-0.00343325,-0.00027475,1741885108.6557171
0.0055,-0.007,0.24725,-0.0018005001,-0.00355525,-0.00024425,1741885108.670488
0.00375,-0.00775,0.2495,-0.0029755002,-0.0041044997,6.1000002e-05,1741885108.684973
0.0025,-0.007,0.2505,-0.003128,-0.0041810004,3.0500001e-05,1741885108.699357
0.0005,-0.005,0.25025,-0.0033722501,-0.00413525,-0.0003205,1741885108.7140212
-0.0005,-0.00425,0.249,-0.00402825,-0.0045012496,-0.00035100002,1741885108.728894
0.00075,-0.00475,0.2485,-0.0054475004,-0.00535575,-0.00029,1741885108.74331
-0.00125,-0.004,0.25075,-0.005539,-0.00585925,-0.0005035,1741885108.758852
-0.00075,-0.00475,0.254,-0.00491325,-0.0067597497,-0.00071725,1741885108.772686
-0.005,-0.00125,0.2565,-0.0042572496,-0.0067445002,-0.00061025,1741885108.78865
-0.007,0.00375,0.25575,-0.0037537501,-0.006775,-0.00062550005,1741885108.801789
-0.00625,0.00525,0.25575,-0.0038605002,-0.0072785,-0.00054925,1741885108.816382
-0.00675,0.00275,0.25575,-0.0036315,-0.0077515002,-0.0005035,1741885108.831077
-0.00925,0.00025,0.25475,-0.0017852499,-0.0076905,-0.00070200005,1741885108.8456151
-0.0115,0.0015,0.25325,-0.00061025,-0.00720225,-0.000763,1741885108.860119
-0.01325,0.00175,0.251,0.00074775,-0.0062255003,-0.00093075,1741885108.874636
-0.018,0.004,0.249,0.00090025004,-0.00570675,-0.00115975,1741885108.889208
-0.01875,0.00375,0.2485,0.00119025,-0.0041044997,-0.0013580001,1741885108.903549
-0.0185,0.00375,0.25225,0.00093075,-0.003662,-0.00131225,1741885108.918901
-0.018,0.0025,0.2535,0.000473,-0.0028687501,-0.00090025004,1741885108.932522
-0.02025,0.00025,0.251,0.000412,-0.0024414998,-0.0007935,1741885108.946987
-0.022,0.00275,0.24925,0.0003815,-0.002411,-0.00096125,1741885108.9614809
-0.021,0.00225,0.24925,0.000473,-0.0024414998,-0.00105275,1741885108.97601
-0.021,0.00375,0.25125,0.00045775,-0.002411,-0.00105275,1741885108.99052
-0.02125,0.0055,0.2535,0.0007325,-0.00198375,-0.00119025,1741885109.004889
-0.022,0.003,0.2525,0.00093075,-0.0015565,-0.0012207499,1741885109.019485
-0.02275,0.00325,0.2505,0.0007325,-0.0011445,-0.0012055,1741885109.0339682
-0.02325,0.005,0.251,0.00064075,-0.00096125,-0.0012665,1741885109.0485408
-0.0235,0.00525,0.25125,0.0002595,-0.0003815,-0.00154125,1741885109.0630069
-0.02575,0.00525,0.24775,0.00030525,-0.00016775,-0.0019225,1741885109.078036
-0.027,0.006,0.246,0.0012817499,0.000122000005,-0.00302125,1741885109.091907
-0.0235,0.00575,0.249,0.0016175,6.1000002e-05,-0.0037385002,1741885109.10643
-0.02075,0.0025,0.252,0.0016785001,0.0,-0.0042572496,1741885109.120896
-0.0195,-0.00125,0.254,0.00157175,0.0005035,-0.0044250004,1741885109.135401
-0.02175,-0.004,0.2525,0.00177,0.00093075,-0.0043639997,1741885109.149813
-0.02275,-0.004,0.2505,0.002472,0.0014037499,-0.00408925,1741885109.164406
-0.0235,-0.0065,0.24725,0.0027160002,0.0013885,-0.00378425,1741885109.178912
-0.02275,-0.0085,0.247,0.0033570002,0.0011445,-0.00296025,1741885109.193283
-0.02,-0.012,0.248,0.00419625,0.00125125,-0.00228875,1741885109.208663
-0.0185,-0.0125,0.24975,0.007599,0.0023345,-0.0008545,1741885109.222403
-0.01825,-0.01475,0.25325,0.009292499,0.00308225,-0.000183,1741885109.23893
-0.01925,-0.0125,0.25375,0.009948749,0.0037385002,0.0004425,1741885109.251303
-0.019,-0.00825,0.2535,0.008727999,0.004486,0.00086975005,1741885109.2658062
-0.01775,-0.009,0.25175,0.00785825,0.0045165,0.0007935,1741885109.2802298
-0.01675,-0.013,0.25025,0.0070495,0.00444025,0.00070200005,1741885109.294621
-0.01475,-0.01925,0.2485,0.007019,0.0040435,0.00062550005,1741885109.308932
-0.01375,-0.01975,0.2485,0.00614925,0.0025025,0.00045775,1741885109.3233202
-0.0135,-0.02,0.248,0.00520325,0.0016785001,0.0004425,1741885109.339405
-0.0135,-0.02025,0.2465,0.00343325,0.00033575002,0.00027475,1741885109.3521888
-0.01425,-0.0195,0.2455,0.0031585,-1.5250001e-05,0.000229,1741885109.3666801
-0.0145,-0.02075,0.24625,0.0031127501,-0.0001525,0.000183,1741885109.3813949
-0.0145,-0.02125,0.2475,0.0027465,-0.00033575002,0.0,1741885109.395864
-0.013,-0.02125,0.25025,0.002243,-0.00033575002,-0.000122000005,1741885109.4103749
-0.01225,-0.02075,0.251,0.0014495,-0.0003205,-9.15e-05,1741885109.424991
-0.01425,-0.02275,0.2495,0.0013427499,-0.00035100002,-7.625e-05,1741885109.439606
-0.01475,-0.02375,0.24875,0.001236,-0.00061025,-0.00024425,1741885109.4542642
-0.01575,-0.0265,0.2495,0.001236,-0.00090025004,-0.0003205,1741885109.4687748
-0.01525,-0.02775,0.25175,0.001892,-0.001114,-0.00071725,1741885109.4833431
-0.01225,-0.0285,0.25675,0.0028535,-0.0012207499,-0.00071725,1741885109.4979131
-0.01375,-0.02775,0.25775,0.003296,-0.00163275,-0.000229,1741885109.512481
-0.01625,-0.02375,0.25525,0.001892,-0.0012207499,0.0004425,1741885109.52816
-0.0145,-0.0245,0.253,0.0016785001,-0.000183,0.00033575002,1741885109.541475
-0.01375,-0.0255,0.25075,0.0025025,0.0007325,0.000229,1741885109.555846
-0.01475,-0.027,0.24875,0.002777,0.00057975,0.00027475,1741885109.570293
-0.016,-0.02725,0.24975,0.00270075,-0.000122000005,0.000229,1741885109.584866
-0.018,-0.0275,0.25075,0.00238025,-0.00024425,1.5250001e-05,1741885109.599487
-0.0175,-0.02875,0.2505,0.0014495,-4.575e-05,-0.00036625,1741885109.614054
-0.01575,-0.03225,0.2495,0.00119025,7.625e-05,-0.00035100002,1741885109.6285
-0.0155,-0.0335,0.249,0.001007,9.15e-05,-7.625e-05,1741885109.643084
-0.01425,-0.03225,0.25175,0.001068,1.5250001e-05,0.000122000005,1741885109.658525
-0.0145,-0.03075,0.25175,0.0012970001,9.15e-05,0.00030525,1741885109.671859
-0.01525,-0.03,0.251,0.0013275,0.00048825,0.00029,1741885109.6861298
-0.0135,-0.03275,0.25675,0.001236,0.00080875,0.00016775,1741885109.700775
-0.01325,-0.0345,0.25925,0.00149525,0.00169375,9.15e-05,1741885109.715171
-0.0135,-0.036,0.25575,0.0013275,0.0019685,0.00013725001,1741885109.729704
-0.014,-0.03475,0.252,0.00027475,0.00190725,0.00033575002,1741885109.7440808
-0.0155,-0.0315,0.2465,-4.575e-05,0.00175475,0.0003815,1741885109.758933
-0.0145,-0.03225,0.24725,-0.00033575002,0.00163275,0.000473,1741885109.773293
-0.0125,-0.0345,0.25125,-0.00051875,0.0018005001,0.00065625,1741885109.788861
-0.01325,-0.03225,0.2515,-0.00065625,0.0020599999,0.00083925005,1741885109.8023648
-0.01325,-0.02875,0.25125,-0.00070200005,0.0026092501,0.00071725,1741885109.816792
-0.01075,-0.0265,0.2465,-0.0007325,0.0027312501,0.0005035,1741885109.8312519
-0.01075,-0.02725,0.243,-0.00070200005,0.002411,0.00030525,1741885109.8457081
-0.0125,-0.02725,0.24275,-0.000122000005,0.0020599999,0.00024425,1741885109.8601758
-0.0155,-0.026,0.2435,0.0022277501,0.00157175,0.00108325,1741885109.874609
-0.021,-0.0215,0.245,0.003296,0.0014495,0.0023497501,1741885109.888897
-0.0145,-0.0255,0.24425,0.0040587503,0.00048825,0.0054015,1741885109.903275
-0.00025,-0.0395,0.24925,0.0027312501,-0.00064075,0.0065155,1741885109.9185212
-0.00325,-0.04175,0.253,0.00112925,-0.0007935,0.006302,1741885109.932288
-0.005,-0.043,0.25225,0.00099175,0.0023497501,0.0031889998,1741885109.946729
-0.0025,-0.0435,0.24825,0.00198375,0.0029907501,0.00225825,1741885109.961112
-0.002,-0.043,0.248,0.00317375,0.001175,0.0021515,1741885109.975486
-0.00775,-0.0395,0.257,0.0029145,0.000229,0.0020599999,1741885109.989878
-0.01425,-0.03675,0.26025,0.0013580001,0.0013275,-0.00035100002,1741885110.004333
0.00425,-0.042,0.24825,0.00099175,0.0026245,-0.0012207499,1741885110.018772
0.001,-0.0395,0.2515,0.0012055,0.0028535,-0.00051875,1741885110.033185
-0.006,-0.0355,0.255,0.0010375,0.00231925,0.000229,1741885110.048125
-0.00225,-0.03775,0.248,0.001114,0.00228875,9.15e-05,1741885110.061912
-0.0085,-0.0345,0.25025,0.000946,0.00074775,-0.0003815,1741885110.0764
-0.00175,-0.03825,0.24075,0.00062550005,0.000885,-0.00115975,1741885110.091017
-0.0005,-0.04025,0.23825,0.0011445,-0.000122000005,-0.00102225,1741885110.1055942
-0.00225,-0.04225,0.24875,0.001892,-0.00062550005,-0.00065625,1741885110.120069
-0.00275,-0.042,0.25525,0.00238025,-0.0007325,-0.00064075,1741885110.1345952
-0.00325,-0.03975,0.251,0.001892,-0.000183,-0.0009765,1741885110.1491258
-0.00225,-0.03925,0.245,0.00146475,0.00059500005,-0.0011445,1741885110.163609
-0.00675,-0.03725,0.24775,0.0013427499,0.00096125,-0.00096125,1741885110.178186
-0.00325,-0.04225,0.24775,0.001236,0.0012207499,-0.00105275,1741885110.1924632
-0.00225,-0.04575,0.2475,0.0017852499,0.00059500005,-0.00054925,1741885110.208441
-0.00425,-0.0475,0.25225,0.0020905002,0.00019825,-0.00033575002,1741885110.221472
-0.00075,-0.04575,0.254,0.00231925,0.001007,-0.0003815,1741885110.236084
-0.0025,-0.043,0.2575,0.0027160002,0.0013580001,-0.0002595,1741885110.250666
-0.004,-0.045,0.2535,0.0022125002,0.002472,-0.0004425,1741885110.265196
-0.0015,-0.0475,0.23875,0.00163275,0.0022277501,-0.00054925,1741885110.279818
-0.00225,-0.04725,0.2405,0.00030525,0.00054925,-0.00030525,1741885110.294297
-0.00525,-0.04375,0.2455,-0.00010675,0.000183,-1.5250001e-05,1741885110.3090591
-0.0045,-0.04425,0.245,-0.00029,-0.00016775,0.000122000005,1741885110.323703
-0.00325,-0.046,0.2445,-0.00074775,-0.0005645,-0.0001525,1741885110.338953
-0.0035,-0.04375,0.248,-0.00102225,-0.00071725,-0.00010675,1741885110.353056
-0.00275,-0.04325,0.2495,-0.00125125,-0.000534,1.5250001e-05,1741885110.368298
-0.00075,-0.04175,0.2485,-0.001419,-0.00016775,0.00016775,1741885110.3822
0.0005,-0.04125,0.246,-0.0020905002,-9.15e-05,0.0007935,1741885110.396735
-0.0045,-0.04475,0.243,-0.0024414998,-0.00010675,0.0002595,1741885110.411285
-0.00175,-0.0465,0.2435,-0.00325,-0.000183,-0.0018615,1741885110.425886
0.00525,-0.044,0.24625,-0.00325,-0.0014495,-0.00193775,1741885110.440454
0.001,-0.04175,0.24975,-0.0036315,-0.0033264998,-0.001419,1741885110.455076
-0.00225,-0.04175,0.252,-0.0041810004,-0.00325,-0.001587,1741885110.469645
-0.001,-0.04175,0.251,-0.0045165,-0.0028687501,-0.00198375,1741885110.484471
-0.0025,-0.034,0.25275,-0.0052337497,-0.0017242499,-0.0028229998,1741885110.4991958
-0.007,-0.03075,0.2575,-0.005783,-0.00119025,-0.0031585,1741885110.5138829
-0.012,-0.0275,0.26,-0.004776,0.00019825,-0.00296025,1741885110.528803
-0.01025,-0.02875,0.25575,-0.00343325,0.00061025,-0.0023497501,1741885110.5430772
-0.0095,-0.03025,0.251,-0.002121,7.625e-05,-0.00175475,1741885110.558833
-0.00875,-0.03225,0.246,-0.0021057501,-0.0005035,-0.00187675,1741885110.572194
-0.00875,-0.03175,0.24725,-0.0016175,-0.00096125,-0.0023497501,1741885110.586866
-0.00975,-0.0305,0.2475,-0.00102225,-0.00074775,-0.00245675,1741885110.601585
-0.00775,-0.03125,0.24975,-6.1000002e-05,-0.00016775,-0.00225825,1741885110.6161559
-0.00475,-0.03275,0.25675,0.0004425,0.0002135,-0.0020752498,1741885110.630663
-0.00475,-0.03175,0.25675,0.0012055,0.0012207499,-0.00184625,1741885110.645195
-0.00925,-0.0305,0.2515,0.00157175,0.0017242499,-0.00184625,1741885110.659699
-0.0095,-0.03175,0.24775,0.00190725,0.0019989999,-0.001892,1741885110.6743639
-0.00625,-0.03475,0.245,0.001831,0.0017395001,-0.0018615,1741885110.6888971
-0.00125,-0.03875,0.246,0.00187675,0.0014037499,-0.0017395001,1741885110.703377
-0.001,-0.03725,0.24925,0.00292975,0.001068,-0.00137325,1741885110.718822
-0.0055,-0.036,0.2515,0.0037995,0.001236,-0.0012817499,1741885110.732476
-0.00725,-0.03775,0.2485,0.00466925,0.0012970001,-0.0013885,1741885110.7469592
-0.00375,-0.0355,0.24475,0.004593,0.001007,-0.0013885,1741885110.761478
-0.0005,-0.042,0.23925,0.003296,-0.00086975005,-0.00062550005,1741885110.776056
-0.00775,-0.04125,0.2425,0.0020905002,-0.002472,7.625e-05,1741885110.790497
-0.00825,-0.041,0.24675,0.00238025,-0.00292975,0.00030525,1741885110.805044
-0.005,-0.04825,0.2485,0.004547,-0.00228875,0.00036625,1741885110.819585
-0.006,-0.04875,0.24825,0.0045777503,-0.0019225,0.0005645,1741885110.8339572
-0.00525,-0.04675,0.24975,0.004547,-0.0012207499,0.00039675,1741885110.8489192
-0.0045,-0.0415,0.25275,0.0047455,-0.0019989999,0.0011445,1741885110.86297
-0.007,-0.04325,0.2495,0.0042572496,-0.00279225,0.00154125,1741885110.8786619
-0.0065,-0.047,0.2455,0.00381475,-0.00254825,0.00108325,1741885110.89198
-0.00625,-0.0485,0.24525,0.00228875,-0.0033875,0.00074775,1741885110.906485
-0.00975,-0.0445,0.246,0.0013427499,-0.00364675,0.00054925,1741885110.9209442
-0.01075,-0.04075,0.24725,0.00065625,-0.0036010002,0.00030525,1741885110.935476
-0.01275,-0.04475,0.24675,0.000122000005,-0.00279225,-3.0500001e-05,1741885110.9500039
-0.01425,-0.0465,0.24525,-4.575e-05,-0.002121,-0.000183,1741885110.964649
-0.01375,-0.04675,0.24625,-0.00030525,-0.00213625,-0.00019825,1741885110.979363
-0.0135,-0.04325,0.252,-0.0004425,-0.00238025,-0.00019825,1741885110.9941602
-0.0135,-0.04475,0.2525,-0.00057975,-0.001709,-0.00059500005,1741885111.008884
-0.01475,-0.0495,0.25025,-0.00067150005,-0.0012665,-0.0008545,1741885111.0236008
-0.0155,-0.04775,0.2495,-0.00067150005,-0.001114,-0.00177,1741885111.038945
-0.017,-0.047,0.24925,-0.00054925,-0.0014037499,-0.001953,1741885111.0528488
-0.0195,-0.04875,0.248,-0.000946,-0.0017395001,-0.00263975,1741885111.068607
-0.01775,-0.0465,0.246,-0.0012970001,-0.00169375,-0.003128,1741885111.082282
-0.016,-0.0435,0.24575,-0.00169375,-0.0019685,-0.0029907501,1741885111.098015
-0.01425,-0.043,0.247,-0.00201425,-0.0020905002,-0.002533,1741885111.111598
-0.0155,-0.04375,0.24775,-0.0021972498,-0.00181575,-0.0021057501,1741885111.126156
-0.018,-0.0445,0.248,-0.00177,-0.0005035,-0.0020295,1741885111.140838
-0.016,-0.044,0.247,-0.0016785001,4.575e-05,-0.0021515,1741885111.155514
-0.01475,-0.044,0.24625,-0.00143425,0.00013725001,-0.00160225,1741885111.170034
-0.015,-0.043,0.2485,-0.0009765,-7.625e-05,-0.0012055,1741885111.1847522
-0.01575,-0.0425,0.24975,-0.00024425,-0.00019825,-0.000412,1741885111.19945
-0.01825,-0.04225,0.24875,-0.000229,-0.000229,-0.00024425,1741885111.214171
-0.01725,-0.04225,0.249,-0.00042725,-3.0500001e-05,-0.00024425,1741885111.228966
-0.0155,-0.0415,0.25025,-0.00030525,-1.5250001e-05,-0.0001525,1741885111.2435951
-0.01675,-0.04025,0.24975,0.00013725001,3.0500001e-05,-0.00027475,1741885111.258695
-0.019,-0.04,0.2475,9.15e-05,0.000183,-0.00074775,1741885111.2724879
-0.0175,-0.041,0.2475,-0.00027475,0.0007325,-0.0017395001,1741885111.288756
-0.01625,-0.0395,0.2495,-0.00029,0.0007325,-0.0016785001,1741885111.301582
-0.01875,-0.0385,0.24875,-0.00035100002,0.00048825,-0.0013580001,1741885111.316155
-0.0195,-0.038,0.248,-0.0012055,7.625e-05,-0.00105275,1741885111.330795
-0.017,-0.04025,0.247,-0.00146475,-3.0500001e-05,-0.0009155,1741885111.3454552
-0.01675,-0.041,0.247,-0.000946,-0.00065625,-0.00059500005,1741885111.360109
-0.01875,-0.04075,0.24825,-0.00057975,-0.00099175,-0.000534,1741885111.374872
-0.0185,-0.04025,0.24825,-0.00019825,-0.00108325,-0.00019825,1741885111.389575
-0.01725,-0.04025,0.24875,-0.000229,-0.0009155,0.000122000005,1741885111.4041758
-0.01775,-0.03875,0.2485,-7.625e-05,-0.00030525,0.00054925,1741885111.4187598
-0.0205,-0.0385,0.2445,-3.0500001e-05,-0.0003815,0.00045775,1741885111.433324
-0.0195,-0.04025,0.24475,-0.00048825,-0.0013275,0.0003205,1741885111.4486122
-0.0185,-0.042,0.2485,-0.00048825,-0.0015565,0.00035100002,1741885111.4624808
-0.019,-0.03975,0.24825,-0.000122000005,-0.0012817499,0.0003815,1741885111.478359
-0.019,-0.03925,0.247,-0.00016775,-0.00108325,0.00030525,1741885111.491596
-0.0195,-0.03975,0.2465,-0.00030525,-0.0009155,0.00024425,1741885111.5062442
-0.021,-0.03925,0.246,-0.00010675,-0.0009155,-3.0500001e-05,1741885111.520854
-0.02075,-0.04075,0.25125,9.15e-05,-0.00096125,-0.0001525,1741885111.535427
-0.02125,-0.04025,0.25475,0.00077825,-0.00035100002,-0.00036625,1741885111.5500002
-0.0255,-0.0375,0.2545,0.0012055,0.000229,-0.00033575002,1741885111.564498
-0.024,-0.03875,0.25225,0.0017395001,0.00187675,0.00029,1741885111.578851
-0.01925,-0.03975,0.24625,0.0016175,0.00204475,0.00042725,1741885111.593405
-0.019,-0.03775,0.24475,0.0002595,0.0009765,6.1000002e-05,1741885111.608789
-0.0195,-0.0395,0.24525,-0.00048825,0.000412,-0.00029,1741885111.6224582
-0.0195,-0.043,0.24325,-0.000885,-1.5250001e-05,-0.00059500005,1741885111.638697
-0.02125,-0.047,0.242,-0.00131225,-0.0016785001,-0.000763,1741885111.651834
-0.021,-0.0465,0.24825,-0.0017242499,-0.00245675,-0.000534,1741885111.666581
-0.022,-0.0475,0.24975,-0.00245675,-0.002365,0.0001525,1741885111.6811981
-0.024,-0.04775,0.24675,-0.0027465,-0.0025940002,0.00027475,1741885111.695759
-0.02325,-0.04725,0.24575,-0.0027465,-0.0027160002,0.00048825,1741885111.7104
-0.0215,-0.04,0.249,-0.0029449998,-0.00305175,0.00061025,1741885111.7249658
-0.0205,-0.0375,0.25375,-0.003418,-0.0028074998,0.00057975,1741885111.73956
-0.02225,-0.03125,0.2535,-0.00364675,-0.0021819999,0.0002595,1741885111.7541592
-0.0245,-0.0315,0.25075,-0.0042267498,-0.000885,-0.00035100002,1741885111.7688582
-0.02425,-0.03225,0.248,-0.0045165,-0.00042725,-0.00027475,1741885111.783572
-0.02275,-0.03125,0.25,-0.0042725,0.000122000005,-0.000183,1741885111.798622
-0.02325,-0.02775,0.252,-0.0039215,0.0002595,-0.00030525,1741885111.812772
-0.0255,-0.028,0.25,-0.0038757501,0.00048825,-0.00045775,1741885111.828678
-0.029,-0.027,0.2455,-0.00440975,0.00102225,-0.00086975005,1741885111.8420749
-0.0285,-0.02425,0.2455,-0.0042115003,0.00096125,-0.000946,1741885111.8580961
-0.026,-0.023,0.247,-0.003296,-0.00010675,-0.00042725,1741885111.8713422
-0.02325,-0.02325,0.251,-0.0032195,-0.0003815,-0.0003815,1741885111.886196
-0.023,-0.02125,0.25225,-0.0034790002,-0.000412,-0.00077825,1741885111.900872
-0.02275,-0.02225,0.24975,-0.0035095,-0.000412,-0.001068,1741885111.915561
-0.02325,-0.024,0.24675,-0.0033722501,-0.00016775,-0.0012665,1741885111.93025
-0.025,-0.02525,0.2445,-0.0033875,-0.000183,-0.0012970001,1741885111.9449742
-0.026,-0.02575,0.246,-0.0035095,-0.0003815,-0.00115975,1741885111.9596102
-0.02825,-0.023,0.24875,-0.0033875,-0.00059500005,-0.00096125,1741885111.974298
-0.0285,-0.02375,0.2495,-0.00270075,-0.001175,-0.000534,1741885111.9898582
-0.026,-0.0255,0.25175,-0.002533,-0.00131225,-0.0003815,1741885112.0035899
-0.02625,-0.02425,0.25225,-0.00276175,-0.0013427499,-0.00013725001,1741885112.018767
-0.02625,-0.023,0.25075,-0.0028687501,-0.0011445,-6.1000002e-05,1741885112.033103
-0.026,-0.02275,0.24975,-0.00283825,-0.000946,-0.00010675,1741885112.0485811
-0.02725,-0.02175,0.2495,-0.00283825,-0.00109875,-0.0002135,1741885112.062571
-0.02825,-0.01875,0.25,-0.00320425,-0.0013580001,-9.15e-05,1741885112.078558
-0.0285,-0.0155,0.25025,-0.00369275,-0.0018005001,-1.5250001e-05,1741885112.091847
-0.03025,-0.01225,0.25075,-0.00364675,-0.0019989999,-4.575e-05,1741885112.106555
-0.02975,-0.013,0.25175,-0.00296025,-0.00181575,0.0004425,1741885112.121063
-0.02925,-0.0155,0.25525,-0.00242625,-0.00146475,0.00061025,1741885112.135762
-0.02925,-0.01525,0.255,-0.0012207499,-0.0007325,0.00042725,1741885112.150361
-0.0285,-0.0105,0.2515,-0.000473,-0.0003815,0.00039675,1741885112.165
-0.03,-0.0095,0.25125,0.00051875,-0.00010675,0.0007325,1741885112.179405
-0.03375,-0.00925,0.251,0.00027475,-0.00029,0.00067150005,1741885112.1939359
-0.03275,-0.011,0.25025,-9.15e-05,-0.00054925,0.00048825,1741885112.208838
-0.03025,-0.0145,0.24875,-0.0002135,-0.0009765,0.00039675,1741885112.223222
-0.03025,-0.0145,0.249,1.5250001e-05,-0.00108325,0.0005645,1741885112.2387562
-0.03075,-0.014,0.2495,0.0002135,-0.00099175,0.00080875,1741885112.252136
-0.02925,-0.0115,0.2505,0.000122000005,-0.00062550005,0.0007935,1741885112.266633
-0.02875,-0.0105,0.2495,0.00013725001,0.000412,0.00067150005,1741885112.281039
-0.0285,-0.01175,0.2485,4.575e-05,0.000885,0.00057975,1741885112.2953758
-0.027,-0.012,0.25025,-0.00061025,0.00105275,0.00109875,1741885112.309823
-0.02325,-0.00675,0.249,-0.0015105,0.0014037499,0.0015105,1741885112.324378
-0.02,-0.00175,0.24725,-0.0049895,0.0031127501,0.0016632499,1741885112.33895
-0.026,-0.0035,0.24425,-0.00712575,0.00355525,0.00149525,1741885112.353387
-0.0305,-0.0075,0.245,-0.008499251,0.0037079998,0.0011445,1741885112.36853
-0.033,-0.01025,0.247,-0.0069885002,0.00325,0.0003205,1741885112.382447
-0.0315,-0.0085,0.25,-0.005539,0.0026854998,6.1000002e-05,1741885112.397921
-0.029,-0.00525,0.25025,-0.00505075,0.001648,0.000122000005,1741885112.41138
-0.0255,0.0015,0.25125,-0.0048979996,0.0014495,1.5250001e-05,1741885112.42578
-0.02475,-0.0015,0.2535,-0.00384525,0.0018615,-0.00054925,1741885112.440372
-0.02475,-0.003,0.25125,-0.00384525,0.002121,-0.00057975,1741885112.4550211
-0.0265,0.0005,0.24925,-0.0033264998,0.001831,-0.00057975,1741885112.4693918
-0.02875,-0.001,0.24925,-0.00279225,0.00125125,-0.000763,1741885112.4839208
-0.02725,-0.00125,0.251,-0.0025940002,0.00067150005,-0.000824,1741885112.498569
-0.02475,-0.0,0.25325,-0.0022125002,-6.1000002e-05,-0.00068675,1741885112.513222
-0.02375,0.0,0.25475,-0.0016785001,-0.00010675,-0.00062550005,1741885112.528482
-0.0245,0.002,0.2535,-0.00064075,0.00013725001,-0.00048825,1741885112.542254
-0.024,0.00425,0.25,-0.0002595,3.0500001e-05,-0.00051875,1741885112.556749
-0.0235,0.0045,0.24975,0.00019825,-0.00036625,-0.00062550005,1741885112.5713768
-0.0245,0.00225,0.24975,0.00024425,-0.00051875,-0.00062550005,1741885112.585938
-0.0245,0.0005,0.2495,0.00035100002,-0.0007325,-0.000534,1741885112.600585
-0.026,0.0015,0.249,0.00062550005,-0.00090025004,-0.000473,1741885112.615045
-0.02675,0.00225,0.249,0.00067150005,-0.001709,-0.00057975,1741885112.6294458
-0.0255,-0.0,0.25075,0.00030525,-0.00204475,-0.00059500005,1741885112.644074
-0.02575,-0.0005,0.2505,1.5250001e-05,-0.0021819999,-0.000534,1741885112.658623
-0.026,-0.00025,0.25025,-0.0002595,-0.00193775,-0.00010675,1741885112.673471
-0.026,0.003,0.24875,-0.00061025,-0.0021515,1.5250001e-05,1741885112.688527
-0.026,0.0045,0.24875,-0.001831,-0.0031585,0.000229,1741885112.702485
-0.0265,0.0035,0.25075,-0.00239575,-0.0034637498,0.000473,1741885112.71694
-0.02825,0.00225,0.25125,-0.00320425,-0.0031127501,0.000885,1741885112.731453
-0.02975,0.0015,0.25175,-0.0034942501,-0.00251775,0.00105275,1741885112.74602
-0.03,0.003,0.25125,-0.00364675,-0.00125125,0.0014037499,1741885112.760468
-0.03025,0.0075,0.25025,-0.0034637498,-0.000946,0.0013275,1741885112.774936
-0.03075,0.009,0.2495,-0.0031127501,-0.000824,0.001114,1741885112.789454
-0.031,0.00825,0.24875,-0.001892,-0.00102225,0.00074775,1741885112.804075
-0.03175,0.00625,0.249,-0.00148,-0.0012207499,0.000824,1741885112.818444
-0.03125,0.0075,0.2505,-0.001175,-0.0013275,0.00093075,1741885112.832936
-0.0305,0.0095,0.25075,-0.00105275,-0.0012665,0.00096125,1741885112.8485088
-0.031,0.0105,0.2485,-0.000885,-0.0012055,0.00090025004,1741885112.862057
-0.032,0.01175,0.2455,-0.000824,-0.001175,0.000763,1741885112.8765702
-0.03225,0.011,0.246,-0.00071725,-0.001007,0.00059500005,1741885112.89102
-0.03275,0.00925,0.24775,-0.00071725,-0.00090025004,0.00064075,1741885112.905431
-0.03325,0.00925,0.248,-0.00071725,-0.00080875,0.0007325,1741885112.919932
-0.03475,0.00875,0.24875,-0.000412,-0.00070200005,0.00059500005,1741885112.934431
-0.035,0.00825,0.2485,-0.00013725001,-0.0007325,0.0004425,1741885112.948895
-0.03475,0.00925,0.248,0.0003205,-0.00083925005,0.00019825,1741885112.963367
-0.0325,0.01425,0.25,0.000473,-0.000763,-1.5250001e-05,1741885112.9780931
-0.03125,0.01375,0.2515,0.00042725,-0.0003815,-0.000412,1741885112.992463
-0.0325,0.015,0.25,0.0002135,-0.0001525,-0.000473,1741885113.008502
-0.03375,0.0145,0.24875,0.00010675,0.00010675,-0.0007325,1741885113.021389
-0.0355,0.01175,0.247,0.000183,1.5250001e-05,-0.00080875,1741885113.0357099
-0.03575,0.01025,0.2475,0.0003205,-0.000122000005,-0.0009155,1741885113.050157
-0.03525,0.009,0.25025,0.00062550005,-0.0002595,-0.001068,1741885113.0646248
-0.03525,0.009,0.25025,0.00067150005,-0.00013725001,-0.0010375,1741885113.079127
-0.0355,0.0085,0.24975,0.00029,0.00024425,-0.00086975005,1741885113.09357
-0.035,0.007,0.24775,0.0001525,0.0003815,-0.00080875,1741885113.108785
-0.03525,0.0065,0.2475,0.00027475,0.00036625,-0.00065625,1741885113.1224582
-0.035,0.00575,0.248,0.000183,0.0002595,-0.000534,1741885113.138551
-0.03475,0.0055,0.249,-0.000122000005,1.5250001e-05,-0.00019825,1741885113.151295
-0.03475,0.00475,0.2505,-0.00019825,-9.15e-05,-1.5250001e-05,1741885113.165967
-0.0345,0.005,0.2515,-0.000183,-9.15e-05,0.00013725001,1741885113.180446
-0.03375,0.00625,0.25225,-0.00013725001,0.000122000005,0.0003815,1741885113.1949282
-0.03325,0.00725,0.25175,-0.00024425,0.0003205,0.00048825,1741885113.2093608
-0.03275,0.00825,0.25125,-0.000534,0.00080875,0.000534,1741885113.223933
-0.0335,0.01025,0.24875,-0.00061025,0.00099175,0.000473,1741885113.2387042
-0.03375,0.0105,0.24775,-0.00071725,0.00108325,0.00030525,1741885113.253063
-0.03425,0.0095,0.247,-0.0007325,0.00102225,0.00029,1741885113.268467
-0.034,0.00975,0.24725,-0.000534,0.00070200005,0.0003205,1741885113.281782
-0.032,0.012,0.2495,-0.0003815,0.00061025,0.0003205,1741885113.2975218
-0.03125,0.01425,0.25,-0.0002135,0.00061025,0.0003205,1741885113.310731
-0.03175,0.0165,0.24875,9.15e-05,0.00059500005,4.575e-05,1741885113.325025
-0.03275,0.015,0.2475,9.15e-05,0.00048825,-0.0002135,1741885113.339326
-0.03275,0.013,0.24675,7.625e-05,0.00019825,-0.00057975,1741885113.353684
-0.0315,0.012,0.249,0.0003205,-1.5250001e-05,-0.000534,1741885113.368456
-0.0315,0.013,0.25025,0.00068675,-0.000183,-0.00051875,1741885113.382859
-0.03175,0.01525,0.25,0.00057975,-0.00010675,-0.00059500005,1741885113.3984761
-0.032,0.01475,0.24875,0.00035100002,-9.15e-05,-0.00074775,1741885113.411937
-0.031,0.0115,0.24875,0.00059500005,-0.000229,-0.0008545,1741885113.42644
-0.03075,0.01075,0.25025,0.001175,-0.000412,-0.00096125,1741885113.441037
-0.03375,0.0115,0.25025,0.0021515,-0.00057975,-0.0010375,1741885113.4554482
-0.036,0.01075,0.24925,0.0019685,-0.00061025,-0.0010375,1741885113.469928
-0.03775,0.0085,0.24875,0.00083925005,-0.00086975005,-0.00080875,1741885113.484452
-0.03775,0.00525,0.2515,0.0005645,-0.00119025,-0.000534,1741885113.4990542
-0.03575,0.007,0.254,0.00030525,-0.0019225,0.00077825,1741885113.513355
-0.032,0.0105,0.2565,-0.000229,-0.00198375,0.0013275,1741885113.5284219
-0.03175,0.009,0.255,-0.00149525,-0.001068,0.0014495,1741885113.54224
-0.031,0.012,0.24975,-0.002121,-0.00059500005,0.0018005001,1741885113.556628
-0.03225,0.01275,0.24825,-0.0028074998,-0.00027475,0.00228875,1741885113.571123
-0.034,0.0085,0.24725,-0.003662,0.001648,0.00051875,1741885113.5854452
-0.03525,0.013,0.2465,-0.00320425,0.0022277501,-0.000534,1741885113.599948
-0.035,0.008,0.2455,-0.00108325,0.0013580001,-0.001709,1741885113.6143732
-0.03525,-0.0045,0.24275,-0.0017395001,0.0013427499,-0.0013427499,1741885113.6289222
-0.03475,0.00175,0.243,-0.00354,0.0017852499,-6.1000002e-05,1741885113.6433852
-0.03275,0.0105,0.24725,-0.0033570002,0.0017852499,0.0003205,1741885113.658693
-0.03175,0.01325,0.24925,-0.0027160002,0.0013885,0.0002135,1741885113.672106
-0.0315,0.01325,0.2495,-0.0028229998,0.00096125,0.0002135,1741885113.686552
-0.03225,0.0125,0.24725,-0.0029449998,0.00062550005,0.000229,1741885113.700916
-0.0325,0.0125,0.24625,-0.0026245,0.00077825,0.0001525,1741885113.715374
-0.033,0.015,0.2435,-0.0022277501,0.00057975,0.0001525,1741885113.729772
-0.0335,0.018,0.24275,-0.00059500005,-0.0020295,-0.00042725,1741885113.744359
-0.0325,0.01425,0.2485,7.625e-05,-0.00372325,-0.00068675,1741885113.758919
-0.03125,0.01275,0.253,0.00042725,-0.0049895,9.15e-05,1741885113.773459
-0.03475,0.01675,0.2545,0.001175,-0.0044707498,0.0005035,1741885113.788631
-0.03675,0.0175,0.2535,0.00302125,-0.00254825,0.00068675,1741885113.802356
-0.035,0.018,0.2515,0.00378425,-0.0021057501,0.0007325,1741885113.816929
-0.03425,0.017,0.251,0.0050965,-0.00181575,0.0009155,1741885113.831367
-0.03625,0.01475,0.2505,0.0088805,-0.0012207499,0.00119025,1741885113.84575
-0.041,0.012,0.2485,0.0093995,-0.0013885,0.00099175,1741885113.86038
-0.04,0.0115,0.249,0.00741575,-0.00163275,0.00080875,1741885113.8747652
-0.03775,0.005,0.249,0.0066374997,-0.0015105,0.0009155,1741885113.88936
-0.03775,0.004,0.248,0.00717175,-0.0010375,0.000946,1741885113.90369
-0.0395,-0.0005,0.24475,0.0081025,-0.00074775,0.00093075,1741885113.918447
-0.04075,-0.00225,0.245,0.00852975,-0.00039675,0.00077825,1741885113.932674
-0.04025,-0.00225,0.248,0.008224499,-0.00035100002,0.0005645,1741885113.948235
-0.04,-0.004,0.24775,0.00773625,-0.00029,0.00051875,1741885113.961643
-0.03975,-0.0035,0.24625,0.0062712496,0.0003205,0.00067150005,1741885113.9760299
-0.04,-0.007,0.244,0.0059510004,0.0008545,0.00062550005,1741885113.9903722
-0.03975,-0.01025,0.2445,0.00561525,0.0012055,0.000763,1741885114.004873
-0.038,-0.01075,0.248,0.005249,0.00096125,0.0009155,1741885114.019247
-0.03725,-0.00925,0.24975,0.00413525,0.0009155,0.0007935,1741885114.033904
-0.0355,-0.01075,0.25075,0.003662,0.00108325,0.00068675,1741885114.048636
-0.03575,-0.0125,0.25,0.00369275,0.00149525,0.0007325,1741885114.062732
-0.0385,-0.01375,0.24625,0.0038299998,0.00175475,0.00074775,1741885114.07847
-0.03825,-0.0145,0.24575,0.003662,0.00184625,0.00068675,1741885114.091488
-0.037,-0.015,0.2465,0.0028535,0.0014495,0.000885,1741885114.105831
-0.036,-0.01575,0.2485,0.0025940002,0.00163275,0.000946,1741885114.1201699
-0.03575,-0.01675,0.249,0.002365,0.0021972498,0.000885,1741885114.1346402
-0.0365,-0.0155,0.248,0.00228875,0.0020752498,0.00070200005,1741885114.149044
-0.03575,-0.015,0.24875,0.00149525,0.0012207499,0.00030525,1741885114.1634638
-0.0325,-0.01575,0.25275,0.00077825,0.00099175,0.00027475,1741885114.177978
-0.03175,-0.01625,0.25325,0.00013725001,0.001114,0.00024425,1741885114.1923578
-0.0315,-0.017,0.2525,-0.0009765,0.001526,0.00057975,1741885114.208317
-0.03475,-0.01925,0.24675,-0.0019989999,0.0013580001,0.00108325,1741885114.22135
-0.03575,-0.0155,0.24475,-0.004776,0.000763,0.0015105,1741885114.2358148
-0.034,-0.012,0.2505,-0.0056915004,0.00024425,0.0014495,1741885114.250207
-0.0345,-0.014,0.25325,-0.0067902496,-3.0500001e-05,0.0013275,1741885114.264739
-0.0355,-0.012,0.25425,-0.00723275,7.625e-05,0.00112925,1741885114.2791412
-0.035,-0.00975,0.25325,-0.0076599997,0.00027475,0.000534,1741885114.293639
-0.03225,-0.00825,0.25175,-0.0078735,0.00033575002,0.00039675,1741885114.308546
-0.0315,-0.0055,0.25275,-0.008316,0.000122000005,0.00035100002,1741885114.3226209
-0.031,-0.0025,0.252,-0.008788999,-0.000473,0.000229,1741885114.33858
-0.0315,0.00175,0.2485,-0.00788875,-0.0004425,4.575e-05,1741885114.3516202
-0.03175,0.001,0.24725,-0.0048979996,-3.0500001e-05,-0.000229,1741885114.366208
-0.0335,0.00075,0.24525,-0.0042572496,-1.5250001e-05,-0.0001525,1741885114.380797
-0.03375,0.002,0.24525,-0.0040435,-0.00024425,-0.00013725001,1741885114.39539
-0.03275,0.00175,0.2465,-0.0034637498,-0.00019825,-0.00019825,1741885114.4098911
-0.03275,0.00175,0.2455,-0.00125125,6.1000002e-05,-0.0002135,1741885114.424311
-0.0345,0.00225,0.24275,-0.0002135,9.15e-05,-0.00019825,1741885114.439866
-0.03425,0.0025,0.24375,0.00033575002,4.575e-05,-0.00016775,1741885114.4531982
-0.0335,0.00175,0.24975,0.00071725,1.5250001e-05,0.0,1741885114.468611
-0.03325,0.00125,0.2525,0.00109875,0.00010675,6.1000002e-05,1741885114.481905
-0.03375,0.00175,0.25375,0.00193775,0.0003205,0.000122000005,1741885114.497695
-0.03375,0.003,0.253,0.00231925,0.00035100002,1.5250001e-05,1741885114.510599
-0.0335,0.00325,0.252,0.00352475,0.00030525,-0.0003815,1741885114.524981
-0.033,-0.0,0.251,0.00411975,0.0002135,-0.00061025,1741885114.539403
-0.032,-0.0015,0.25175,0.004242,0.00027475,-0.00083925005,1741885114.553787
-0.033,-0.00275,0.25125,0.0043182503,0.00029,-0.00083925005,1741885114.5685399
-0.035,-0.00425,0.249,0.0045165,0.0002595,-0.00083925005,1741885114.582796
-0.0375,-0.005,0.24625,0.0043639997,3.0500001e-05,-0.0009155,1741885114.5978858
-0.0345,-0.0075,0.2405,0.0042115003,-0.0002135,-0.00108325,1741885114.611899
-0.0305,-0.00825,0.24125,0.0060882503,-0.00083925005,-0.0005645,1741885114.626345
-0.03325,-0.00775,0.25525,0.0067902496,-0.000824,-0.0001525,1741885114.640911
-0.02925,-0.0065,0.25575,0.00585925,-0.0002135,-0.00039675,1741885114.655398
-0.03075,-0.005,0.2545,0.005844,0.000229,-0.00016775,1741885114.669806
-0.0335,-0.0045,0.252,0.0062407497,0.0007935,-0.0008545,1741885114.684302
-0.0325,-0.01125,0.2485,0.00646975,0.00080875,-0.0012207499,1741885114.698806
-0.03275,-0.0155,0.2495,0.00643925,0.000824,-0.0011445,1741885114.713293
-0.033,-0.01925,0.251,0.0065155,0.0014037499,-0.00125125,1741885114.7287
-0.02925,-0.0225,0.252,0.00694275,0.00143425,-0.00093075,1741885114.7423239
-0.0315,-0.022,0.24875,0.0063325,0.00143425,0.000473,1741885114.75811
-0.03225,-0.02375,0.24725,0.00538625,0.0019685,0.00067150005,1741885114.771203
-0.0305,-0.02625,0.24775,0.0048979996,0.001892,0.0009155,1741885114.785702
-0.0285,-0.0265,0.2485,0.0052642496,0.0016175,0.0012207499,1741885114.8001359
-0.0295,-0.02475,0.2485,0.00570675,0.0012207499,0.001648,1741885114.8145201
-0.0315,-0.0245,0.24475,0.00538625,0.00115975,0.001526,1741885114.829217
-0.02925,-0.0255,0.2445,0.0047912505,0.001236,0.00131225,1741885114.843738
-0.027,-0.02575,0.2455,0.0037385002,0.00160225,0.00109875,1741885114.85877
-0.026,-0.026,0.245,0.0032347501,0.001648,0.001007,1741885114.872515
-0.02625,-0.0285,0.24375,0.0019225,0.0015565,0.0010375,1741885114.8881862
-0.02475,-0.02975,0.24175,0.00146475,0.00160225,0.0012055,1741885114.901425
-0.02275,-0.027,0.243,0.0012055,0.001831,0.001709,1741885114.915749
-0.0235,-0.02525,0.24525,0.0009765,0.00198375,0.001953,1741885114.930212
-0.024,-0.02775,0.246,0.00027475,0.0024414998,0.0023039998,1741885114.944536
-0.02175,-0.03175,0.248,0.0,0.0027312501,0.0025940002,1741885114.959025
-0.02075,-0.0315,0.249,-0.00016775,0.00305175,0.0029755002,1741885114.97353
-0.01975,-0.03,0.2495,-0.00051875,0.00352475,0.0035704998,1741885114.988704
-0.01575,-0.02725,0.2465,-0.00035100002,0.0035095,0.00390625,1741885115.002653
-0.031,-0.02475,0.2445,-0.000412,0.00263975,0.0034484998,1741885115.018431
-0.0375,-0.03,0.2555,-0.0028535,0.00080875,0.00080875,1741885115.031629
-0.025,-0.02525,0.25975,-0.00953675,-0.0019989999,-0.002777,1741885115.046425
-0.01625,-0.0315,0.25875,-0.00930775,-0.0008545,-0.0026245,1741885115.061119
-0.01925,-0.03275,0.257,-0.0049590003,0.00068675,-0.0013885,1741885115.075725
-0.023,-0.0245,0.2545,-0.0036315,0.000946,-0.000946,1741885115.090334
-0.0215,-0.01975,0.252,-0.0030669998,0.0012817499,-0.00062550005,1741885115.104971
-0.0235,-0.02075,0.247,-0.0019225,0.001648,-0.0001525,1741885115.119433
-0.0255,-0.02225,0.2435,-0.0012970001,0.001419,-0.0001525,1741885115.1339982
-0.02525,-0.02325,0.243,-0.0010375,0.00042725,-1.5250001e-05,1741885115.14854
-0.02925,-0.02275,0.24375,-0.00099175,1.5250001e-05,-0.00010675,1741885115.16312
-0.0245,-0.025,0.2505,0.00033575002,0.000122000005,-0.001175,1741885115.178122
-0.01775,-0.026,0.2595,0.00149525,0.0002595,-0.00096125,1741885115.1920981
-0.0205,-0.025,0.2585,0.0025025,0.00062550005,-7.625e-05,1741885115.20659
-0.02225,-0.0265,0.2535,0.00238025,0.0008545,0.000229,1741885115.2210078
-0.0205,-0.0275,0.25525,0.0027160002,0.001831,0.0007935,1741885115.235399
-0.0165,-0.02725,0.262,0.0030365,0.00231925,0.00112925,1741885115.2498188
-0.01675,-0.027,0.26025,0.0031127501,0.0025787498,0.001419,1741885115.264271
-0.01725,-0.02575,0.25775,0.00270075,0.00239575,0.0015565,1741885115.278764
-0.01625,-0.02625,0.256,0.00283825,0.002365,0.0016175,1741885115.293083
-0.0165,-0.02875,0.25475,0.00372325,0.0028229998,0.00201425,1741885115.308619
-0.015,-0.0275,0.252,0.00396725,0.00296025,0.002121,1741885115.321928
-0.01325,-0.02425,0.24975,0.00399775,0.002365,0.0030975002,1741885115.3362
-0.015,-0.02575,0.24525,0.00399775,0.0017852499,0.00381475,1741885115.3505259
-0.0165,-0.031,0.24025,0.004547,0.0018005001,0.00352475,1741885115.364914
-0.01425,-0.0345,0.237,0.007599,0.0022277501,0.00225825,1741885115.3792481
-0.015,-0.0355,0.2385,0.00833125,0.00169375,0.0024414998,1741885115.3936682
-0.0135,-0.03275,0.24075,0.0056304997,0.00090025004,0.00296025,1741885115.408822
-0.01325,-0.03475,0.23925,0.00428775,0.001068,0.0030365,1741885115.422612
-0.014,-0.039,0.2375,0.0042267498,0.00201425,0.0020905002,1741885115.4386182
-0.01025,-0.0425,0.24025,0.00444025,0.00154125,0.0019685,1741885115.451529
-0.0095,-0.0415,0.2425,0.0032655,-0.00024425,0.0027312501,1741885115.466157
-0.00975,-0.0415,0.245,0.0023345,-0.00027475,0.00289925,1741885115.480629
-0.00875,-0.04325,0.245,0.0018005001,0.000122000005,0.00289925,1741885115.4950368
-0.0095,-0.04625,0.24375,0.0021515,0.00033575002,0.0035095,1741885115.509451
-0.01675,-0.05125,0.247,0.00201425,-0.00019825,0.0037079998,1741885115.52383
-0.0175,-0.05075,0.25575,-0.0007935,-0.0009155,0.002777,1741885115.5386071
-0.0095,-0.05125,0.26,-0.00216675,-0.00070200005,0.00245675,1741885115.552902
-0.01025,-0.04725,0.258,-0.002777,0.0001525,0.0028535,1741885115.56846
-0.009,-0.044,0.25175,-0.00419625,0.00016775,0.00289925,1741885115.581779
-0.005,-0.0425,0.24775,-0.006012,-0.00154125,0.00314325,1741885115.596427
-0.01075,-0.03675,0.2505,-0.0058287503,-0.0032655,0.0029145,1741885115.610923
-0.017,-0.0335,0.25225,-0.0058899997,-0.0045777503,0.00242625,1741885115.625438
-0.01825,-0.0295,0.251,-0.0069580004,-0.00201425,0.00175475,1741885115.639911
-0.014,-0.03425,0.24625,-0.007309,-0.00057975,0.0017242499,1741885115.6544168
-0.01475,-0.036,0.2425,-0.0072632497,0.0008545,0.00065625,1741885115.6687958
-0.0115,-0.0305,0.249,-0.00712575,0.00109875,0.00010675,1741885115.6833122
-0.01125,-0.02875,0.251,-0.00738525,0.000229,-0.00027475,1741885115.697951
-0.01175,-0.02325,0.2505,-0.0072937496,0.0002135,-0.00068675,1741885115.712428
-0.01175,-0.0205,0.2495,-0.0078125,0.00099175,-0.00099175,1741885115.7285361
-0.015,-0.01925,0.2505,-0.00833125,0.0011445,-0.0009155,1741885115.7413929
-0.014,-0.0185,0.2525,-0.00862125,0.0010375,-0.0009765,1741885115.755898
-0.012,-0.01775,0.25075,-0.007965,0.0004425,-0.0013275,1741885115.770421
-0.0105,-0.01525,0.2515,-0.0076142503,-9.15e-05,-0.00137325,1741885115.784944
-0.01,-0.014,0.25375,-0.00773625,-0.0003815,-0.001419,1741885115.799525
-0.01,-0.01275,0.255,-0.00741575,-0.00024425,-0.00157175,1741885115.8141508
-0.0105,-0.01075,0.25475,-0.006546,0.000412,-0.0018615,1741885115.828701
-0.013,-0.00875,0.25475,-0.0059967497,0.0007935,-0.0019225,1741885115.843206
-0.0125,-0.00725,0.25475,-0.00437925,0.00131225,-0.002365,1741885115.858388
-0.009,-0.00525,0.26075,-0.0031127501,0.00112925,-0.0027465,1741885115.872299
-0.011,-0.0045,0.255,-0.0009155,0.00027475,-0.003296,1741885115.88859
-0.00925,-0.00075,0.2495,-0.001068,0.000183,-0.003128,1741885115.901599
-0.00925,-0.00225,0.25075,-0.00160225,0.00016775,-0.0029449998,1741885115.91632
-0.01,-0.0035,0.251,-0.001709,0.0005645,-0.0032655,1741885115.930969
-0.00975,0.0005,0.2495,-0.00148,0.0008545,-0.0034942501,1741885115.945411
-0.01,0.00325,0.25025,-0.00102225,0.00160225,-0.0032347501,1741885115.959811
-0.01175,0.0015,0.2525,-0.00096125,0.0016785001,-0.00314325,1741885115.9742239
-0.011,0.00325,0.2525,-0.0007325,0.001587,-0.0033570002,1741885115.988589
-0.01125,0.004,0.25275,-0.00061025,0.00148,-0.00340275,1741885116.00308
-0.01075,0.0045,0.252,-0.00039675,0.0012817499,-0.0034637498,1741885116.018035
-0.0115,-0.005,0.2515,-0.00035100002,0.0013275,-0.003418,1741885116.032127
-0.01125,-0.01,0.25175,-0.00035100002,0.00137325,-0.0033570002,1741885116.046718
-0.01225,-0.01575,0.2515,-0.000473,0.0013427499,-0.00283825,1741885116.061399
-0.01325,-0.017,0.25025,-0.00067150005,0.00143425,-0.00242625,1741885116.075885
-0.013,-0.01625,0.24875,-0.001175,0.0019225,-0.00193775,1741885116.090362
-0.015,-0.016,0.249,-0.00149525,0.002533,-0.0019225,1741885116.104885
-0.01375,-0.011,0.25175,-0.00160225,0.00334175,-0.00163275,1741885116.119377
-0.00875,-0.0075,0.24875,-0.0016632499,0.0033875,-0.001419,1741885116.133913
-0.00725,-0.0055,0.24925,-0.0019685,0.0044250004,-0.0016632499,1741885116.148722
-0.0045,-0.00125,0.2575,-0.00177,0.00444025,-0.00157175,1741885116.162894
-0.0035,-0.00075,0.25575,-0.001007,0.0029907501,-0.00112925,1741885116.178049
-0.0005,-0.00025,0.25475,-0.00074775,0.002472,-0.00109875,1741885116.191916
-0.00025,-0.00025,0.25425,-0.00059500005,0.0019225,-0.00115975,1741885116.206409
-0.0,0.00025,0.2535,-0.00042725,0.000885,-0.00108325,1741885116.2209
-0.0005,-0.00025,0.252,-0.000412,0.0005645,-0.000946,1741885116.235374
-0.0005,-0.00025,0.25175,-0.0003205,0.0002595,-0.00077825,1741885116.25001
-0.0005,-0.00025,0.25175,-0.00024425,0.00019825,-0.00070200005,1741885116.264586
-0.00025,-0.0,0.252,3.0500001e-05,3.0500001e-05,-0.00077825,1741885116.2790122
-0.0005,0.0,0.2515,0.00010675,-1.5250001e-05,-0.00077825,1741885116.293539
-0.00075,0.00025,0.2515,-7.625e-05,0.000122000005,-0.0005645,1741885116.308343
-0.00075,-0.0,0.2515,-0.000183,0.0002135,-0.000412,1741885116.322593
-0.0005,0.0,0.25175,-0.00024425,0.00024425,-0.00029,1741885116.33868
-0.00025,0.00025,0.25175,-0.00029,0.00027475,-0.0002135,1741885116.351385
-0.0,0.0005,0.252,-0.000229,0.0002595,-0.0002135,1741885116.365816
-0.0,0.0005,0.252,1.5250001e-05,0.000122000005,-0.0002595,1741885116.380169
0.0,-0.0,0.25175,9.15e-05,6.1000002e-05,-0.00024425,1741885116.3944771
0.0,0.0,0.25175,6.1000002e-05,7.625e-05,-0.0001525,1741885116.408774
-0.0005,0.00025,0.25175,3.0500001e-05,7.625e-05,-0.00010675,1741885116.4231648
-0.0005,0.00025,0.25175,3.0500001e-05,9.15e-05,-7.625e-05,1741885116.438851
-0.00025,0.0,0.25175,0.0,7.625e-05,-6.1000002e-05,1741885116.451991
-0.0,0.0,0.252,-1.5250001e-05,4.575e-05,-7.625e-05,1741885116.466437
-0.00025,0.0,0.25175,0.0,1.5250001e-05,-0.00010675,1741885116.481065
-0.00025,0.0,0.252,0.0,3.0500001e-05,-0.00010675,1741885116.495417
-0.00025,0.0,0.252,1.5250001e-05,4.575e-05,-0.00010675,1741885116.509665
-0.00025,0.00025,0.25175,3.0500001e-05,3.0500001e-05,-0.00010675,1741885116.5240068
-0.00025,0.0005,0.25175,1.5250001e-05,0.0,-0.00010675,1741885116.539005
0.0,0.00025,0.2515,1.5250001e-05,0.0,-9.15e-05,1741885116.552803
-0.00025,0.00025,0.2515,3.0500001e-05,1.5250001e-05,-0.00010675,1741885116.568416
-0.00075,0.00025,0.2515,6.1000002e-05,6.1000002e-05,-0.00010675,1741885116.581512
-0.00075,-0.00025,0.25175,7.625e-05,7.625e-05,-9.15e-05,1741885116.596012
-0.00025,-0.0005,0.25175,7.625e-05,7.625e-05,-3.0500001e-05,1741885116.6105201
-0.00025,0.00025,0.25175,7.625e-05,4.575e-05,-3.0500001e-05,1741885116.624898
-0.0005,0.0005,0.25175,0.00013725001,4.575e-05,-1.5250001e-05,1741885116.639169
-0.0005,0.00025,0.25175,0.00016775,6.1000002e-05,0.0,1741885116.653362
-0.00025,0.0,0.25175,0.0002135,7.625e-05,1.5250001e-05,1741885116.668544
-0.0005,-0.00075,0.25175,0.0002595,0.0001525,0.00048825,1741885116.682045
-0.00525,-0.0085,0.252,0.00030525,0.000183,0.00131225,1741885116.696373
-0.006,-0.01325,0.25275,0.00062550005,0.000122000005,0.003769,1741885116.7106938
0.00275,-0.0045,0.25225,0.00062550005,0.0,0.0035704998,1741885116.7250938
0.0025,0.00625,0.2515,0.0007935,-1.5250001e-05,0.0016632499,1741885116.739361
0.0025,0.01,0.25125,0.0007935,6.1000002e-05,0.0017852499,1741885116.7535648
0.0015,0.0045,0.2515,0.00070200005,9.15e-05,0.00137325,1741885116.7684171
0.0005,0.0005,0.25175,0.00051875,1.5250001e-05,0.00036625,1741885116.782021
0.00025,-0.00075,0.25175,0.00045775,0.0,0.0002135,1741885116.796269
0.0005,-0.0005,0.25175,0.0003815,3.0500001e-05,-0.00024425,1741885116.810596
-0.00025,-0.00125,0.25175,0.000412,4.575e-05,-0.000534,1741885116.8250859
-0.0005,-0.00125,0.25175,0.0003815,-3.0500001e-05,-0.00057975,1741885116.8396769
-0.00025,-0.00125,0.2515,0.0003205,-9.15e-05,-0.00048825,1741885116.854174
-0.00025,-0.00125,0.2515,0.00027475,-9.15e-05,-0.00042725,1741885116.868694
-0.00025,-0.00175,0.2515,0.00019825,-7.625e-05,-0.00036625,1741885116.8833
-0.0005,-0.00175,0.2515,0.000183,-7.625e-05,-0.00033575002,1741885116.898001
-0.00075,-0.002,0.2515,9.15e-05,-7.625e-05,-0.00013725001,1741885116.912626
-0.0005,-0.002,0.25175,0.0,-6.1000002e-05,-3.0500001e-05,1741885116.92856
-0.00025,-0.00175,0.25175,0.0,3.0500001e-05,1.5250001e-05,1741885116.9417028
-0.0005,-0.00175,0.25175,6.1000002e-05,7.625e-05,1.5250001e-05,1741885116.956105
-0.0005,-0.00175,0.25175,0.0001525,9.15e-05,3.0500001e-05,1741885116.970463
-0.00075,-0.0015,0.252,0.00016775,0.0001525,6.1000002e-05,1741885116.9847739
-0.0005,-0.0015,0.25175,0.000229,0.0002135,1.5250001e-05,1741885116.999163
-0.0005,-0.002,0.25175,0.00024425,0.000183,0.0,1741885117.0136
-0.00225,-0.002,0.25175,0.000229,0.0001525,3.0500001e-05,1741885117.028047
-0.00375,-0.0025,0.25175,0.00029,0.0001525,0.0003815,1741885117.0423849
-0.0025,-0.00325,0.252,0.0003815,0.00016775,0.00057975,1741885117.0582001
-0.00225,-0.0045,0.252,0.0005645,0.00010675,0.00102225,1741885117.071053
0.00025,-0.00475,0.25225,0.00059500005,-1.5250001e-05,0.001114,1741885117.085391
0.00125,-0.0025,0.25225,0.00083925005,-0.000183,0.00083925005,1741885117.099694
0.00025,-0.00575,0.25175,0.000885,-0.0002135,0.00051875,1741885117.114183
0.00125,-0.002,0.2515,0.000824,-0.0002135,0.0001525,1741885117.128588
0.0025,0.0005,0.2515,0.00059500005,-0.000122000005,4.575e-05,1741885117.142803
0.00175,-0.0005,0.25125,0.00039675,-6.1000002e-05,-1.5250001e-05,1741885117.1585898
0.001,-0.0005,0.25175,0.000183,0.0,-6.1000002e-05,1741885117.171675
0.0,-0.0025,0.252,0.00024425,1.5250001e-05,-6.1000002e-05,1741885117.186172
-0.00025,-0.004,0.2515,0.00010675,-3.0500001e-05,-0.0002595,1741885117.2007098
-0.0005,-0.00375,0.252,-3.0500001e-05,-1.5250001e-05,-0.0003205,1741885117.2153668
-0.00075,-0.003,0.252,-7.625e-05,9.15e-05,-0.0002595,1741885117.2299972
-0.00125,-0.0025,0.25175,-6.1000002e-05,0.00013725001,-0.00019825,1741885117.2445812
-0.001,-0.00275,0.25175,-3.0500001e-05,0.000183,-0.00013725001,1741885117.259202
-0.00075,-0.00325,0.25175,6.1000002e-05,0.00027475,-0.00010675,1741885117.2735841
-0.00025,-0.00375,0.25175,7.625e-05,0.00033575002,-6.1000002e-05,1741885117.2886531
-0.0005,-0.00375,0.2515,-9.15e-05,0.0003205,9.15e-05,1741885117.302589
-0.0005,-0.004,0.25175,-0.00013725001,0.0002595,0.00013725001,1741885117.317088
-0.001,-0.0055,0.252,-0.000229,0.000122000005,0.000183,1741885117.331533
-0.003,-0.0145,0.253,-0.00010675,0.00010675,0.00033575002,1741885117.346105
-0.0045,-0.022,0.25325,0.00064075,4.575e-05,0.0014495,1741885117.3606138
-0.00325,-0.0245,0.25225,0.00068675,-0.0001525,0.0023039998,1741885117.3750882
-0.003,-0.01775,0.25225,0.0004425,-0.00036625,0.0029145,1741885117.389494
-0.002,-0.00575,0.25175,0.00013725001,-0.00035100002,0.00292975,1741885117.403855
-0.001,0.009,0.251,0.00016775,-0.00019825,0.0026245,1741885117.418407
-0.0,0.0115,0.25225,0.00045775,0.000183,0.0018005001,1741885117.432398
0.0025,0.0085,0.25075,0.000534,0.0002135,0.0013427499,1741885117.446621
0.0045,0.0085,0.25,0.00033575002,-0.00013725001,0.00070200005,1741885117.4608488
0.00375,0.00525,0.25175,7.625e-05,-0.0003205,0.000412,1741885117.4750762
0.00075,0.0015,0.2525,-0.00010675,-0.00027475,0.000122000005,1741885117.4894989
-0.0025,-0.004,0.25325,0.00010675,3.0500001e-05,3.0500001e-05,1741885117.5038998
-0.00175,-0.00475,0.25325,0.00036625,0.00016775,0.0004425,1741885117.518327
-0.00075,-0.00375,0.25175,0.000473,0.0001525,0.0009155,1741885117.532495
-0.00075,-0.00775,0.2515,0.000412,-0.00010675,0.000824,1741885117.5481758
-0.00025,-0.00775,0.253,0.00042725,4.575e-05,0.0009155,1741885117.561524
0.00075,-0.00425,0.252,0.0005035,0.0004425,0.00090025004,1741885117.575766
0.00125,-0.0025,0.25025,0.00054925,0.00068675,0.00083925005,1741885117.5900538
0.00075,-0.00325,0.25,0.00036625,-3.0500001e-05,0.00080875,1741885117.6044888
0.0005,-0.0105,0.258,0.000412,-0.000534,0.0007935,1741885117.618879
0.0015,-0.0125,0.263,0.0027465,-0.00045775,0.00048825,1741885117.633225
0.0,-0.00675,0.25725,0.0046845004,0.0,0.0001525,1741885117.648551
-0.0015,-0.00375,0.25075,0.006073,0.00083925005,4.575e-05,1741885117.661761
-0.0025,-0.003,0.246,0.00538625,0.00070200005,0.00013725001,1741885117.676179
-0.00125,-0.005,0.247,0.00437925,0.00042725,0.0001525,1741885117.69047
0.00025,-0.011,0.2495,0.0028535,7.625e-05,-0.00016775,1741885117.704847
0.00075,-0.0145,0.2535,0.0024872501,0.0002135,-0.00074775,1741885117.719157
0.00075,-0.01275,0.2555,0.00289925,0.00033575002,-0.0019685,1741885117.7334669
