acc_x,acc_y,acc_z,gyro_x,gyro_y,gyro_z,timestamp
0.2405,-0.02425,0.01825,0.0003815,0.0019225,-0.00042725,1741884993.425766
0.2455,-0.016,0.021,0.00083925005,0.0028074998,-0.00067150005,1741884993.440199
0.2485,-0.017,0.0225,0.0009155,0.003769,-0.00143425,1741884993.456037
0.2535,-0.02425,0.0205,0.000229,0.00364675,-0.00119025,1741884993.468979
0.25225,-0.02525,0.018,-0.000473,0.0032195,-0.0004425,1741884993.483444
0.24425,-0.02575,0.0145,-0.00054925,0.00231925,0.0013580001,1741884993.4987829
0.24275,-0.026,0.0145,-0.00013725001,0.0022735,0.00175475,1741884993.512228
0.2465,-0.02275,0.0155,0.00059500005,0.0028535,0.0012055,1741884993.5265422
0.253,-0.01575,0.01725,0.0007935,0.003128,0.00077825,1741884993.5409842
0.252,-0.0155,0.017,0.00061025,0.003128,0.0004425,1741884993.555255
0.2485,-0.0165,0.01375,0.000473,0.0031889998,0.00029,1741884993.569542
0.24675,-0.017,0.01225,0.00019825,0.0030669998,-0.00013725001,1741884993.58396
0.24475,-0.0185,0.00975,0.00027475,0.00279225,-0.000412,1741884993.598968
0.24625,-0.01975,0.00975,0.0005035,0.0025634998,-0.00062550005,1741884993.612704
0.24825,-0.02075,0.00975,0.0004425,0.0019989999,-0.000122000005,1741884993.627969
0.2495,-0.018,0.01175,-4.575e-05,0.001587,0.0005645,1741884993.641454
0.25,-0.01675,0.01675,-0.000885,0.0016632499,0.00119025,1741884993.655832
0.25575,-0.02125,0.03175,-0.00059500005,0.00263975,0.0007325,1741884993.670219
0.25525,-0.02175,0.03125,0.00105275,0.0056609996,-0.001068,1741884993.6845691
0.2445,-0.0195,0.0125,0.0010375,0.006546,-0.00125125,1741884993.699192
0.24125,-0.01875,0.0045,0.00033575002,0.0066985004,-0.000885,1741884993.713562
0.24075,-0.01825,-0.00075,-0.0002135,0.00587475,-0.0005035,1741884993.728775
0.24025,-0.0185,-0.00575,0.0003815,0.0052795,-0.00074775,1741884993.742558
0.24025,-0.0185,-0.00725,0.0013427499,0.0041044997,-0.001175,1741884993.7587662
0.24275,-0.0175,-0.00625,0.001175,0.0036010002,-0.00099175,1741884993.7714078
0.24425,-0.01525,-0.00425,0.00057975,0.0034484998,-0.00036625,1741884993.785932
0.24375,-0.013,-0.00425,0.000473,0.0037995,-0.0003815,1741884993.800409
0.2425,-0.014,-0.00625,0.00036625,0.00413525,-0.000534,1741884993.814943
0.23975,-0.0155,-0.013,0.00042725,0.0038757501,-0.00062550005,1741884993.829472
0.23925,-0.0155,-0.01625,0.0005645,0.003296,-0.00074775,1741884993.8439198
0.239,-0.01625,-0.01775,0.00045775,0.0012970001,-0.00057975,1741884993.8584352
0.24025,-0.02225,-0.01525,-4.575e-05,0.0003205,-7.625e-05,1741884993.873006
0.2415,-0.02375,-0.01275,-0.001175,-0.00083925005,0.0012055,1741884993.8891158
0.24325,-0.02175,-0.0085,-0.0012665,-0.001007,0.0015105,1741884993.902115
0.24375,-0.0205,-0.00725,-0.00112925,-0.001236,0.001709,1741884993.917834
0.24475,-0.019,-0.0055,-0.001175,-0.0014037499,0.00190725,1741884993.931243
0.2455,-0.01775,-0.004,-0.0013580001,-0.0016785001,0.0025025,1741884993.945729
0.24775,-0.01725,-0.0005,-0.00163275,-0.0017242499,0.00263975,1741884993.960293
0.24825,-0.01825,-0.0,-0.0017852499,-0.00163275,0.0023039998,1741884993.974916
0.24925,-0.01775,0.00025,-0.001587,-0.0016175,0.0020295,1741884993.989433
0.25025,-0.016,0.002,-0.0014037499,-0.001526,0.0017395001,1741884994.003857
0.25,-0.0155,0.00325,-0.0016632499,-0.0008545,0.00131225,1741884994.018474
0.246,-0.01675,0.00025,-0.0019989999,-0.00061025,0.0013580001,1741884994.0328
0.244,-0.0175,-0.00175,-0.00213625,-0.000946,0.00146475,1741884994.048355
0.2445,-0.0175,-0.00225,-0.0019685,-0.00131225,0.00148,1741884994.062558
0.24625,-0.01525,-0.0,-0.00187675,-0.0014495,0.0014495,1741884994.0767438
0.24625,-0.01325,0.0025,-0.0019989999,-0.00119025,0.00137325,1741884994.091257
0.246,-0.0135,0.0025,-0.0023345,-0.00065625,0.0012970001,1741884994.10575
0.2475,-0.01175,0.0045,-0.00216675,-0.0003205,0.001068,1741884994.120251
0.2465,-0.0125,0.00425,-0.00181575,6.1000002e-05,0.00077825,1741884994.134614
0.24375,-0.01325,0.00225,-0.001648,0.00035100002,0.00077825,1741884994.14901
0.2415,-0.0115,-0.00125,-0.00187675,0.000122000005,0.00083925005,1741884994.163439
0.2435,-0.0095,-0.00025,-0.0021819999,-0.00039675,0.00054925,1741884994.1781619
0.24875,-0.007,0.00225,-0.00228875,-0.0003815,0.0003205,1741884994.1925461
0.25,-0.0075,0.0015,-0.0025025,0.00010675,0.0003205,1741884994.208871
0.25025,-0.00775,0.0015,-0.0024872501,0.00035100002,0.00045775,1741884994.2214348
0.24975,-0.00625,0.002,-0.0019685,0.0010375,9.15e-05,1741884994.235826
0.2475,-0.007,0.0005,-0.0019685,0.00125125,-0.0002135,1741884994.2503412
0.2455,-0.0095,-0.00175,-0.00216675,0.0012665,-0.0005035,1741884994.264988
0.244,-0.0115,-0.003,-0.0025787498,0.00109875,-0.0009155,1741884994.279501
0.24475,-0.014,-0.00425,-0.0025025,0.00067150005,-0.0007325,1741884994.294111
0.24575,-0.014,-0.00425,-0.00184625,-0.00065625,-0.000122000005,1741884994.309173
0.24675,-0.0125,-0.00225,-0.00169375,-0.001068,9.15e-05,1741884994.323456
0.248,-0.0115,0.00025,-0.0018005001,-0.0012970001,0.00048825,1741884994.337966
0.249,-0.0095,0.00375,-0.0017395001,-0.00115975,0.00045775,1741884994.352424
0.2475,-0.01025,0.00275,-0.00177,-0.00064075,4.575e-05,1741884994.3686311
0.2465,-0.01275,0.00075,-0.0017852499,-0.000473,-9.15e-05,1741884994.381516
0.2465,-0.01325,0.0005,-0.0016785001,-0.000412,0.0,1741884994.3959732
0.24325,-0.01325,-0.00175,-0.0015565,-0.00059500005,0.00024425,1741884994.410743
0.241,-0.01425,-0.0035,-0.00143425,-0.0012055,0.00062550005,1741884994.425353
0.24025,-0.0155,-0.00425,-0.0012970001,-0.00314325,0.0014037499,1741884994.440937
0.24275,-0.01375,-0.0015,-0.00112925,-0.0038605002,0.001587,1741884994.454549
0.244,-0.0125,0.00125,-0.00071725,-0.0049285004,0.00149525,1741884994.468999
0.244,-0.011,0.00625,-0.00062550005,-0.0051880004,0.00125125,1741884994.4835641
0.245,-0.00875,0.00875,-7.625e-05,-0.0049285004,0.00054925,1741884994.498343
0.2465,-0.0045,0.0135,3.0500001e-05,-0.0044555003,0.0003205,1741884994.5126138
0.24625,-0.00625,0.0135,0.00010675,-0.0036162501,0.00061025,1741884994.528769
0.2475,-0.01,0.012,0.000229,-0.0034637498,0.00090025004,1741884994.541395
0.247,-0.00975,0.0115,0.00029,-0.00325,0.0010375,1741884994.555743
0.244,-0.0105,0.0085,0.00042725,-0.0029145,0.00090025004,1741884994.5700889
0.24275,-0.01075,0.00725,0.00068675,-0.00308225,0.00083925005,1741884994.584502
0.2435,-0.00975,0.00825,0.0016175,-0.00402825,0.00071725,1741884994.598924
0.246,-0.00525,0.01675,0.00201425,-0.004303,0.00054925,1741884994.613343
0.2455,-0.004,0.02,0.0019225,-0.00411975,0.0003205,1741884994.6287801
0.24675,-0.0055,0.02175,0.00175475,-0.00399775,0.000473,1741884994.641998
0.247,-0.00775,0.021,0.00169375,-0.0037079998,0.0009155,1741884994.65796
0.2465,-0.00875,0.0205,0.0016632499,-0.00352475,0.00096125,1741884994.67079
0.24575,-0.00825,0.0205,0.00169375,-0.0033570002,0.000885,1741884994.685214
0.24525,-0.008,0.02025,0.001709,-0.00328075,0.00086975005,1741884994.699593
0.247,-0.00575,0.02225,0.0016632499,-0.003296,0.001007,1741884994.714019
0.2485,-0.004,0.0245,0.00184625,-0.0029755002,0.00071725,1741884994.72868
0.2475,-0.003,0.027,0.00225825,-0.0027465,0.000183,1741884994.742934
0.2465,-0.00325,0.02725,0.0034637498,-0.00267025,-0.000763,1741884994.758682
0.247,-0.00475,0.03,0.0041044997,-0.0027465,-0.001068,1741884994.7720351
0.24725,-0.00625,0.031,0.0046845004,-0.00270075,-0.00131225,1741884994.7865129
0.2485,-0.00825,0.03175,0.0057677496,-0.00238025,-0.001953,1741884994.801097
0.2485,-0.00825,0.0305,0.0062865,-0.0020752498,-0.00239575,1741884994.815628
0.24775,-0.0085,0.0285,0.00712575,-0.00149525,-0.0030975002,1741884994.830123
0.2485,-0.0075,0.0275,0.0072937496,-0.0013275,-0.00328075,1741884994.844631
0.25,-0.00575,0.03,0.00788875,-0.00093075,-0.00396725,1741884994.8591418
0.25125,-0.00675,0.03425,0.008484,-0.000534,-0.004486,1741884994.873634
0.2505,-0.01,0.032,0.009613,-0.0003205,-0.0049590003,1741884994.889533
0.24675,-0.01875,0.032,0.00688175,-0.00054925,-0.0047607496,1741884994.902739
0.24625,-0.0165,0.0165,0.006363,-0.00125125,-0.0045625,1741884994.91835
0.24525,-0.01675,0.02525,0.0093995,-0.001007,-0.0047150003,1741884994.931733
0.2455,-0.017,0.02575,0.010559,-0.00042725,-0.0048979996,1741884994.946211
0.24625,-0.0165,0.023,0.010253999,-0.00024425,-0.00535575,1741884994.960716
0.24675,-0.02175,0.02225,0.009887749,-0.00071725,-0.0054932497,1741884994.975345
0.247,-0.027,0.025,0.0077667497,-0.00099175,-0.00520325,1741884994.990228
0.24375,-0.032,0.0315,0.0065917503,-0.00039675,-0.0049895,1741884995.004121
0.24275,-0.035,0.03075,0.0047150003,0.00137325,-0.0045777503,1741884995.018547
0.24525,-0.033,0.02475,0.0032347501,0.001831,-0.003891,1741884995.03291
0.246,-0.033,0.0215,-0.000946,0.0016632499,-0.001831,1741884995.048994
0.243,-0.0425,0.01975,-0.0029449998,0.0014037499,-0.00042725,1741884995.0619562
0.24175,-0.04075,0.021,-0.0043335,0.0012817499,0.00086975005,1741884995.0763211
0.24125,-0.03525,0.02125,-0.0048217503,0.0015105,0.00146475,1741884995.090702
0.23925,-0.0325,0.02,-0.0045625,0.00154125,0.00105275,1741884995.1051068
0.23925,-0.03225,0.01925,-0.0052947504,0.001419,0.00059500005,1741884995.119526
0.241,-0.0305,0.01975,-0.0061645,0.0012817499,0.00068675,1741884995.13391
0.24075,-0.03125,0.021,-0.00668325,0.00071725,0.001236,1741884995.149003
0.241,-0.02875,0.022,-0.0059967497,0.0004425,0.00148,1741884995.1627252
0.24175,-0.02575,0.02325,-0.0049895,0.000183,0.0013885,1741884995.1788008
0.243,-0.02325,0.02375,-0.0031889998,-7.625e-05,0.00071725,1741884995.191635
0.24725,-0.02075,0.02475,-0.0028229998,7.625e-05,0.0004425,1741884995.206136
0.249,-0.0215,0.0265,-0.00292975,0.00057975,0.0002595,1741884995.2205172
0.24975,-0.024,0.02725,-0.0029755002,0.0007325,0.00029,1741884995.2349498
0.24925,-0.02525,0.027,-0.0026245,0.0008545,0.00013725001,1741884995.249323
0.25075,-0.027,0.02725,-0.0025025,0.00105275,0.00013725001,1741884995.2636921
0.252,-0.0265,0.02775,-0.0023345,0.0016785001,0.000229,1741884995.278924
0.25475,-0.0245,0.0265,-0.0020599999,0.0019685,0.000122000005,1741884995.292532
0.25475,-0.025,0.02525,-0.001709,0.00216675,-0.00013725001,1741884995.308651
0.25375,-0.02675,0.024,-0.00125125,0.0022277501,-0.00051875,1741884995.321514
0.252,-0.02725,0.023,-0.0012665,0.0021972498,-0.0004425,1741884995.336044
0.2515,-0.02425,0.024,-0.00154125,0.0023345,-6.1000002e-05,1741884995.350504
0.25025,-0.0205,0.026,-0.00169375,0.0026245,9.15e-05,1741884995.364952
0.24775,-0.02025,0.02425,-0.00163275,0.003128,0.00019825,1741884995.379317
0.242,-0.01625,0.01875,-0.00149525,0.00314325,3.0500001e-05,1741884995.3936791
0.23975,-0.014,0.01725,-0.0013427499,0.00263975,-0.00068675,1741884995.4088562
0.23475,-0.01225,0.0155,-0.001587,0.0023039998,-0.00074775,1741884995.422622
0.233,-0.01325,0.01375,-0.00216675,0.001953,-0.00039675,1741884995.437114
0.23025,-0.0165,0.012,-0.0028074998,0.00119025,-0.000122000005,1741884995.4516811
0.22625,-0.02125,0.0095,-0.0024872501,0.000763,-0.00042725,1741884995.466187
0.227,-0.02225,0.009,-0.0018005001,-0.00024425,-0.0012665,1741884995.480802
0.234,-0.02725,0.01025,-0.00169375,-0.00068675,-0.001587,1741884995.495462
0.2365,-0.03125,0.012,-0.00119025,-0.00108325,-0.0020599999,1741884995.510017
0.2415,-0.0355,0.0185,-0.001068,-0.00099175,-0.00204475,1741884995.5245178
0.24475,-0.03525,0.02075,-0.0013427499,-0.000412,-0.0014495,1741884995.53949
0.25175,-0.03325,0.02175,-0.00163275,-4.575e-05,-0.001068,1741884995.5536902
0.25425,-0.033,0.02175,-0.0017852499,0.00030525,-0.00086975005,1741884995.5681658
0.25425,-0.0355,0.0205,-0.00119025,0.00067150005,-0.0012665,1741884995.58262
0.254,-0.0375,0.02025,-0.00071725,0.0007325,-0.0015105,1741884995.598824
0.2535,-0.0395,0.02,-0.00036625,0.0007935,-0.001068,1741884995.611609
0.2525,-0.0405,0.01975,-0.0005035,0.000824,-0.0003815,1741884995.626047
0.25125,-0.03875,0.01975,-0.000763,0.000885,0.000885,1741884995.640531
0.2505,-0.03425,0.01925,-0.000946,0.0010375,0.00115975,1741884995.654965
0.25225,-0.03375,0.01975,-0.0009765,0.00146475,0.001068,1741884995.669317
0.251,-0.0355,0.0195,-0.00065625,0.00163275,0.000885,1741884995.683695
0.2485,-0.0375,0.01875,-0.00027475,0.0017395001,0.000763,1741884995.698466
0.2465,-0.03925,0.01825,0.00027475,0.001831,0.00083925005,1741884995.712495
0.242,-0.04,0.01725,0.000473,0.00187675,0.00108325,1741884995.728989
0.239,-0.03925,0.01475,0.000946,0.00169375,0.001953,1741884995.74124
0.23325,-0.033,0.0105,0.0012207499,0.0014037499,0.002411,1741884995.755542
0.2295,-0.02775,0.00875,0.001526,0.00061025,0.0031889998,1741884995.769957
0.225,-0.0205,0.0055,0.00148,0.00013725001,0.0034484998,1741884995.784232
0.22525,-0.01675,0.0045,0.00137325,-0.00029,0.00358575,1741884995.798872
0.2235,-0.00925,0.004,0.001587,-0.00080875,0.0033875,1741884995.81303
0.2235,-0.008,0.00225,0.001175,-0.001007,0.0031889998,1741884995.8283882
0.2255,-0.008,0.001,9.15e-05,-0.0017852499,0.0028687501,1741884995.841752
0.23025,-0.00875,0.00325,1.5250001e-05,-0.002365,0.0025787498,1741884995.8561401
0.233,-0.00925,0.0055,-0.0001525,-0.003662,0.00148,1741884995.8705668
0.24375,-0.01325,0.01075,-0.00062550005,-0.004074,0.00061025,1741884995.885012
0.25325,-0.01675,0.01575,-0.001114,-0.00399775,-0.000946,1741884995.8996348
0.27125,-0.0265,0.0285,-0.0003815,-0.0036315,-0.0012817499,1741884995.914242
0.2745,-0.0295,0.03425,0.00074775,-0.003006,-0.00137325,1741884995.9289238
0.27575,-0.029,0.039,0.0023345,-0.0012970001,-0.00148,1741884995.9432352
0.27775,-0.026,0.0475,0.002243,-0.000183,-0.0014495,1741884995.9588852
0.27725,-0.02725,0.04875,0.000946,0.002411,-0.00071725,1741884995.972194
0.272,-0.03325,0.0425,0.00074775,0.0037537501,-0.00027475,1741884995.986729
0.26625,-0.0315,0.03525,0.00160225,0.0058287503,-0.000122000005,1741884996.0010931
0.253,-0.0205,0.019,0.0018615,0.006302,-0.00042725,1741884996.015525
0.24775,-0.0165,0.013,0.001831,0.006302,-0.00080875,1741884996.030142
0.2365,-0.01225,0.004,0.0017242499,0.0059815003,-0.00070200005,1741884996.0445209
0.23275,-0.01075,0.001,0.0014037499,0.00546275,-0.00045775,1741884996.058908
0.22975,-0.0085,-0.0015,0.00059500005,0.00413525,-0.00027475,1741884996.073418
0.22375,-0.00725,-0.0055,0.00035100002,0.0034790002,-0.00035100002,1741884996.0895638
0.222,-0.009,-0.00675,-0.0003815,0.0022277501,-0.00033575002,1741884996.102407
0.2205,-0.013,-0.0075,-0.00068675,0.0015105,-0.00029,1741884996.118232
0.222,-0.01175,-0.0065,-0.00108325,-0.0002135,-0.00024425,1741884996.13169
0.23025,-0.01075,-0.001,-0.0012817499,-0.00090025004,-0.000412,1741884996.146425
0.23375,-0.015,0.00125,-0.001709,-0.0017395001,-0.0008545,1741884996.161043
0.239,-0.026,0.0055,-0.0017852499,-0.0020752498,-0.0009765,1741884996.175733
0.24175,-0.02875,0.009,-0.00163275,-0.00279225,-0.00108325,1741884996.190186
0.247,-0.034,0.016,-0.001587,-0.0030365,-0.001007,1741884996.204833
0.2495,-0.03575,0.019,-0.00157175,-0.0030365,-0.00080875,1741884996.2193952
0.252,-0.03575,0.02175,-0.0013885,-0.00245675,-0.00030525,1741884996.2339892
0.25425,-0.03575,0.025,-0.0012970001,-0.0020905002,0.0,1741884996.248967
0.255,-0.03575,0.02475,-0.001007,-0.0012055,0.00010675,1741884996.2630231
0.255,-0.03775,0.0215,-0.00062550005,-0.00074775,-7.625e-05,1741884996.278812
0.25375,-0.03825,0.019,0.0003205,-0.0002595,-0.000122000005,1741884996.29213
0.25275,-0.03575,0.01625,0.00062550005,-0.0002595,0.0001525,1741884996.306505
0.2545,-0.033,0.0165,0.0009155,-0.00013725001,0.00061025,1741884996.320907
0.25675,-0.026,0.01625,0.001068,4.575e-05,0.00059500005,1741884996.335196
0.25625,-0.024,0.01575,0.0011445,0.0002595,0.00048825,1741884996.349459
0.25575,-0.023,0.01575,0.000885,0.00070200005,0.00039675,1741884996.3639412
0.253,-0.022,0.0175,0.00074775,0.00099175,0.00033575002,1741884996.378392
0.25,-0.02225,0.017,0.00083925005,0.0015565,-7.625e-05,1741884996.3928928
0.24275,-0.02575,0.01325,0.000946,0.00169375,-0.000229,1741884996.4085498
0.241,-0.02675,0.01175,0.001114,0.001648,-0.0002135,1741884996.421941
0.2385,-0.0245,0.00875,0.00108325,0.00157175,-4.575e-05,1741884996.4362922
0.23725,-0.0225,0.00675,0.000763,0.00131225,0.00035100002,1741884996.45059
0.2375,-0.01775,0.004,0.00061025,0.001114,0.00042725,1741884996.46492
0.23775,-0.015,0.004,0.00048825,0.00090025004,0.0003815,1741884996.47922
0.23825,-0.0135,0.005,6.1000002e-05,0.00054925,0.000183,1741884996.4934988
0.24025,-0.0135,0.008,-0.0001525,0.0004425,9.15e-05,1741884996.5086179
0.24075,-0.0135,0.008,-0.00024425,0.00016775,-9.15e-05,1741884996.522354
0.2425,-0.01625,0.0075,-0.00027475,0.0,-0.0002135,1741884996.5368829
0.24325,-0.02,0.00775,-0.00039675,-0.0002595,-0.000473,1741884996.5515132
0.244,-0.02625,0.00875,-0.00042725,-0.00036625,-0.00051875,1741884996.566102
0.245,-0.02775,0.01075,-0.00051875,-0.00054925,-0.00036625,1741884996.580686
0.2485,-0.028,0.0145,-0.0005035,-0.00057975,-0.000229,1741884996.595219
0.24975,-0.0275,0.01525,-0.0003815,-0.00051875,-0.0001525,1741884996.609674
0.2505,-0.02725,0.0155,-0.00010675,-0.000183,-0.0001525,1741884996.62421
0.25025,-0.02725,0.01425,-3.0500001e-05,3.0500001e-05,-0.00016775,1741884996.63923
0.24925,-0.02675,0.01325,-3.0500001e-05,0.00039675,-9.15e-05,1741884996.653208
0.24775,-0.0235,0.01125,-6.1000002e-05,0.0005035,-3.0500001e-05,1741884996.6679392
0.24675,-0.02275,0.01,0.00010675,0.000473,6.1000002e-05,1741884996.682011
0.24475,-0.024,0.007,0.0001525,0.00036625,0.00019825,1741884996.696505
0.24425,-0.02475,0.006,-1.5250001e-05,0.000122000005,0.00051875,1741884996.710887
0.24575,-0.0245,0.005,1.5250001e-05,-1.5250001e-05,0.00051875,1741884996.725301
0.24675,-0.02475,0.00525,0.00013725001,-0.0001525,0.00039675,1741884996.739617
0.2475,-0.0245,0.00725,0.000229,-0.00027475,0.00030525,1741884996.753997
0.249,-0.02275,0.014,6.1000002e-05,-0.0001525,0.0004425,1741884996.7682712
0.24875,-0.022,0.0155,-0.00016775,0.000412,0.00062550005,1741884996.782652
0.2435,-0.021,0.01275,-0.00010675,0.00062550005,0.000534,1741884996.798618
0.24025,-0.021,0.0105,0.00019825,0.0005035,0.000412,1741884996.811506
0.235,-0.0205,0.0105,0.00059500005,0.000229,0.00048825,1741884996.825821
0.2325,-0.02,0.01175,0.00096125,-6.1000002e-05,0.0005035,1741884996.840292
0.23025,-0.01975,0.0115,0.00029,-0.00057975,0.000183,1741884996.8546329
0.22675,-0.01925,0.00725,3.0500001e-05,-0.00090025004,4.575e-05,1741884996.8689861
0.2265,-0.01875,0.006,0.00016775,-0.0017852499,0.00024425,1741884996.8834891
0.22875,-0.0165,0.00525,7.625e-05,-0.0022277501,0.000473,1741884996.897959
0.232,-0.014,0.0055,-0.00035100002,-0.0028229998,0.00059500005,1741884996.912333
0.2415,-0.013,0.00675,-0.00067150005,-0.0029755002,0.00051875,1741884996.928736
0.24825,-0.01375,0.009,-0.001236,-0.00302125,0.00024425,1741884996.94206
0.25875,-0.01575,0.0165,-0.0012665,-0.0028687501,-0.00010675,1741884996.956278
0.26225,-0.01875,0.01975,-0.0012055,-0.00270075,-0.000534,1741884996.970897
0.26525,-0.0225,0.023,-0.00105275,-0.0021819999,-0.00112925,1741884996.985483
0.26775,-0.03075,0.028,-0.001007,-0.00177,-0.0012970001,1741884997.000063
0.267,-0.03525,0.02925,-0.00096125,-0.00077825,-0.00119025,1741884997.014722
0.2635,-0.04025,0.031,-0.00083925005,-0.0003205,-0.0009765,1741884997.02932
0.2615,-0.04075,0.03,-0.0003205,0.00061025,-0.0004425,1741884997.043998
0.25525,-0.038,0.02475,-1.5250001e-05,0.00105275,-0.0002135,1741884997.058472
0.25225,-0.034,0.021,0.0004425,0.0016785001,0.00024425,1741884997.0728362
0.2465,-0.0265,0.01375,0.000534,0.00187675,0.0003815,1741884997.089078
0.243,-0.02325,0.0095,0.00062550005,0.00198375,0.000412,1741884997.101341
0.24025,-0.0205,0.00625,0.00067150005,0.0017852499,0.00030525,1741884997.115705
0.238,-0.019,0.004,0.00057975,0.00149525,0.0003205,1741884997.1299222
0.238,-0.0185,0.005,0.00054925,0.00086975005,0.00027475,1741884997.144208
0.238,-0.019,0.00875,0.00064075,0.00059500005,0.00019825,1741884997.1588979
0.23775,-0.02075,0.01025,0.000763,0.00016775,9.15e-05,1741884997.172825
0.2395,-0.0215,0.011,0.00071725,3.0500001e-05,0.00013725001,1741884997.1891031
0.2405,-0.02125,0.01075,0.00061025,-4.575e-05,0.00019825,1741884997.2015538
0.24175,-0.023,0.01,0.00061025,-0.0003205,0.0002135,1741884997.216038
0.2445,-0.029,0.01075,0.00068675,-0.000534,0.00016775,1741884997.230423
0.2465,-0.0305,0.01375,0.00080875,-0.00080875,0.0001525,1741884997.244798
0.2515,-0.0295,0.02025,0.000824,-0.00074775,0.00024425,1741884997.259237
0.2535,-0.0285,0.02125,0.00080875,-0.00019825,0.00054925,1741884997.273668
0.25375,-0.02725,0.02,0.000885,0.00013725001,0.00061025,1741884997.2891068
0.253,-0.02625,0.019,0.00109875,0.00061025,0.00059500005,1741884997.302552
0.25275,-0.024,0.01925,0.001114,0.00070200005,0.00062550005,1741884997.317844
0.253,-0.0225,0.02,0.00115975,0.000824,0.00070200005,1741884997.331274
0.25275,-0.0205,0.02025,0.0014037499,0.0012207499,0.000763,1741884997.345684
0.24925,-0.0165,0.01725,0.00137325,0.0014037499,0.00067150005,1741884997.3610618
0.2475,-0.0145,0.01525,0.00105275,0.00169375,0.00070200005,1741884997.374401
0.24325,-0.01025,0.0105,0.0009765,0.00175475,0.00065625,1741884997.389515
0.241,-0.0085,0.0075,0.000763,0.0016632499,0.0002135,1741884997.402889
0.238,-0.00825,0.0045,0.00042725,0.00148,6.1000002e-05,1741884997.417917
0.23825,-0.0105,0.00525,-1.5250001e-05,0.0012207499,4.575e-05,1741884997.4315891
0.23875,-0.013,0.007,-0.0003205,0.00064075,1.5250001e-05,1741884997.4459672
0.23875,-0.01625,0.0115,-0.000122000005,0.00039675,-0.00019825,1741884997.460476
0.239,-0.018,0.01375,-7.625e-05,0.000122000005,-0.00033575002,1741884997.474967
0.2385,-0.01975,0.016,-0.00027475,0.0002135,-0.00013725001,1741884997.489471
0.23725,-0.01925,0.0145,-0.00051875,0.0004425,6.1000002e-05,1741884997.503906
0.23625,-0.0185,0.007,-0.00048825,0.00035100002,-3.0500001e-05,1741884997.518386
0.238,-0.01875,0.00425,-0.00048825,-0.00024425,-0.0002595,1741884997.5329769
0.2435,-0.02125,0.00475,-0.0005645,-0.000534,-0.0002595,1741884997.5484102
0.2465,-0.0225,0.0075,-0.00059500005,-0.00074775,-0.000229,1741884997.562318
0.24925,-0.023,0.01075,-0.00054925,-0.00086975005,-0.00019825,1741884997.578571
0.2565,-0.02525,0.01625,-0.00059500005,-0.00071725,-0.00016775,1741884997.591382
0.26025,-0.02625,0.018,-0.00035100002,-6.1000002e-05,-0.0003205,1741884997.605966
0.26325,-0.02775,0.02225,-0.00010675,0.00036625,-0.0005035,1741884997.620554
0.2635,-0.0295,0.02375,0.0002135,0.0014495,-0.0007935,1741884997.634953
0.262,-0.03275,0.0225,0.00029,0.0020905002,-0.00083925005,1741884997.64936
0.26,-0.0335,0.0195,0.0003815,0.003296,-0.00070200005,1741884997.663811
0.257,-0.03175,0.01375,0.00039675,0.00367725,-0.00051875,1741884997.678762
0.256,-0.0295,0.01225,0.00042725,0.00402825,-0.00036625,1741884997.6927109
0.25525,-0.0265,0.01125,0.00035100002,0.0046845004,-0.00036625,1741884997.7084742
0.2525,-0.022,0.00925,0.00027475,0.0050202496,-0.00042725,1741884997.72145
0.24875,-0.0205,0.00675,0.00039675,0.0055085,-0.0005645,1741884997.7358952
0.237,-0.01725,-0.001,0.00039675,0.0054475004,-0.000473,1741884997.750367
0.2295,-0.0165,-0.00625,0.00013725001,0.0042115003,0.000412,1741884997.764808
0.21375,-0.018,-0.016,1.5250001e-05,0.0031889998,0.00090025004,1741884997.779205
0.207,-0.0185,-0.019,4.575e-05,0.00074775,0.00157175,1741884997.7936058
0.19975,-0.01725,-0.01875,4.575e-05,-0.00068675,0.0020295,1741884997.808794
0.19975,-0.016,-0.0165,3.0500001e-05,-0.0021819999,0.0025787498,1741884997.822551
0.2015,-0.0145,-0.014,0.00016775,-0.0045012496,0.0030669998,1741884997.8390248
0.21075,-0.01125,-0.0105,0.00030525,-0.0051880004,0.00279225,1741884997.851569
0.218,-0.0085,-0.01125,-1.5250001e-05,-0.0060882503,0.0021972498,1741884997.86608
0.24075,-0.007,-0.013,-0.00064075,-0.0065307496,0.0020752498,1741884997.880647
0.255,-0.009,-0.00825,-0.001709,-0.0073242504,0.0014495,1741884997.8952022
0.285,-0.01375,0.019,-0.0016632499,-0.0073547503,0.00062550005,1741884997.9096498
0.299,-0.01775,0.03625,-0.0007935,-0.0058287503,-0.00154125,1741884997.924198
0.32125,-0.031,0.06475,-0.00045775,-0.0041044997,-0.0022125002,1741884997.939104
0.3245,-0.038,0.07275,-0.00029,-0.0017395001,-0.00238025,1741884997.953386
0.31025,-0.046,0.06625,-0.00039675,0.0037537501,-0.00177,1741884997.9679139
0.29775,-0.044,0.053,-0.00027475,0.0059205,-0.0012665,1741884997.982309
0.28425,-0.03925,0.03825,0.00065625,0.00845325,-0.00057975,1741884997.996725
0.257,-0.03125,0.01125,0.001175,0.00903325,-0.00051875,1741884998.0110688
0.2435,-0.0285,0.0,0.0017242499,0.009079001,-0.00019825,1741884998.025503
0.22175,-0.02125,-0.01675,0.00169375,0.008545,0.0002135,1741884998.039875
0.21375,-0.0175,-0.0215,0.0014495,0.0066374997,0.0013427499,1741884998.0541708
0.2025,-0.00975,-0.0245,0.00131225,0.0055237496,0.001892,1741884998.068726
0.1995,-0.007,-0.02375,0.001175,0.0044250004,0.00228875,1741884998.083074
0.19775,-0.00525,-0.02325,0.00096125,0.00238025,0.0024414998,1741884998.097857
0.19775,0.001,-0.02325,0.0008545,0.0013580001,0.002411,1741884998.112031
0.19925,0.004,-0.02325,0.00033575002,-0.00070200005,0.0022125002,1741884998.126376
0.20575,0.004,-0.022,4.575e-05,-0.00169375,0.0019685,1741884998.1408262
0.2105,0.002,-0.02,-0.00035100002,-0.0034484998,0.00112925,1741884998.155297
0.2285,-0.00525,-0.009,-0.0005035,-0.004074,0.00061025,1741884998.169884
0.23625,-0.0085,-0.003,-0.00036625,-0.00440975,-0.0004425,1741884998.184484
0.24675,-0.01525,0.003,-0.00033575002,-0.0045012496,-0.00074775,1741884998.1990578
0.25325,-0.01875,0.007,-0.00051875,-0.004593,-0.00083925005,1741884998.213713
0.25925,-0.022,0.012,-0.00065625,-0.004486,-0.001007,1741884998.228863
0.27025,-0.02675,0.02225,-0.000473,-0.0041810004,-0.0011445,1741884998.242871
0.27525,-0.027,0.02625,-7.625e-05,-0.00308225,-0.0011445,1741884998.257982
0.28025,-0.0275,0.02825,-7.625e-05,-0.0023497501,-0.0009155,1741884998.272018
0.28075,-0.02675,0.028,-0.00019825,-0.00074775,-0.00039675,1741884998.28656
0.2775,-0.02325,0.026,-6.1000002e-05,6.1000002e-05,-0.00035100002,1741884998.300937
0.27325,-0.0225,0.023,0.00010675,0.001526,-0.00033575002,1741884998.315402
0.2615,-0.02125,0.01525,4.575e-05,0.0020599999,-0.0001525,1741884998.3298821
0.25625,-0.02,0.01175,-1.5250001e-05,0.00242625,6.1000002e-05,1741884998.344169
0.25125,-0.01825,0.009,0.000122000005,0.00279225,0.0001525,1741884998.359091
0.24175,-0.01575,0.00275,0.000229,0.0028229998,0.00010675,1741884998.372768
0.2375,-0.01425,-0.0,0.00030525,0.0024414998,0.000229,1741884998.3871539
0.23325,-0.01025,-0.00225,0.00030525,0.00213625,0.000229,1741884998.401626
0.2325,-0.0095,-0.00225,0.00016775,0.0016632499,-3.0500001e-05,1741884998.41617
0.23,-0.01125,-0.00525,1.5250001e-05,0.0015105,-0.0001525,1741884998.43079
0.22825,-0.01275,-0.00725,-0.0002135,0.0009765,-0.00024425,1741884998.445394
0.22825,-0.0145,-0.00775,-0.00016775,0.000534,-0.00027475,1741884998.4599848
0.23025,-0.014,-0.007,-6.1000002e-05,0.00010675,-0.00035100002,1741884998.474601
0.23425,-0.0135,-0.00675,0.0,-0.00042725,-0.00054925,1741884998.489742
0.23675,-0.0145,-0.00675,-0.0001525,-0.00062550005,-0.0005645,1741884998.5039208
0.24,-0.01575,-0.0065,-0.000473,-0.00115975,-0.000534,1741884998.51862
0.2455,-0.01875,-0.0015,-0.00048825,-0.0013885,-0.00062550005,1741884998.533368
0.24825,-0.02025,0.0025,-0.00030525,-0.00143425,-0.00090025004,1741884998.5488908
0.2535,-0.02375,0.00725,-0.00027475,-0.0012665,-0.00090025004,1741884998.56253
0.25575,-0.02525,0.00825,-0.00029,-0.00086975005,-0.0005645,1741884998.57858
0.261,-0.02525,0.012,-0.00024425,-0.00067150005,-0.000412,1741884998.591681
0.2635,-0.02425,0.015,-3.0500001e-05,4.575e-05,-0.0003815,1741884998.6061718
0.26325,-0.02325,0.01675,0.00013725001,0.00059500005,-0.00048825,1741884998.620646
0.26075,-0.022,0.0155,0.00024425,0.00160225,-0.00051875,1741884998.635073
0.25425,-0.0185,0.0115,0.0002595,0.0019225,-0.000534,1741884998.649468
0.25025,-0.01775,0.00975,0.00030525,0.0021515,-0.00062550005,1741884998.66412
0.24575,-0.0175,0.00725,0.00042725,0.00238025,-0.00067150005,1741884998.678894
0.23525,-0.01875,0.0,0.0005035,0.0023039998,-0.00048825,1741884998.692909
0.2305,-0.01725,-0.004,0.00042725,0.0016175,6.1000002e-05,1741884998.708891
0.22425,-0.01575,-0.01,0.000229,0.0010375,0.00029,1741884998.721645
0.22325,-0.01575,-0.01125,-6.1000002e-05,-0.0002595,0.0007935,1741884998.736307
0.2235,-0.01375,-0.0125,-4.575e-05,-0.00090025004,0.00112925,1741884998.7508538
0.2245,-0.011,-0.01225,0.000122000005,-0.001587,0.00154125,1741884998.765397
0.2365,-0.01125,-0.01125,0.00036625,-0.003296,0.0022735,1741884998.779899
0.24475,-0.01375,-0.0085,0.0002135,-0.0038757501,0.0022735,1741884998.794283
0.25175,-0.017,-0.0045,-0.00019825,-0.004013,0.00157175,1741884998.809094
0.26525,-0.021,0.00925,-0.00029,-0.00381475,0.00125125,1741884998.823303
0.2725,-0.0215,0.0185,-6.1000002e-05,-0.0026245,0.00059500005,1741884998.839586
0.2805,-0.024,0.02825,0.000183,-0.00149525,1.5250001e-05,1741884998.85215
0.27975,-0.02675,0.02725,0.00051875,0.0007935,-0.00077825,1741884998.868001
0.27225,-0.03,0.023,0.00064075,0.00160225,-0.000763,1741884998.881093
0.2675,-0.02875,0.02075,0.000824,0.0021819999,-0.00068675,1741884998.895492
0.2575,-0.025,0.01475,0.00115975,0.0032195,-0.00074775,1741884998.90996
0.251,-0.023,0.0105,0.001175,0.00372325,-0.0007935,1741884998.9243698
0.244,-0.0205,0.0055,0.0010375,0.004303,-0.00059500005,1741884998.939392
0.2305,-0.01575,-0.00375,0.00090025004,0.00434875,-0.0003205,1741884998.953265
0.22475,-0.01325,-0.00775,0.00074775,0.0037385002,0.00039675,1741884998.968016
0.21625,-0.00875,-0.01275,0.000824,0.003128,0.0005645,1741884998.982188
0.214,-0.0075,-0.014,0.00090025004,0.00157175,0.00039675,1741884998.996821
0.213,-0.00625,-0.01475,0.000824,0.00083925005,0.00027475,1741884999.011306
0.21475,-0.0055,-0.01575,0.00065625,0.00010675,0.00024425,1741884999.025646
0.219,-0.005,-0.01675,3.0500001e-05,-0.0014495,0.00036625,1741884999.04028
0.23,-0.00775,-0.017,-0.00016775,-0.0022277501,0.00030525,1741884999.054883
0.2365,-0.011,-0.0145,-0.0002595,-0.00354,-6.1000002e-05,1741884999.069442
0.25325,-0.01875,-0.0005,-0.0003205,-0.003952,-0.000122000005,1741884999.084268
0.26225,-0.021,0.008,-0.00029,-0.0037079998,-0.0001525,1741884999.099054
0.276,-0.02375,0.021,-0.0002135,-0.00302125,-0.0002135,1741884999.113454
0.2785,-0.02625,0.02225,-0.00027475,-0.0012055,1.5250001e-05,1741884999.1288161
0.27725,-0.0285,0.0235,-0.0003205,-0.000412,4.575e-05,1741884999.142529
0.276,-0.02725,0.0245,0.00024425,0.0007935,-0.00013725001,1741884999.156919
0.27075,-0.0245,0.0235,0.00065625,0.001419,-0.00033575002,1741884999.171626
0.2655,-0.023,0.0195,0.0009155,0.0020752498,-0.00039675,1741884999.1860201
0.25925,-0.0205,0.014,0.00102225,0.00314325,-0.000183,1741884999.200393
0.246,-0.01475,0.002,0.001007,0.0035095,-4.575e-05,1741884999.214836
0.24075,-0.01275,-0.00275,0.000824,0.00367725,0.00016775,1741884999.229266
0.2335,-0.0115,-0.00925,0.00077825,0.0033722501,0.000229,1741884999.2436302
0.2315,-0.01075,-0.01075,0.00071725,0.00245675,0.0002595,1741884999.2588952
0.23075,-0.0095,-0.01175,0.00059500005,0.00201425,0.0002135,1741884999.272458
0.231,-0.00975,-0.01175,0.00045775,0.00108325,-0.0001525,1741884999.287039
0.23375,-0.01175,-0.008,0.00042725,0.00068675,-0.00033575002,1741884999.301667
0.23675,-0.013,-0.005,0.0003815,0.00045775,-0.0005035,1741884999.3162491
0.2385,-0.01525,-0.004,0.000229,0.00042725,-0.00062550005,1741884999.330672
0.239,-0.0205,-0.00625,0.0002135,0.00036625,-0.0005645,1741884999.345153
0.23975,-0.021,-0.0065,0.00033575002,1.5250001e-05,-0.0003815,1741884999.359552
0.2425,-0.02025,-0.005,0.000473,-0.0002135,-0.00035100002,1741884999.374172
0.2445,-0.01875,-0.004,0.00054925,-0.00045775,-0.00027475,1741884999.389204
0.2475,-0.0155,-0.0005,0.0004425,-0.00039675,-0.00019825,1741884999.40335
0.2475,-0.0165,-0.0005,4.575e-05,-0.0001525,-7.625e-05,1741884999.4180322
0.24575,-0.01875,-0.00075,-1.5250001e-05,-0.00013725001,-3.0500001e-05,1741884999.432728
0.24575,-0.01825,0.0005,0.0002595,-0.0002135,-0.000229,1741884999.448549
0.245,-0.01775,0.00125,0.0003815,-0.00013725001,-0.00035100002,1741884999.461544
0.2445,-0.01725,-0.00075,0.00033575002,-3.0500001e-05,-0.0003205,1741884999.476174
0.24525,-0.015,-0.003,0.0,-4.575e-05,-7.625e-05,1741884999.490623
0.24775,-0.01175,-0.00275,-7.625e-05,-0.000122000005,-0.00019825,1741884999.505218
0.24875,-0.01325,-0.00175,0.00016775,-0.000183,-0.00090025004,1741884999.519844
0.25025,-0.01825,-0.0005,0.00024425,-0.000183,-0.00108325,1741884999.5343528
0.2515,-0.02075,0.0005,0.0002135,-0.00013725001,-0.00093075,1741884999.548866
0.2515,-0.02325,0.00175,0.00027475,-4.575e-05,-0.0007935,1741884999.563259
0.25025,-0.024,0.00125,0.0003205,0.00024425,-0.00051875,1741884999.57827
0.24825,-0.02425,-0.0015,0.00035100002,0.00036625,-0.00035100002,1741884999.592167
0.24675,-0.02375,-0.0035,0.00042725,0.00042725,-0.0002135,1741884999.606536
0.24575,-0.0225,-0.00425,0.000534,0.00036625,4.575e-05,1741884999.6209369
0.244,-0.0195,-0.00325,0.000534,0.00033575002,0.00016775,1741884999.635252
0.2435,-0.01875,-0.00275,0.0004425,0.00029,0.0003815,1741884999.649662
0.24175,-0.01525,-0.0025,0.000412,0.00029,0.00048825,1741884999.664066
0.24175,-0.015,-0.002,0.0002135,0.0002135,0.00062550005,1741884999.678903
0.24275,-0.01275,-0.0025,0.000122000005,0.00013725001,0.00065625,1741884999.692859
0.243,-0.0115,-0.00325,0.00010675,4.575e-05,0.000534,1741884999.708629
0.24475,-0.01225,-0.00375,0.00019825,-0.00024425,-3.0500001e-05,1741884999.7218611
0.24575,-0.013,-0.00275,0.0001525,-0.00035100002,-0.000229,1741884999.736354
0.24625,-0.015,-0.002,-0.000122000005,-0.00030525,-0.00033575002,1741884999.751057
0.246,-0.02125,-0.0015,-0.0002135,-0.0002595,-0.00027475,1741884999.7657988
0.24675,-0.02175,-0.00125,-0.000122000005,-0.0003205,-0.0002135,1741884999.780452
0.249,-0.0225,-0.00025,-1.5250001e-05,-0.00030525,-0.00024425,1741884999.7951932
0.24975,-0.0235,0.0,7.625e-05,-0.0001525,-0.00016775,1741884999.809481
0.251,-0.0225,0.0015,9.15e-05,-6.1000002e-05,-6.1000002e-05,1741884999.824055
0.2505,-0.0215,0.0015,0.00029,0.000183,-3.0500001e-05,1741884999.839127
0.2505,-0.0185,0.00175,0.000412,0.0003205,-9.15e-05,1741884999.852958
0.251,-0.01775,0.00225,0.00039675,0.0005035,-4.575e-05,1741884999.8678432
0.25,-0.01825,0.00125,0.00013725001,0.00090025004,0.00013725001,1741884999.8816488
0.24725,-0.01825,-0.00225,0.00013725001,0.000946,0.000122000005,1741884999.896069
0.24625,-0.01675,-0.0025,0.0002135,0.0007935,-4.575e-05,1741884999.910655
0.245,-0.01575,-0.00125,0.00016775,0.00074775,-7.625e-05,1741884999.925178
0.2445,-0.01525,-0.00075,0.0,0.000824,3.0500001e-05,1741884999.939421
0.24225,-0.01475,-0.0025,-4.575e-05,0.00083925005,3.0500001e-05,1741884999.953957
0.2415,-0.01575,-0.004,3.0500001e-05,0.00059500005,-0.00013725001,1741884999.968448
0.24175,-0.01475,-0.00525,9.15e-05,0.0004425,-0.00024425,1741884999.9830132
0.242,-0.0155,-0.00525,9.15e-05,0.00036625,-0.00036625,1741884999.998637
0.242,-0.018,-0.00575,-0.000183,0.0003205,-0.00027475,1741885000.012056
0.2415,-0.021,-0.00825,-0.00035100002,0.000229,-6.1000002e-05,1741885000.0266821
0.243,-0.02,-0.00725,-0.00039675,-0.00016775,0.00019825,1741885000.041228
0.248,-0.01875,-0.0015,-0.0003205,-0.000183,0.00013725001,1741885000.0558379
0.24925,-0.01925,-0.001,-0.00033575002,0.000229,7.625e-05,1741885000.0702348
0.25025,-0.01925,-0.00325,-0.00035100002,0.00039675,7.625e-05,1741885000.0847738
0.2505,-0.01925,-0.004,-0.00027475,0.0005035,-0.00010675,1741885000.099396
0.2505,-0.01975,-0.00275,-0.00019825,0.00054925,-0.0002595,1741885000.113922
0.25,-0.0205,-0.00175,-0.00016775,0.00070200005,-0.000412,1741885000.128812
0.2485,-0.022,-0.0005,-0.0002595,0.00083925005,-0.00033575002,1741885000.143237
0.247,-0.02225,-0.0005,-0.00033575002,0.00102225,-0.00024425,1741885000.158973
0.245,-0.02125,-0.00175,-0.0002595,0.0013580001,-0.0003205,1741885000.1722949
0.2415,-0.018,-0.00525,-0.00013725001,0.00137325,-0.00045775,1741885000.186823
0.241,-0.01625,-0.00625,3.0500001e-05,0.0012055,-0.0007325,1741885000.201235
0.24225,-0.01375,-0.00625,0.0,0.0012207499,-0.00080875,1741885000.215762
0.24125,-0.01475,-0.008,-0.00033575002,0.00131225,-0.000885,1741885000.230377
0.238,-0.01925,-0.0115,-0.00057975,0.001236,-0.000885,1741885000.244961
0.2385,-0.02025,-0.01225,-0.000946,0.00083925005,-0.00065625,1741885000.259555
0.23875,-0.02375,-0.011,-0.000824,0.000473,-0.00042725,1741885000.274168
0.2385,-0.0245,-0.0105,-0.00061025,9.15e-05,-0.0002135,1741885000.289091
0.24075,-0.0255,-0.011,-0.00029,-0.00062550005,3.0500001e-05,1741885000.303357
0.2425,-0.02725,-0.0115,-0.00024425,-0.000946,9.15e-05,1741885000.31793
0.2455,-0.029,-0.01125,-0.000183,-0.00148,0.0003205,1741885000.332581
0.25225,-0.029,-0.006,-7.625e-05,-0.00169375,0.0004425,1741885000.3483698
0.256,-0.027,-0.00175,0.0001525,-0.0016175,0.00059500005,1741885000.3616362
0.2625,-0.02175,0.007,0.0002135,-0.001175,0.00064075,1741885000.375936
0.2635,-0.02175,0.0085,0.000473,0.00030525,0.00039675,1741885000.390342
0.25825,-0.01975,0.003,0.00077825,0.0009155,0.0002135,1741885000.404638
0.2555,-0.018,-0.00025,0.00109875,0.0013885,0.0,1741885000.419009
0.2515,-0.01625,-0.00375,0.0011445,0.0014495,-4.575e-05,1741885000.433517
0.249,-0.01575,-0.00475,0.00115975,0.00146475,-3.0500001e-05,1741885000.4486668
0.2465,-0.01525,-0.0055,0.001007,0.0014037499,0.000229,1741885000.462433
0.24175,-0.012,-0.006,0.000946,0.0013885,0.0003205,1741885000.476867
0.2385,-0.0105,-0.007,0.000885,0.0013885,0.0002135,1741885000.4911559
0.232,-0.00875,-0.00975,0.000763,0.0012665,0.00019825,1741885000.505544
0.2295,-0.009,-0.0105,0.00010675,0.00074775,0.000534,1741885000.519949
0.2255,-0.00975,-0.01375,-0.00019825,0.00033575002,0.000763,1741885000.5344388
0.224,-0.01025,-0.016,-0.00029,-0.00019825,0.00080875,1741885000.549068
0.2245,-0.011,-0.01775,-0.000412,-0.00157175,0.00083925005,1741885000.56362
0.22925,-0.0135,-0.01975,-0.00059500005,-0.0022735,0.00102225,1741885000.5782778
0.2335,-0.01525,-0.0195,-0.0005035,-0.00384525,0.0016632499,1741885000.592633
0.2435,-0.02125,-0.0155,-0.000122000005,-0.0045777503,0.001892,1741885000.60856
0.24925,-0.0235,-0.01075,9.15e-05,-0.0054015,0.002121,1741885000.621666
0.2645,-0.02425,0.00275,-0.0001525,-0.0052947504,0.00225825,1741885000.636159
0.27275,-0.02375,0.0095,-0.00019825,-0.003769,0.00201425,1741885000.650594
0.281,-0.02125,0.01875,0.000122000005,-0.002533,0.00143425,1741885000.664938
0.281,-0.01975,0.0205,0.0003815,-0.0012207499,0.000824,1741885000.679351
0.27875,-0.01925,0.02075,0.0003815,0.0010375,0.0002135,1741885000.693778
0.2715,-0.0205,0.019,0.0005035,0.00184625,-1.5250001e-05,1741885000.708577
0.266,-0.02175,0.01575,0.0014037499,0.0029449998,-0.00065625,1741885000.722553
0.25375,-0.02025,0.005,0.001709,0.00340275,-0.0007325,1741885000.738633
0.24825,-0.018,-0.0,0.001587,0.0042572496,-0.0003815,1741885000.751497
0.23975,-0.014,-0.00775,0.0013427499,0.0045165,-0.00013725001,1741885000.766028
0.236,-0.01275,-0.011,0.00093075,0.004242,0.0,1741885000.780412
0.22975,-0.0115,-0.01575,0.00099175,0.0037385002,-7.625e-05,1741885000.794933
0.2285,-0.0115,-0.0165,0.00112925,0.00308225,-9.15e-05,1741885000.8094232
0.22875,-0.01175,-0.01575,0.001068,0.00175475,0.00024425,1741885000.823947
0.23025,-0.01075,-0.0135,0.000946,0.001236,0.00036625,1741885000.8390121
0.232,-0.00975,-0.012,0.00064075,0.00067150005,0.00035100002,1741885000.852844
0.2345,-0.00975,-0.01125,0.000412,0.000534,0.00039675,1741885000.867907
0.23475,-0.00975,-0.01225,0.0001525,0.00019825,0.0003205,1741885000.881611
0.239,-0.0085,-0.01075,0.00016775,4.575e-05,7.625e-05,1741885000.895935
0.24125,-0.0105,-0.00925,0.00029,-1.5250001e-05,-0.00051875,1741885000.9105542
0.241,-0.0145,-0.011,0.00036625,-9.15e-05,-0.00064075,1741885000.925181
0.242,-0.01475,-0.01,0.00036625,-0.00029,-0.00062550005,1741885000.9397361
0.245,-0.015,-0.00625,0.00024425,-0.00048825,-0.00057975,1741885000.9542952
0.246,-0.0175,-0.00425,0.00030525,-0.00030525,-0.00059500005,1741885000.968915
0.24375,-0.01775,-0.0075,0.00042725,-0.00019825,-0.00062550005,1741885000.983518
0.245,-0.017,-0.00975,0.0004425,-0.0004425,-0.00062550005,1741885000.9985018
0.24775,-0.01725,-0.00725,0.00016775,-0.00057975,-0.00033575002,1741885001.012643
0.24825,-0.0195,-0.00575,0.0,-0.00045775,-0.00010675,1741885001.0287209
0.24825,-0.01825,-0.00625,9.15e-05,-0.00051875,0.0001525,1741885001.041718
0.2515,-0.01275,-0.002,0.0002595,-0.00062550005,0.00010675,1741885001.056192
0.2525,-0.01175,-0.00025,0.000412,-0.00033575002,-0.0001525,1741885001.070832
0.25225,-0.012,-0.00175,0.00033575002,-4.575e-05,-0.0002135,1741885001.085338
0.2515,-0.01175,-0.00275,0.00024425,0.00024425,-0.00027475,1741885001.099831
0.24975,-0.0125,-0.00475,0.00024425,0.00065625,-0.00057975,1741885001.1144042
0.245,-0.0145,-0.0105,0.00030525,0.00064075,-0.00070200005,1741885001.128932
0.2435,-0.015,-0.012,0.00024425,0.0002595,-0.00061025,1741885001.143393
0.2445,-0.01525,-0.0105,0.0001525,4.575e-05,-0.0005035,1741885001.1585548
0.24525,-0.01525,-0.00875,7.625e-05,-6.1000002e-05,-0.000473,1741885001.1725361
0.2445,-0.01575,-0.008,7.625e-05,-4.575e-05,-0.00048825,1741885001.187157
0.245,-0.016,-0.00775,-4.575e-05,-0.00010675,-0.00029,1741885001.201787
0.24725,-0.016,-0.006,-9.15e-05,-9.15e-05,-0.0002135,1741885001.216388
0.2475,-0.01675,-0.0055,-0.00010675,0.00010675,-0.000229,1741885001.230968
0.24725,-0.01675,-0.005,-0.0001525,0.0002135,-0.000183,1741885001.2455812
0.24675,-0.01625,-0.0055,-0.00016775,0.00035100002,-0.00013725001,1741885001.2601442
0.2465,-0.016,-0.0065,3.0500001e-05,0.000473,-0.0003205,1741885001.274536
0.24625,-0.0155,-0.00875,7.625e-05,0.00048825,-0.00039675,1741885001.2890172
0.2455,-0.0155,-0.009,-9.15e-05,0.00051875,-0.00033575002,1741885001.3036292
0.244,-0.01625,-0.00725,-0.000183,0.000534,-0.00030525,1741885001.318335
0.2435,-0.0165,-0.00625,-0.000183,0.0005035,-0.00036625,1741885001.332924
0.24325,-0.0165,-0.0055,-0.0001525,0.0004425,-0.00039675,1741885001.3482912
0.24325,-0.016,-0.00525,-0.00019825,0.000473,-0.00033575002,1741885001.3622122
0.24375,-0.01425,-0.00625,-0.00030525,0.00064075,-0.00027475,1741885001.3780422
0.2435,-0.0145,-0.008,-0.00042725,0.0009765,-0.00033575002,1741885001.391532
0.2425,-0.01675,-0.01225,-0.00036625,0.00096125,-0.00042725,1741885001.4061298
0.243,-0.01725,-0.01225,-0.0002135,0.000824,-0.00048825,1741885001.420671
0.24425,-0.0185,-0.0105,7.625e-05,0.00074775,-0.00051875,1741885001.4353359
0.247,-0.02275,-0.0065,0.000183,0.00090025004,-0.000534,1741885001.450135
0.24675,-0.02425,-0.0065,0.00035100002,0.0013275,-0.00042725,1741885001.4645262
0.24625,-0.0255,-0.008,0.000412,0.00143425,-0.00027475,1741885001.4790452
0.24725,-0.024,-0.00825,0.0002135,0.00163275,0.00035100002,1741885001.493427
0.24625,-0.021,-0.0125,7.625e-05,0.0016632499,0.00064075,1741885001.508564
0.2455,-0.0205,-0.0145,0.00030525,0.001068,0.00061025,1741885001.5221848
0.24675,-0.014,-0.0135,0.000473,0.00061025,0.000534,1741885001.536501
0.2485,-0.011,-0.012,0.000473,0.00027475,0.00048825,1741885001.550932
0.2495,-0.0095,-0.01125,0.00016775,0.00016775,0.00030525,1741885001.5653498
0.25025,-0.00975,-0.01125,3.0500001e-05,0.00029,0.00013725001,1741885001.579744
0.2495,-0.01,-0.011,-1.5250001e-05,0.00048825,-0.000229,1741885001.594319
0.24725,-0.013,-0.01075,-6.1000002e-05,0.00051875,-0.00033575002,1741885001.608927
0.24625,-0.01475,-0.011,-0.00013725001,0.00045775,-0.000412,1741885001.623519
0.246,-0.0165,-0.01,-0.000122000005,0.00039675,-0.00045775,1741885001.639112
0.245,-0.01725,-0.00975,-0.000122000005,0.0005035,-0.00051875,1741885001.652759
0.2405,-0.01925,-0.012,-0.0001525,0.00062550005,-0.00045775,1741885001.6677802
0.2375,-0.01875,-0.0145,-0.0001525,0.00064075,-0.00036625,1741885001.6818671
0.2285,-0.01575,-0.0205,1.5250001e-05,0.00024425,-9.15e-05,1741885001.696533
0.22,-0.01375,-0.0235,0.0003205,-0.00036625,0.00061025,1741885001.711044
0.21275,-0.0165,-0.026,0.002777,-0.00334175,0.005249,1741885001.7255418
0.20975,-0.0245,-0.03125,0.0044250004,-0.0050202496,0.00801075,1741885001.739999
0.21,-0.021,-0.02825,0.00585925,-0.00665275,0.010391249,1741885001.754614
0.212,-0.02125,-0.02,0.0062712496,-0.0067902496,0.010742251,1741885001.769033
0.21325,-0.0205,-0.01875,0.00621025,-0.0070342496,0.0106965,1741885001.783509
0.2215,-0.0045,-0.0145,0.00531,-0.00782775,0.0099945,1741885001.798692
0.22925,0.008,-0.00925,0.0026092501,-0.010437001,0.0077210004,1741885001.812435
0.25275,0.02325,0.0065,0.0013427499,-0.011184749,0.0061645,1741885001.8268318
0.26425,0.02,0.013,0.0005645,-0.0111085,0.004303,1741885001.8411462
0.27475,0.014,0.02025,0.00061025,-0.009201,0.0002595,1741885001.8554418
0.29425,0.002,0.0365,0.00119025,-0.00785825,-0.00146475,1741885001.869832
0.301,-0.0005,0.04175,0.0015565,-0.0043182503,-0.0033570002,1741885001.884299
0.30525,-0.00575,0.04775,0.00077825,-0.0023497501,-0.00317375,1741885001.898762
0.30475,-0.0105,0.04775,-0.0013427499,0.0020752498,-0.0029449998,1741885001.9131851
0.29925,-0.01075,0.04375,-0.00198375,0.0045777503,-0.0038299998,1741885001.928832
0.29325,-0.00825,0.0395,-0.00213625,0.0068665,-0.0050965,1741885001.9421859
0.28525,-0.00675,0.03325,-0.0017395001,0.009933501,-0.006668,1741885001.956701
0.2655,-0.0085,0.01525,-0.00157175,0.0106355,-0.0065765,1741885001.971179
0.25625,-0.0095,0.00725,-0.00105275,0.011016751,-0.0053405,1741885001.9856918
0.2415,-0.012,-0.00625,-0.00064075,0.011016751,-0.0046845004,1741885002.000298
0.2355,-0.01425,-0.012,0.000122000005,0.010604749,-0.00367725,1741885002.014893
0.232,-0.0155,-0.01725,0.00039675,0.01019275,-0.0032195,1741885002.02944
0.231,-0.01425,-0.01775,0.00057975,0.00982675,-0.0028535,1741885002.0438988
0.22875,-0.01325,-0.02125,0.000473,0.009933501,-0.0028687501,1741885002.0585458
0.22675,-0.013,-0.0235,0.00036625,0.009734999,-0.0025940002,1741885002.0729752
0.22425,-0.0125,-0.03,0.000473,0.009094249,-0.00213625,1741885002.089366
0.22625,-0.01275,-0.03225,0.00061025,0.008133001,-0.00163275,1741885002.102018
0.2295,-0.01275,-0.03275,0.00074775,0.0060272496,-0.00102225,1741885002.117829
0.23375,-0.01325,-0.032,0.0007935,0.0052795,-0.00102225,1741885002.1310458
0.23475,-0.014,-0.032,0.000763,0.00393675,-0.0011445,1741885002.145618
0.23575,-0.015,-0.032,0.00057975,0.00328075,-0.00102225,1741885002.160214
0.2365,-0.015,-0.0315,0.00019825,0.0020905002,-0.00048825,1741885002.174739
0.2385,-0.014,-0.0305,0.0001525,0.00157175,-0.0002135,1741885002.1894941
0.24,-0.0125,-0.02975,7.625e-05,0.00068675,7.625e-05,1741885002.203685
0.2445,-0.01125,-0.0255,6.1000002e-05,0.00042725,4.575e-05,1741885002.2181299
0.24575,-0.012,-0.0235,4.575e-05,0.00035100002,1.5250001e-05,1741885002.232509
0.24625,-0.0135,-0.0225,-0.00027475,0.00057975,0.00010675,1741885002.246984
0.2455,-0.01525,-0.02375,-0.00045775,0.00068675,0.0001525,1741885002.261643
0.2445,-0.01525,-0.02475,-0.000412,0.00061025,0.000122000005,1741885002.276244
0.242,-0.01475,-0.0275,-0.00030525,0.00042725,0.000122000005,1741885002.290766
0.24175,-0.014,-0.028,-0.00030525,-7.625e-05,0.00024425,1741885002.3053398
0.24175,-0.012,-0.0275,-0.00033575002,-0.0002595,0.00027475,1741885002.319944
0.24225,-0.0115,-0.0265,-0.00036625,-0.00027475,0.000229,1741885002.334501
0.24425,-0.01175,-0.02575,-0.00039675,-9.15e-05,0.000183,1741885002.34924
0.24425,-0.0125,-0.0275,-0.00029,0.000229,-0.00010675,1741885002.36374
0.244,-0.01325,-0.03,-0.000229,0.000229,-0.000229,1741885002.3788521
0.24425,-0.0135,-0.03,-0.00024425,0.00013725001,-0.0002135,1741885002.393016
0.24475,-0.014,-0.0295,-0.0003815,-9.15e-05,-4.575e-05,1741885002.408693
0.245,-0.0155,-0.02875,-0.00035100002,-0.000183,-6.1000002e-05,1741885002.4223921
0.245,-0.01625,-0.0285,-0.00016775,-0.00035100002,-0.000183,1741885002.439004
0.24625,-0.01525,-0.02575,-9.15e-05,-0.00039675,-0.000183,1741885002.4517062
0.24725,-0.015,-0.02375,-0.00010675,-7.625e-05,-0.00024425,1741885002.467774
0.24625,-0.01525,-0.02225,-0.00010675,0.0002135,-0.00030525,1741885002.481052
0.245,-0.01475,-0.0225,-0.00016775,0.00062550005,-0.00035100002,1741885002.49573
0.2425,-0.014,-0.0235,-0.0002135,0.00071725,-0.00035100002,1741885002.510328
0.24075,-0.01325,-0.025,-0.0001525,0.00064075,-0.00039675,1741885002.524789
0.237,-0.012,-0.0275,-0.00016775,0.00048825,-0.000412,1741885002.5393121
0.23575,-0.01175,-0.02825,-0.000229,0.00029,-0.00035100002,1741885002.55381
0.23525,-0.012,-0.029,-0.00045775,-0.0001525,-1.5250001e-05,1741885002.56851
0.235,-0.011,-0.031,-0.000473,-0.0003205,7.625e-05,1741885002.5831838
0.235,-0.011,-0.033,-0.00033575002,-0.00096125,-0.000229,1741885002.598656
0.23825,-0.01425,-0.0315,-0.00036625,-0.00137325,-0.00033575002,1741885002.612617
0.24,-0.0165,-0.0285,-0.000473,-0.00177,-0.00030525,1741885002.628803
0.24175,-0.02025,-0.0255,-0.00039675,-0.00177,-0.00033575002,1741885002.642112
0.2425,-0.02075,-0.0255,-0.00016775,-0.0018005001,-0.00042725,1741885002.657912
0.246,-0.021,-0.0235,-0.00010675,-0.00181575,-0.00036625,1741885002.6714509
0.24775,-0.02125,-0.023,1.5250001e-05,-0.001587,-0.000229,1741885002.6860101
0.252,-0.02,-0.023,0.00010675,-0.00137325,-0.000183,1741885002.7005372
0.2535,-0.0185,-0.02275,0.0002135,-0.00093075,-6.1000002e-05,1741885002.715241
0.25475,-0.0175,-0.0215,0.00027475,-0.00071725,0.0,1741885002.729718
0.2545,-0.018,-0.0215,0.00033575002,-0.000534,0.00010675,1741885002.7442229
0.254,-0.0175,-0.0225,0.0003815,-0.00029,0.0003815,1741885002.75877
0.254,-0.01625,-0.0225,0.00045775,-0.0002135,0.000473,1741885002.773175
0.254,-0.0145,-0.0215,0.000534,1.5250001e-05,0.00048825,1741885002.789488
0.25375,-0.0125,-0.01925,0.00045775,0.000229,0.00042725,1741885002.801918
0.2525,-0.01275,-0.0195,0.00042725,0.000763,7.625e-05,1741885002.81632
0.2485,-0.014,-0.021,0.000412,0.0009765,-4.575e-05,1741885002.830848
0.24725,-0.01425,-0.02125,0.000229,0.0011445,4.575e-05,1741885002.8453
0.2445,-0.0135,-0.022,0.000183,0.00115975,0.00010675,1741885002.859661
0.24275,-0.01325,-0.023,0.000229,0.00115975,9.15e-05,1741885002.8741372
0.241,-0.01325,-0.024,0.00029,0.00096125,-4.575e-05,1741885002.88906
0.24,-0.01225,-0.02475,0.00024425,0.00083925005,-9.15e-05,1741885002.9032981
0.23975,-0.01225,-0.02525,7.625e-05,0.0007325,-0.0001525,1741885002.917919
0.23775,-0.01375,-0.02725,0.0,0.00067150005,-0.0001525,1741885002.9321961
0.23775,-0.0145,-0.02775,-0.000183,0.00024425,-4.575e-05,1741885002.946892
0.23975,-0.01475,-0.0275,-0.00027475,-3.0500001e-05,0.0,1741885002.9615018
0.24125,-0.01425,-0.026,-0.00042725,-0.00033575002,0.00010675,1741885002.976127
0.24425,-0.01425,-0.02175,-0.0005035,-0.0003205,0.000122000005,1741885002.990734
0.24575,-0.0145,-0.02075,-0.000473,-6.1000002e-05,0.0,1741885003.005292
0.24675,-0.01475,-0.0195,-0.000473,9.15e-05,-4.575e-05,1741885003.019827
0.24675,-0.01525,-0.01975,-0.0005035,0.000229,-3.0500001e-05,1741885003.034375
0.24675,-0.01575,-0.02075,-0.00042725,0.00048825,-7.625e-05,1741885003.049032
0.2455,-0.01525,-0.02475,-0.00033575002,0.000534,-0.000183,1741885003.063628
0.24525,-0.01525,-0.0265,-0.000229,0.00045775,-0.00035100002,1741885003.0784252
0.24575,-0.01475,-0.02675,-0.00024425,0.000412,-0.00035100002,1741885003.0928059
0.24625,-0.014,-0.02575,-0.00042725,0.00051875,-0.000183,1741885003.1085708
0.2475,-0.01375,-0.02475,-0.00051875,0.00068675,-0.00013725001,1741885003.1217852
0.24725,-0.014,-0.02525,-0.00064075,0.00096125,-0.00013725001,1741885003.136338
0.246,-0.014,-0.027,-0.00065625,0.0009765,-0.000183,1741885003.150819
0.24525,-0.01425,-0.02675,-0.00051875,0.00080875,-0.00042725,1741885003.165448
0.24425,-0.01425,-0.0255,-0.0004425,0.000763,-0.0005645,1741885003.180128
0.243,-0.01475,-0.0255,-0.00042725,0.0007935,-0.00065625,1741885003.194714
0.241,-0.01575,-0.02675,-0.000534,0.0009765,-0.00062550005,1741885003.209273
0.237,-0.01725,-0.02975,-0.00059500005,0.00090025004,-0.0005035,1741885003.223777
0.2365,-0.0175,-0.03125,-0.000412,0.00030525,-0.000229,1741885003.239178
0.23725,-0.01825,-0.0325,-0.00029,-6.1000002e-05,-0.00016775,1741885003.253199
0.23925,-0.0185,-0.03125,-0.000183,-0.00077825,-4.575e-05,1741885003.2679338
0.2445,-0.018,-0.0265,-0.00019825,-0.00102225,7.625e-05,1741885003.282497
0.24625,-0.018,-0.025,-0.0005035,-0.000946,0.00036625,1741885003.298018
0.247,-0.01925,-0.02525,-0.00074775,-0.0007325,0.00054925,1741885003.311679
0.24675,-0.02,-0.02575,-0.00109875,-0.00067150005,0.000946,1741885003.3262742
0.2455,-0.02075,-0.0255,-0.001068,-0.00080875,0.001068,1741885003.340822
0.24475,-0.0205,-0.02525,-0.00099175,-0.001007,0.00112925,1741885003.355475
0.2435,-0.0195,-0.028,-0.001068,-0.0012055,0.00137325,1741885003.370105
0.24275,-0.01875,-0.02875,-0.00109875,-0.0011445,0.00149525,1741885003.384801
0.24225,-0.0175,-0.02825,-0.00086975005,-0.00109875,0.00149525,1741885003.399403
0.2435,-0.016,-0.0255,-0.00077825,-0.001175,0.00157175,1741885003.41398
0.244,-0.01525,-0.0245,-0.00074775,-0.0015105,0.0018005001,1741885003.428965
0.246,-0.012,-0.022,-0.0007325,-0.00157175,0.001831,1741885003.443306
0.24725,-0.0095,-0.02,-0.00067150005,-0.00131225,0.001709,1741885003.457941
0.248,-0.00525,-0.01775,-0.00070200005,-0.001007,0.00148,1741885003.4726322
0.2475,-0.00425,-0.01875,-0.00086975005,-0.00057975,0.0009155,1741885003.48925
0.24575,-0.005,-0.02,-0.000946,-0.000473,0.00062550005,1741885003.501803
0.2445,-0.00625,-0.02025,-0.0009155,-0.0004425,-1.5250001e-05,1741885003.5177212
0.2415,-0.00975,-0.02125,-0.00093075,-0.00045775,-0.0001525,1741885003.53133
0.2405,-0.01025,-0.0215,-0.0009765,-0.000534,-0.00013725001,1741885003.5458891
0.23875,-0.01,-0.0225,-0.001068,-0.00080875,1.5250001e-05,1741885003.5604548
0.238,-0.00975,-0.02275,-0.0012055,-0.00102225,0.000229,1741885003.575156
0.238,-0.0105,-0.022,-0.0018005001,-0.001709,0.00093075,1741885003.5899122
0.2375,-0.00975,-0.01925,-0.00213625,-0.0020599999,0.0012665,1741885003.604602
0.23725,-0.009,-0.01975,-0.0027312501,-0.00254825,0.0019225,1741885003.619209
0.233,-0.00925,-0.0235,-0.00292975,-0.0028229998,0.00245675,1741885003.633784
0.22925,-0.00825,-0.02525,-0.00296025,-0.00390625,0.004303,1741885003.648658
0.22875,-0.01175,-0.0265,-0.00263975,-0.0048979996,0.0053252503,1741885003.662805
0.22975,-0.013,-0.02725,-0.00169375,-0.00712575,0.00617975,1741885003.67869
0.23575,-0.0115,-0.0295,-0.0012207499,-0.008316,0.00646975,1741885003.692033
0.24425,-0.009,-0.025,-0.00093075,-0.010162249,0.0073242504,1741885003.7065878
0.26325,-0.00325,0.00025,-0.001175,-0.009887749,0.0072937496,1741885003.72109
0.2715,-0.00325,0.01225,-0.00148,-0.0088195,0.006668,1741885003.73562
0.278,-0.00325,0.02025,-0.00115975,-0.00517275,0.00393675,1741885003.750208
0.2825,-0.00075,0.022,-0.00080875,-0.00308225,0.002533,1741885003.764663
0.2815,0.00125,0.01925,-0.0007325,0.00019825,0.00086975005,1741885003.7790248
0.2745,0.003,0.012,-0.00070200005,0.00125125,0.00036625,1741885003.7932212
0.26975,0.003,0.008,-0.000122000005,0.002472,-0.00090025004,1741885003.808577
0.25925,0.001,0.00075,0.00024425,0.0028229998,-0.00154125,1741885003.822001
0.25375,-0.0005,-0.003,0.0004425,0.00314325,-0.00193775,1741885003.836639
0.2435,-0.00425,-0.01,0.00042725,0.00354,-0.0019989999,1741885003.8511019
0.2395,-0.00525,-0.0125,0.00042725,0.00354,-0.00187675,1741885003.865605
0.23725,-0.0055,-0.0135,0.000534,0.00314325,-0.00148,1741885003.880297
0.236,-0.005,-0.014,0.000534,0.0030365,-0.0012055,1741885003.894733
0.23525,-0.00475,-0.01475,0.00061025,0.0027465,-0.00074775,1741885003.9093199
0.23575,-0.0035,-0.0155,0.00065625,0.00239575,-0.00054925,1741885003.9238122
0.23675,-0.00325,-0.01525,0.00071725,0.0016632499,-0.0003205,1741885003.9390268
0.23875,-0.0005,-0.01475,0.00071725,0.00137325,-0.0002135,1741885003.952898
0.2395,0.001,-0.0145,0.00057975,0.001068,-6.1000002e-05,1741885003.967766
0.24075,0.00025,-0.01525,0.00045775,0.000946,-3.0500001e-05,1741885003.981608
0.241,-0.0,-0.01575,0.000412,0.00080875,-4.575e-05,1741885003.996215
0.2415,-0.0,-0.0155,0.0003205,0.00039675,3.0500001e-05,1741885004.010744
0.24325,-0.0,-0.0125,0.00016775,0.0002135,0.00013725001,1741885004.0250409
0.244,-0.00025,-0.01075,-0.00010675,0.00013725001,0.00030525,1741885004.039619
0.24375,-0.0025,-0.01175,-0.0002135,0.00016775,0.00030525,1741885004.054085
0.2435,-0.004,-0.013,-0.00016775,-3.0500001e-05,0.00027475,1741885004.068713
0.245,-0.00325,-0.01175,-7.625e-05,-0.000229,0.00029,1741885004.083271
0.24625,-0.00225,-0.01025,0.0,-0.00042725,0.0003815,1741885004.097837
0.2475,-0.0015,-0.009,-7.625e-05,-0.00035100002,0.0004425,1741885004.112267
0.2475,-0.0015,-0.00975,-0.0001525,-0.00024425,0.0004425,1741885004.1267788
0.2475,-0.0,-0.0105,-0.00019825,-0.00036625,0.00033575002,1741885004.141533
0.24725,0.00275,-0.01075,-0.00029,-0.00062550005,0.000183,1741885004.155997
0.247,0.0015,-0.01175,-0.00051875,-0.00105275,-0.00016775,1741885004.170481
0.24625,-0.0005,-0.0135,-0.00062550005,-0.0012817499,-0.00029,1741885004.185196
0.2455,-0.001,-0.01275,-0.00080875,-0.00181575,-0.00019825,1741885004.199986
0.24525,-0.0045,-0.01125,-0.0008545,-0.0019225,-1.5250001e-05,1741885004.214654
0.2445,-0.0045,-0.01075,-0.00068675,-0.0017395001,0.00016775,1741885004.22929
0.2435,-0.00225,-0.009,-0.00061025,-0.0014037499,9.15e-05,1741885004.243834
0.2445,-0.0015,-0.01025,-0.00048825,-0.0014037499,7.625e-05,1741885004.258476
0.2445,-0.0005,-0.014,-0.00039675,-0.00198375,0.0002595,1741885004.273092
0.24475,-0.00025,-0.0125,-0.00033575002,-0.00251775,0.00048825,1741885004.2889721
0.24725,0.00025,-0.0065,-0.00042725,-0.0029449998,0.00077825,1741885004.302159
0.24775,0.00025,-0.0035,-0.000412,-0.00305175,0.000763,1741885004.317717
0.2485,-0.0,-0.0015,-0.000183,-0.00279225,0.00051875,1741885004.331161
0.248,-0.001,-0.00075,-0.000183,-0.00245675,0.00051875,1741885004.3458052
0.247,-0.0015,-0.00175,-0.00024425,-0.001892,0.00059500005,1741885004.3606489
0.245,-0.0025,-0.00475,-3.0500001e-05,-0.00190725,0.000763,1741885004.3752608
0.24525,-0.0025,-0.00475,0.00027475,-0.002411,0.001419,1741885004.38972
0.24575,0.00075,-0.002,0.00033575002,-0.00263975,0.0017242499,1741885004.404072
0.2455,0.0025,-0.00125,0.00036625,-0.002884,0.00204475,1741885004.418484
0.24475,0.003,-0.00175,0.0003205,-0.003128,0.0021057501,1741885004.432905
0.24425,0.003,-0.002,0.00029,-0.0034637498,0.0021515,1741885004.448367
0.2445,0.005,-0.00125,0.00024425,-0.00384525,0.0022277501,1741885004.46171
0.24525,0.008,0.003,0.0002135,-0.00364675,0.002121,1741885004.475989
0.245,0.0075,0.003,7.625e-05,-0.003128,0.0017242499,1741885004.4903092
0.24625,0.005,0.001,-4.575e-05,-0.00317375,0.00169375,1741885004.504728
0.2475,0.00375,0.0025,-0.000122000005,-0.0037385002,0.00216675,1741885004.519083
0.24775,0.0055,0.008,7.625e-05,-0.00378425,0.0020905002,1741885004.533521
0.2485,0.00575,0.009,0.0002135,-0.0035704998,0.0017395001,1741885004.548568
0.249,0.0055,0.00925,-3.0500001e-05,-0.0032195,0.00137325,1741885004.562314
0.247,0.00575,0.00875,-0.000229,-0.0032347501,0.00149525,1741885004.577972
0.24625,0.007,0.0095,-0.00039675,-0.00308225,0.00163275,1741885004.591103
0.24625,0.00875,0.01125,-0.00035100002,-0.0028687501,0.00146475,1741885004.605599
0.2465,0.008,0.01175,-0.00039675,-0.0025940002,0.0011445,1741885004.620075
0.24725,0.00825,0.013,-0.00048825,-0.0024414998,0.001114,1741885004.634469
0.247,0.00875,0.01375,-0.00059500005,-0.0020599999,0.001175,1741885004.6489038
0.24675,0.0085,0.0155,-0.00062550005,-0.00187675,0.001114,1741885004.663312
0.24625,0.00825,0.015,-0.00068675,-0.0016175,0.0010375,1741885004.678779
0.2455,0.008,0.014,-0.00080875,-0.00119025,0.00093075,1741885004.692107
0.245,0.01,0.013,-0.00080875,-0.001114,0.0008545,1741885004.706502
0.2455,0.011,0.01425,-0.000824,-0.00090025004,0.00077825,1741885004.720876
0.24625,0.011,0.01525,-0.00090025004,-0.00070200005,0.00074775,1741885004.7352839
0.246,0.0105,0.01475,-0.001068,-0.00030525,0.0007935,1741885004.7497149
0.24475,0.00975,0.01325,-0.0011445,-0.00019825,0.000946,1741885004.764096
0.24425,0.0105,0.013,-0.00115975,-0.00016775,0.00112925,1741885004.778898
0.2435,0.0135,0.0125,-0.000946,-0.00013725001,0.00112925,1741885004.7929862
0.2435,0.014,0.01225,-0.0008545,-0.000122000005,0.001068,1741885004.808545
0.24325,0.0145,0.01225,-0.00096125,-0.00024425,0.00115975,1741885004.821955
0.2435,0.01425,0.01225,-0.0010375,-0.0003205,0.0012207499,1741885004.836295
0.244,0.0135,0.01225,-0.00109875,-0.00045775,0.0012055,1741885004.85091
0.24425,0.0115,0.01275,-0.001068,-0.00061025,0.001236,1741885004.865299
0.245,0.01075,0.014,-0.00102225,-0.0009765,0.00137325,1741885004.879693
0.24725,0.011,0.01725,-0.00105275,-0.0010375,0.0014037499,1741885004.894093
0.2475,0.01275,0.0175,-0.001007,-0.0009765,0.0013885,1741885004.908687
0.247,0.0145,0.017,-0.000885,-0.00064075,0.001236,1741885004.9229069
0.24625,0.01625,0.01475,-0.00083925005,-0.00048825,0.00108325,1741885004.939117
0.24675,0.01625,0.014,-0.00042725,-0.00048825,0.00045775,1741885004.951692
0.247,0.0135,0.01425,-0.00024425,-0.000534,0.000183,1741885004.9660878
0.24675,0.012,0.01525,-0.000183,-0.00061025,0.000122000005,1741885004.980633
0.247,0.01175,0.0165,-0.00019825,-0.00057975,0.00019825,1741885004.995003
0.2465,0.012,0.017,-4.575e-05,-0.00042725,0.000183,1741885005.00959
0.245,0.01325,0.01675,6.1000002e-05,-0.00035100002,0.00013725001,1741885005.0238888
0.2445,0.01375,0.01575,9.15e-05,-0.0002595,0.000122000005,1741885005.039097
0.2445,0.014,0.01525,0.0,-9.15e-05,0.00010675,1741885005.052613
0.245,0.01325,0.015,-3.0500001e-05,-4.575e-05,4.575e-05,1741885005.0677838
0.245,0.013,0.01475,4.575e-05,-6.1000002e-05,-0.000122000005,1741885005.081385
0.24425,0.014,0.01425,7.625e-05,-7.625e-05,-0.00016775,1741885005.0957692
0.244,0.01425,0.0145,-4.575e-05,-7.625e-05,-0.00013725001,1741885005.11038
0.24425,0.01325,0.01525,-0.00013725001,-0.00010675,-9.15e-05,1741885005.12496
0.24425,0.01225,0.01525,-0.00016775,-0.00016775,-4.575e-05,1741885005.139356
0.2465,0.013,0.01775,-3.0500001e-05,-0.00027475,-7.625e-05,1741885005.153866
0.24725,0.0135,0.01825,1.5250001e-05,-0.0002135,-0.00010675,1741885005.168274
0.24725,0.013,0.018,-0.000122000005,-1.5250001e-05,6.1000002e-05,1741885005.182688
0.24725,0.01375,0.01675,-0.0001525,1.5250001e-05,0.0002135,1741885005.196964
0.247,0.0155,0.017,-0.00016775,7.625e-05,0.00035100002,1741885005.2111921
0.2455,0.01725,0.016,-0.00027475,0.00016775,0.000412,1741885005.225485
0.24425,0.0175,0.01525,-0.00059500005,0.0002595,0.00062550005,1741885005.2397928
0.24225,0.01825,0.014,-0.00067150005,0.00019825,0.00067150005,1741885005.254169
0.2415,0.01825,0.014,-0.00068675,0.00010675,0.00068675,1741885005.2684622
0.2415,0.01875,0.0145,-0.00086975005,-0.000122000005,0.00065625,1741885005.282927
0.24225,0.01775,0.01625,-0.0011445,-0.00016775,0.00071725,1741885005.297738
0.24225,0.0165,0.016,-0.00157175,-0.0002135,0.00090025004,1741885005.311682
0.2435,0.01675,0.015,-0.0016175,-0.00029,0.00090025004,1741885005.3260942
0.245,0.017,0.016,-0.001709,-0.0004425,0.00077825,1741885005.340621
0.24675,0.016,0.01775,-0.00187675,-0.00042725,0.0008545,1741885005.35498
0.247,0.0155,0.01725,-0.00213625,-0.00030525,0.001007,1741885005.36925
0.247,0.015,0.01675,-0.0023345,-6.1000002e-05,0.00119025,1741885005.383708
0.247,0.0155,0.01575,-0.0020599999,-1.5250001e-05,0.00099175,1741885005.398549
0.2475,0.0165,0.01575,-0.0016175,-3.0500001e-05,0.00067150005,1741885005.4124649
0.24825,0.01575,0.0165,-0.0017395001,1.5250001e-05,0.00074775,1741885005.426778
0.2485,0.01425,0.017,-0.0017852499,6.1000002e-05,0.00090025004,1741885005.4412138
0.2485,0.01325,0.01825,-0.00154125,6.1000002e-05,0.000824,1741885005.4556391
0.24825,0.01325,0.01825,-0.0012970001,7.625e-05,0.00070200005,1741885005.4699059
0.24825,0.013,0.018,-0.001114,0.000183,0.0007325,1741885005.484173
0.248,0.0125,0.0175,-0.0011445,0.000229,0.00099175,1741885005.498579
0.24775,0.01325,0.017,-0.00093075,0.00019825,0.00125125,1741885005.512752
0.24725,0.01525,0.0165,-0.00059500005,0.00016775,0.00108325,1741885005.5286589
0.2475,0.01675,0.01625,-9.15e-05,0.0002595,0.00070200005,1741885005.5413918
0.246,0.01875,0.016,-4.575e-05,0.0003205,0.00070200005,1741885005.555686
0.24475,0.0195,0.015,-7.625e-05,0.00035100002,0.00077825,1741885005.569976
0.24425,0.02025,0.0145,-4.575e-05,0.0003205,0.00068675,1741885005.584309
0.24325,0.0215,0.01425,3.0500001e-05,0.00027475,0.000473,1741885005.5986218
0.2425,0.02175,0.01375,9.15e-05,0.00019825,0.00019825,1741885005.612695
0.24175,0.02125,0.013,-1.5250001e-05,0.00016775,0.000229,1741885005.6284952
0.24175,0.02125,0.0125,-0.00027475,-1.5250001e-05,0.00030525,1741885005.64132
0.24225,0.0215,0.0125,-0.00027475,-9.15e-05,0.0002135,1741885005.6556768
0.24325,0.0215,0.01275,-0.0002135,-0.00013725001,9.15e-05,1741885005.670084
0.244,0.02125,0.0135,-0.00013725001,-7.625e-05,-1.5250001e-05,1741885005.684594
0.24525,0.022,0.016,-0.00027475,-0.000122000005,-3.0500001e-05,1741885005.699084
0.246,0.02175,0.01725,-0.0005035,-0.00013725001,-0.00016775,1741885005.7135942
0.2465,0.02075,0.01775,-0.00036625,-6.1000002e-05,-0.000412,1741885005.728841
0.246,0.02025,0.01725,0.000183,0.00013725001,-0.001175,1741885005.742453
0.2445,0.02,0.0165,0.0003205,0.000183,-0.0015105,1741885005.7568462
0.24325,0.01925,0.01525,0.00035100002,3.0500001e-05,-0.0020599999,1741885005.771154
0.24425,0.015,0.016,0.000534,-0.000122000005,-0.00238025,1741885005.7855701
0.245,0.01275,0.017,0.000824,-0.000183,-0.0026092501,1741885005.799961
0.2445,0.01175,0.01675,0.000885,0.0002135,-0.00216675,1741885005.814205
0.242,0.012,0.01425,0.00068675,0.00033575002,-0.0017242499,1741885005.828813
0.2415,0.0135,0.0125,0.00045775,7.625e-05,-0.00109875,1741885005.8427498
0.24075,0.015,0.01175,0.00057975,-0.00013725001,-0.00105275,1741885005.8577988
0.241,0.01375,0.012,0.001236,-0.0003815,-0.0012055,1741885005.871704
0.2425,0.01325,0.0145,0.0015565,-0.00054925,-0.001114,1741885005.886077
0.24375,0.015,0.01575,0.001892,-0.000824,-0.0008545,1741885005.900465
0.24475,0.0175,0.018,0.003006,-0.00115975,-0.00070200005,1741885005.9148622
0.24375,0.0215,0.01825,0.0031127501,-0.00099175,-0.00131225,1741885005.929255
0.2435,0.02375,0.01575,0.0027160002,-0.00083925005,-0.0025940002,1741885005.9436622
0.24575,0.0235,0.0145,0.00254825,-0.00093075,-0.00279225,1741885005.958272
0.248,0.02075,0.015,0.0020905002,-0.001175,-0.00267025,1741885005.972446
0.25075,0.01775,0.01825,0.00181575,-0.0012665,-0.002472,1741885005.9888902
0.25175,0.0165,0.021,0.00157175,-0.00125125,-0.00238025,1741885006.001364
0.2555,0.013,0.028,0.00131225,-0.00077825,-0.002472,1741885006.01579
0.25725,0.01175,0.03025,0.00125125,-0.00027475,-0.0024872501,1741885006.030271
0.257,0.01125,0.03,0.0010375,0.0012665,-0.002472,1741885006.0445812
0.25325,0.00825,0.02375,0.00090025004,0.001892,-0.0024414998,1741885006.058871
0.25175,0.008,0.02175,0.0007935,0.0023497501,-0.002533,1741885006.073181
0.24975,0.01,0.01925,0.00074775,0.00245675,-0.0025787498,1741885006.0890691
0.24775,0.012,0.01775,0.00030525,0.0027465,-0.00231925,1741885006.101669
0.24275,0.01225,0.015,4.575e-05,0.00289925,-0.00238025,1741885006.115989
0.24,0.00675,0.013,-1.5250001e-05,0.00296025,-0.002655,1741885006.13045
0.23725,-0.00175,0.01025,0.00036625,0.0025025,-0.00283825,1741885006.14489
0.23175,-0.01575,0.006,0.00062550005,0.0019225,-0.0025025,1741885006.159272
0.23225,-0.02225,0.00575,0.00146475,0.00067150005,-0.00099175,1741885006.173708
0.23125,-0.0145,0.00075,0.0017242499,0.00019825,0.0003815,1741885006.188981
0.23125,-0.00375,-0.0005,0.001114,-0.00074775,0.00279225,1741885006.2024388
0.23725,0.009,0.00275,0.000946,-0.00125125,0.00308225,1741885006.217719
0.24125,0.015,0.006,0.00112925,-0.001648,0.0028535,1741885006.231128
0.2445,0.02075,0.00925,0.00109875,-0.001892,0.00216675,1741885006.245454
0.2505,0.0245,0.014,0.00065625,-0.00187675,0.001892,1741885006.259766
0.25325,0.02425,0.0155,0.000183,-0.0015565,0.00080875,1741885006.274184
0.256,0.01725,0.0185,0.000229,-0.0012970001,0.0,1741885006.2888808
0.2565,0.0105,0.0205,0.00054925,-0.00093075,-0.001175,1741885006.30286
0.25925,0.00225,0.02775,0.00083925005,-0.00062550005,-0.00143425,1741885006.3177228
0.25975,0.00125,0.03,0.0012055,-0.000229,-0.00160225,1741885006.3316932
0.25975,0.0,0.03,0.001419,0.00074775,-0.00157175,1741885006.3459682
0.258,0.0025,0.02675,0.0012055,0.0012665,-0.0012970001,1741885006.3602939
0.25625,0.00425,0.02575,0.000885,0.0022125002,-0.0010375,1741885006.374578
0.25325,0.006,0.0225,0.0009765,0.0025940002,-0.0012970001,1741885006.38899
0.252,0.0055,0.01975,0.0011445,0.0030365,-0.0019225,1741885006.403158
0.25075,0.00325,0.013,0.00109875,0.00320425,-0.0022735,1741885006.418017
0.2495,-0.00025,0.0095,0.00119025,0.00334175,-0.002655,1741885006.4318879
0.24775,-0.005,0.0075,0.0018005001,0.00334175,-0.00325,1741885006.446229
0.245,-0.013,0.00675,0.00201425,0.0033264998,-0.00328075,1741885006.460583
0.24475,-0.01325,0.00575,0.00201425,0.0031889998,-0.00270075,1741885006.4749749
0.245,-0.01575,0.0025,0.0020599999,0.0031127501,-0.0025025,1741885006.489385
0.244,-0.0195,0.0015,0.00296025,0.0028687501,-0.00251775,1741885006.503753
0.2395,-0.02125,0.0015,0.0036010002,0.0026245,-0.00228875,1741885006.518307
0.23825,-0.0175,0.003,0.0044250004,0.001953,-0.00131225,1741885006.5326898
0.24125,-0.01,0.0075,0.0046234997,0.001648,-0.0008545,1741885006.547075
0.24125,-0.009,0.0065,0.0047912505,0.0014495,-0.00061025,1741885006.56145
0.2395,-0.00875,0.004,0.0055237496,0.0013885,-0.0009155,1741885006.575837
0.23575,-0.00475,0.0015,0.0059967497,0.001419,-0.001175,1741885006.590231
0.2345,-0.00125,0.00175,0.00590525,0.0014037499,-0.00054925,1741885006.6047418
0.23625,0.0065,0.004,0.00546275,0.0012055,0.00024425,1741885006.618897
0.239,0.0135,0.00625,0.0048674997,0.00059500005,0.00115975,1741885006.633085
0.2445,0.0275,0.01025,0.0046234997,0.0004425,0.00112925,1741885006.64843
0.2475,0.03125,0.0115,0.00428775,0.000412,0.0007325,1741885006.6614559
0.24975,0.0325,0.0125,0.0038299998,0.00096125,-0.00090025004,1741885006.675744
0.25,0.0295,0.01275,0.003662,0.001419,-0.001587,1741885006.6902661
0.25,0.02775,0.01225,0.0025634998,0.0020295,-0.0019685,1741885006.704579
0.24875,0.022,0.01025,0.0020295,0.002121,-0.00201425,1741885006.7188501
0.248,0.018,0.0095,0.00175475,0.0019989999,-0.0024414998,1741885006.7331798
0.25025,0.00825,0.01,0.0017395001,0.0019685,-0.0027312501,1741885006.74836
0.2505,0.00325,0.00925,0.001709,0.0020752498,-0.0030975002,1741885006.761777
0.25,0.0,0.0075,0.0015105,0.002365,-0.0033570002,1741885006.776145
0.25,-0.004,0.00425,0.0012207499,0.00225825,-0.00308225,1741885006.790526
0.25125,-0.0045,0.004,0.00090025004,0.0019989999,-0.00263975,1741885006.804949
0.25075,-0.00675,0.003,0.0008545,0.00201425,-0.0025025,1741885006.8193321
0.24975,-0.01,0.0015,0.00064075,0.0020905002,-0.002243,1741885006.83374
0.24775,-0.013,-0.0025,0.00057975,0.0020295,-0.0022125002,1741885006.848702
0.24675,-0.0135,-0.00325,0.00048825,0.001892,-0.002243,1741885006.8629289
0.246,-0.01575,-0.0035,0.000412,0.00149525,-0.0021819999,1741885006.878737
0.2435,-0.0205,-0.00575,0.00057975,0.001175,-0.00216675,1741885006.89183
0.242,-0.02,-0.00675,0.0008545,0.0003815,-0.00154125,1741885006.906496
0.24175,-0.01525,-0.0055,0.00077825,3.0500001e-05,-0.00099175,1741885006.920989
0.24325,-0.0125,-0.00425,0.00045775,-0.000412,-7.625e-05,1741885006.9355478
0.245,-0.00775,-0.0055,0.00033575002,-0.00048825,0.00013725001,1741885006.9501061
0.24475,-0.0075,-0.006,-0.00039675,-0.00059500005,0.00059500005,1741885006.96466
0.2445,-0.009,-0.006,-0.000946,-0.00065625,0.001007,1741885006.979239
0.24425,-0.00975,-0.005,-0.0013580001,-0.00062550005,0.0012207499,1741885006.9938939
0.242,-0.0085,-0.0045,-0.0013580001,-0.00048825,0.00099175,1741885007.0087879
0.24075,-0.008,-0.00525,-0.00115975,-0.0005645,0.000824,1741885007.023037
0.23925,-0.008,-0.00675,-0.00112925,-0.00108325,0.001114,1741885007.039105
0.2385,-0.0095,-0.01,-0.00131225,-0.0014495,0.0013427499,1741885007.0521522
0.2405,-0.0105,-0.00925,-0.001114,-0.0016785001,0.0011445,1741885007.06777
0.244,-0.00975,-0.00175,-0.00048825,-0.0014495,0.00057975,1741885007.081339
0.24475,-0.009,0.00125,6.1000002e-05,-0.00090025004,-0.00010675,1741885007.0959349
0.246,-0.0085,0.005,-0.0001525,-0.00061025,1.5250001e-05,1741885007.110424
0.24525,-0.00825,0.00475,-0.00045775,-0.00027475,0.00029,1741885007.1249468
0.24525,-0.006,0.001,-0.00042725,-0.00030525,0.000183,1741885007.139421
0.2465,-0.00525,0.0,-0.00024425,-0.00039675,-0.000122000005,1741885007.154049
0.249,-0.00675,0.00025,9.15e-05,-0.0005035,-0.00070200005,1741885007.168551
0.25025,-0.00725,0.00175,0.00010675,-0.00042725,-0.000763,1741885007.183061
0.25125,-0.0075,0.00325,6.1000002e-05,-7.625e-05,-0.000946,1741885007.198512
0.25225,-0.00825,0.00675,6.1000002e-05,0.000122000005,-0.00108325,1741885007.2119172
0.2525,-0.00875,0.0075,9.15e-05,0.00051875,-0.0013580001,1741885007.2263591
0.252,-0.00675,0.00525,0.000122000005,0.00064075,-0.00149525,1741885007.24074
0.252,-0.0065,0.004,0.00048825,0.00108325,-0.0022125002,1741885007.2552671
0.24875,-0.00925,-0.00125,0.00083925005,0.0013427499,-0.0027465,1741885007.2697449
0.24775,-0.012,-0.0045,0.00112925,0.00146475,-0.0031585,1741885007.284238
0.24675,-0.01525,-0.005,0.0017242499,0.001526,-0.0035704998,1741885007.298783
0.24625,-0.01425,-0.0045,0.001953,0.00143425,-0.0036315,1741885007.31324
0.24625,-0.014,-0.004,0.001587,0.0009765,-0.00331125,1741885007.328749
0.25,-0.01625,-0.0005,0.0014495,0.00090025004,-0.0031585,1741885007.342259
0.25175,-0.0155,0.0015,0.001831,0.0014495,-0.00334175,1741885007.35674
0.25125,-0.0175,0.0025,0.002243,0.0019989999,-0.003662,1741885007.37124
0.24875,-0.01825,0.00025,0.00270075,0.00263975,-0.00402825,1741885007.3856761
0.246,-0.02075,-0.0035,0.00245675,0.0025940002,-0.0037995,1741885007.400127
0.245,-0.02225,-0.0055,0.00216675,0.002411,-0.0034790002,1741885007.4146519
0.2435,-0.023,-0.00775,0.00193775,0.0019989999,-0.00296025,1741885007.429149
0.24375,-0.02225,-0.008,0.001892,0.0017395001,-0.0027312501,1741885007.443684
0.24425,-0.0215,-0.007,0.001419,0.0012817499,-0.0020905002,1741885007.4584682
0.24375,-0.02025,-0.00625,0.0009765,0.0012055,-0.00169375,1741885007.472629
0.24325,-0.0215,-0.0075,0.00042725,0.0009765,-0.00105275,1741885007.487134
0.24325,-0.02275,-0.0085,0.000534,0.00077825,-0.0009155,1741885007.50167
0.2435,-0.0225,-0.008,0.00057975,0.0005035,-0.000763,1741885007.51614
0.245,-0.0225,-0.00575,0.000412,0.000473,-0.00065625,1741885007.530663
0.245,-0.02225,-0.006,1.5250001e-05,0.00065625,-0.00033575002,1741885007.545164
0.24425,-0.02025,-0.00875,-0.00010675,0.00070200005,-0.000183,1741885007.5597508
0.24375,-0.01925,-0.01,-0.000122000005,0.00071725,-0.00010675,1741885007.574346
0.24325,-0.0195,-0.011,-7.625e-05,0.0005035,-0.00016775,1741885007.588942
0.24325,-0.02175,-0.01075,-6.1000002e-05,0.00030525,-0.00016775,1741885007.60351
0.24375,-0.0225,-0.0095,-9.15e-05,6.1000002e-05,0.0,1741885007.61808
0.24475,-0.0235,-0.00625,-0.00016775,7.625e-05,9.15e-05,1741885007.632632
0.2445,-0.0235,-0.00625,-0.00048825,0.0002135,0.0004425,1741885007.6470559
0.24325,-0.0225,-0.00875,-0.0007325,0.00024425,0.00071725,1741885007.661597
0.243,-0.021,-0.01,-0.00109875,9.15e-05,0.001114,1741885007.676054
0.243,-0.01725,-0.01125,-0.00125125,-1.5250001e-05,0.0012207499,1741885007.690606
0.2435,-0.0175,-0.0115,-0.00148,-7.625e-05,0.0013580001,1741885007.705148
0.24425,-0.0205,-0.012,-0.00198375,-0.00013725001,0.0017395001,1741885007.719739
0.245,-0.01925,-0.01125,-0.0019989999,-0.00019825,0.00177,1741885007.73442
0.24575,-0.01725,-0.01,-0.00201425,-0.00042725,0.00169375,1741885007.7489622
0.24775,-0.0165,-0.00475,-0.002243,-0.00042725,0.001831,1741885007.763541
0.2485,-0.01725,-0.0025,-0.00292975,1.5250001e-05,0.00245675,1741885007.7780921
0.24975,-0.017,-0.0015,-0.003128,0.00033575002,0.00267025,1741885007.792646
0.25025,-0.0155,-0.002,-0.0028074998,0.00096125,0.0023039998,1741885007.808487
0.24875,-0.014,-0.0055,-0.002472,0.00119025,0.0019225,1741885007.821683
0.248,-0.01375,-0.007,-0.0020905002,0.0013427499,0.0013427499,1741885007.836132
0.24725,-0.01175,-0.0075,-0.00201425,0.001419,0.00115975,1741885007.850671
0.24625,-0.011,-0.007,-0.001953,0.0015105,0.000946,1741885007.865164
0.245,-0.01075,-0.00725,-0.00198375,0.00160225,0.0004425,1741885007.879628
0.24325,-0.0105,-0.0085,-0.001953,0.0015565,0.000229,1741885007.89412
0.24175,-0.01,-0.0095,-0.0016785001,0.00119025,-0.00013725001,1741885007.908724
0.24,-0.011,-0.012,-0.001648,0.000824,-0.000229,1741885007.923317
0.24125,-0.01325,-0.0125,-0.00146475,4.575e-05,-0.00045775,1741885007.9390059
0.24375,-0.0165,-0.01075,-0.00137325,-0.000183,-0.00054925,1741885007.9526138
0.24525,-0.01925,-0.00825,-0.00119025,-0.00030525,-0.000824,1741885007.967841
0.24575,-0.02325,-0.0055,-0.000946,-0.00030525,-0.0009155,1741885007.981929
0.24575,-0.0235,-0.00575,-0.00064075,-0.0002595,-0.0005645,1741885007.996667
0.24575,-0.021,-0.0065,-0.00051875,-0.0002595,-0.00029,1741885008.011311
0.245,-0.0175,-0.0075,-0.00035100002,-0.00030525,-0.0001525,1741885008.0260491
0.2445,-0.0135,-0.0085,-0.00010675,-0.00059500005,-0.00030525,1741885008.040619
0.246,-0.015,-0.009,0.0,-0.00074775,-0.0005035,1741885008.0551329
0.2465,-0.017,-0.01025,0.00030525,-0.0009155,-0.0011445,1741885008.069725
0.246,-0.021,-0.01075,0.00057975,-0.00105275,-0.0014495,1741885008.084308
0.24625,-0.02175,-0.00975,0.00096125,-0.0013580001,-0.00160225,1741885008.098929
0.2485,-0.0225,-0.00475,0.00109875,-0.0013580001,-0.0016175,1741885008.1135502
0.24875,-0.02225,-0.00375,0.0012055,-0.00093075,-0.00149525,1741885008.1288278
0.24725,-0.0215,-0.005,0.00105275,-0.00067150005,-0.0012970001,1741885008.1427908
0.2465,-0.0195,-0.00625,0.00093075,-0.00035100002,-0.00112925,1741885008.158572
0.24675,-0.01425,-0.008,0.00086975005,-0.00030525,-0.0012207499,1741885008.171975
0.24675,-0.014,-0.00825,0.00080875,-0.00036625,-0.0016785001,1741885008.186539
0.245,-0.0145,-0.00925,0.00086975005,-0.0004425,-0.00193775,1741885008.201241
0.2445,-0.014,-0.0085,0.000824,-0.00057975,-0.0020905002,1741885008.215847
0.24475,-0.01325,-0.007,0.00036625,-0.0007935,-0.0023039998,1741885008.2304268
0.246,-0.01475,-0.00425,0.00016775,-0.00080875,-0.0025025,1741885008.2449431
0.24575,-0.01475,-0.00475,4.575e-05,-0.00062550005,-0.003296,1741885008.259539
0.246,-0.0205,-0.0085,1.5250001e-05,-0.00061025,-0.0038757501,1741885008.274154
0.24575,-0.02675,-0.00975,9.15e-05,-0.000763,-0.0045777503,1741885008.289401
0.24575,-0.0355,-0.00575,0.00013725001,-0.00086975005,-0.0045777503,1741885008.3032992
0.2465,-0.03775,-0.00275,0.00016775,-0.00093075,-0.0038605002,1741885008.317943
0.2485,-0.039,0.0005,0.00016775,-0.0008545,-0.0033264998,1741885008.332577
0.249,-0.03825,0.00075,0.00019825,-0.00029,-0.002365,1741885008.347889
0.24725,-0.036,-0.0025,0.00030525,7.625e-05,-0.00198375,1741885008.361526
0.2455,-0.03375,-0.00575,0.00048825,0.00036625,-0.0016632499,1741885008.376051
0.24375,-0.0325,-0.00925,0.00065625,0.00036625,-0.0010375,1741885008.390547
0.2435,-0.03275,-0.01075,0.00061025,0.0001525,-0.0007935,1741885008.405036
0.24475,-0.032,-0.0085,0.00065625,-0.00024425,-0.00080875,1741885008.4195762
0.24625,-0.03125,-0.00425,0.00062550005,-0.000229,-0.00080875,1741885008.4342558
0.246,-0.0325,-0.0035,0.00013725001,0.00010675,-0.00033575002,1741885008.448778
0.244,-0.03375,-0.00375,-3.0500001e-05,0.00024425,-0.00010675,1741885008.463317
0.24375,-0.032,-0.00475,1.5250001e-05,0.0002135,6.1000002e-05,1741885008.4787781
0.24475,-0.02775,-0.00625,-7.625e-05,0.00010675,0.0002135,1741885008.492246
0.24525,-0.02725,-0.007,-0.00033575002,3.0500001e-05,0.00045775,1741885008.5067441
0.2455,-0.0275,-0.00775,-0.00090025004,-6.1000002e-05,0.0009155,1741885008.521295
0.24525,-0.02925,-0.00675,-0.00102225,-0.000122000005,0.0009155,1741885008.535935
0.245,-0.03,-0.005,-0.001068,-0.00030525,0.00086975005,1741885008.5505311
0.24425,-0.0305,-0.00225,-0.001236,-0.00029,0.00112925,1741885008.565163
0.243,-0.02975,-0.0025,-0.0016785001,-0.00019825,0.001892,1741885008.579725
0.24025,-0.02925,-0.00575,-0.001892,-0.00029,0.0022125002,1741885008.5944252
0.23975,-0.0295,-0.008,-0.002365,-0.0007325,0.002777,1741885008.609065
0.2425,-0.03225,-0.0095,-0.00238025,-0.000885,0.00292975,1741885008.6236658
0.243,-0.03325,-0.0085,-0.0015105,-0.000885,0.00238025,1741885008.6393359
0.24325,-0.02975,-0.00575,-0.00105275,-0.000946,0.00198375,1741885008.6529438
0.244,-0.0285,-0.0045,-0.000824,-0.00105275,0.001831,1741885008.6677508
0.2445,-0.02725,-0.0035,-0.0007935,-0.00109875,0.00198375,1741885008.682154
0.24525,-0.0255,-0.00325,-0.00071725,-0.00108325,0.001953,1741885008.696697
0.246,-0.02375,-0.00275,-0.00042725,-0.00090025004,0.00157175,1741885008.711348
0.247,-0.02275,-0.002,-0.0003815,-0.0008545,0.001419,1741885008.725896
0.24725,-0.02325,-0.0015,-0.0005035,-0.00080875,0.0013427499,1741885008.740578
0.2475,-0.02575,-0.00075,-0.00045775,-0.000824,0.0012970001,1741885008.755126
0.2475,-0.0255,-0.0005,-0.00030525,-0.00070200005,0.00131225,1741885008.769771
0.24625,-0.0255,-0.001,-0.00019825,-0.00057975,0.0013580001,1741885008.78432
0.246,-0.02425,-0.001,1.5250001e-05,-0.00045775,0.0012665,1741885008.7988899
0.245,-0.023,-0.002,3.0500001e-05,-0.0004425,0.00125125,1741885008.8135521
0.24475,-0.0235,-0.0025,-7.625e-05,-0.00048825,0.0014495,1741885008.828726
0.2445,-0.023,-0.00325,-7.625e-05,-0.00051875,0.00163275,1741885008.842738
0.2445,-0.022,-0.003,-7.625e-05,-0.00054925,0.00181575,1741885008.8585951
0.24475,-0.02025,-0.00225,-0.00027475,-0.00062550005,0.0021819999,1741885008.871861
0.2445,-0.017,-0.00175,-0.0005035,-0.00065625,0.002365,1741885008.886509
0.2445,-0.01675,-0.001,-0.00093075,-0.00061025,0.00263975,1741885008.901129
0.245,-0.01725,0.00025,-0.00105275,-0.00061025,0.0026245,1741885008.915597
0.2455,-0.0175,0.00025,-0.0009765,-0.00065625,0.00238025,1741885008.930042
0.2465,-0.01825,0.00075,-0.000763,-0.00061025,0.0022125002,1741885008.944524
0.246,-0.01825,0.00075,-0.00054925,-0.00061025,0.0020905002,1741885008.9590342
0.2465,-0.0175,0.00125,-0.000534,-0.00062550005,0.002121,1741885008.97347
0.2465,-0.0175,0.00175,-0.0003815,-0.00067150005,0.0021057501,1741885008.989012
0.249,-0.015,0.00425,-7.625e-05,-0.000763,0.00201425,1741885009.00262
0.25,-0.01375,0.0055,-0.0001525,-0.00068675,0.002121,1741885009.017717
0.25,-0.013,0.006,-0.00027475,-0.00027475,0.00201425,1741885009.0316591
0.24925,-0.01125,0.004,-0.00019825,-0.0001525,0.0018615,1741885009.0462458
0.24875,-0.01025,0.00325,-0.000183,-0.0001525,0.00184625,1741885009.060771
0.249,-0.007,0.004,-0.000183,-0.000183,0.00169375,1741885009.075217
0.24875,-0.0055,0.00375,-6.1000002e-05,-0.00010675,0.0010375,1741885009.089661
0.24775,-0.00525,0.00375,-9.15e-05,-9.15e-05,0.000763,1741885009.104218
0.24775,-0.00725,0.00425,-0.00024425,-7.625e-05,0.00051875,1741885009.118824
0.247,-0.00975,0.00375,-0.00035100002,-4.575e-05,0.00054925,1741885009.133328
0.24675,-0.0105,0.00375,-0.0004425,-1.5250001e-05,0.00059500005,1741885009.148331
0.246,-0.0105,0.00375,-0.00045775,6.1000002e-05,0.00051875,1741885009.162264
0.245,-0.01125,0.0025,-0.00039675,7.625e-05,0.00045775,1741885009.176657
0.24475,-0.01175,0.001,-0.000229,1.5250001e-05,0.0003205,1741885009.1911502
0.2445,-0.012,0.0005,-0.000122000005,-6.1000002e-05,0.00024425,1741885009.205596
0.245,-0.01225,0.001,0.0,-0.0001525,0.000122000005,1741885009.220106
0.24525,-0.013,0.00175,1.5250001e-05,-0.00013725001,0.00010675,1741885009.234563
0.24475,-0.013,0.00175,0.0,-3.0500001e-05,0.000229,1741885009.248947
0.244,-0.013,0.00025,0.0,1.5250001e-05,0.00024425,1741885009.263338
0.244,-0.0125,-0.0005,4.575e-05,0.0,0.0002135,1741885009.2782662
0.24425,-0.01175,-0.001,0.00010675,-0.00010675,0.00013725001,1741885009.292224
0.245,-0.013,-0.0005,6.1000002e-05,-0.00019825,0.000122000005,1741885009.306724
0.24575,-0.01375,0.00025,9.15e-05,-0.00030525,9.15e-05,1741885009.321114
0.24625,-0.01475,0.002,0.000183,-0.00033575002,7.625e-05,1741885009.3355289
0.247,-0.0145,0.003,0.00030525,-0.00036625,0.00030525,1741885009.349948
0.2475,-0.01225,0.00375,0.00035100002,-0.00033575002,0.00045775,1741885009.364296
0.24775,-0.01075,0.00375,0.00039675,-0.00027475,0.00054925,1741885009.378727
0.24825,-0.00925,0.00375,0.000412,-0.0001525,0.00048825,1741885009.393132
0.2475,-0.00925,0.004,0.00039675,-9.15e-05,0.00035100002,1741885009.4080682
0.24675,-0.01,0.0035,0.000534,-4.575e-05,0.0001525,1741885009.421983
0.247,-0.00625,0.00275,0.00048825,-9.15e-05,0.0002135,1741885009.436414
0.248,-0.00525,0.00425,4.575e-05,-9.15e-05,0.0003815,1741885009.450791
0.24825,-0.00675,0.00575,-0.000122000005,3.0500001e-05,0.000412,1741885009.465109
0.2475,-0.0075,0.00525,-0.00027475,0.000183,0.0003205,1741885009.4795132
0.24675,-0.0085,0.0035,-0.00029,0.000229,0.00027475,1741885009.4939232
0.246,-0.0085,0.00225,-0.0002595,0.0002595,0.0002595,1741885009.508598
0.2455,-0.0085,0.00075,-0.000229,0.00024425,0.0002595,1741885009.5228028
0.24425,-0.00925,-0.002,-0.00019825,0.00016775,0.0002595,1741885009.537326
0.24425,-0.01,-0.002,-6.1000002e-05,-0.00013725001,0.00013725001,1741885009.551906
0.245,-0.01075,0.00075,-4.575e-05,-0.00029,0.00013725001,1741885009.5681942
0.24575,-0.01225,0.0025,-0.00016775,-0.0003205,0.00029,1741885009.5810182
0.2455,-0.0145,0.00275,-0.000183,-0.00019825,0.00039675,1741885009.595495
0.245,-0.0145,0.0015,-9.15e-05,-1.5250001e-05,0.00065625,1741885009.61
0.2445,-0.01275,-0.0005,-1.5250001e-05,-4.575e-05,0.00071725,1741885009.624623
0.2445,-0.012,-0.0005,6.1000002e-05,-0.00010675,0.00070200005,1741885009.639233
0.2445,-0.01125,0.0,0.00013725001,-0.00029,0.00077825,1741885009.653504
0.24575,-0.00925,0.00275,0.0001525,-0.0003815,0.0008545,1741885009.6679108
0.24675,-0.00775,0.004,0.000229,-0.00045775,0.0009155,1741885009.682443
0.24825,-0.00525,0.0055,0.0002595,-0.0004425,0.00080875,1741885009.697664
0.2485,-0.0055,0.006,0.00030525,-0.0003205,0.00045775,1741885009.7112262
0.248,-0.00475,0.00475,0.00024425,-0.0002595,0.0003815,1741885009.725652
0.24825,-0.00575,0.00475,1.5250001e-05,-0.0002135,0.00035100002,1741885009.740126
0.248,-0.005,0.00425,3.0500001e-05,-0.00016775,0.00030525,1741885009.754518
0.24775,-0.00375,0.00425,0.0,-0.0001525,0.00029,1741885009.768846
0.24825,-0.00375,0.00475,-7.625e-05,-0.00013725001,0.00013725001,1741885009.7834308
0.24925,-0.0045,0.006,-6.1000002e-05,-0.000122000005,0.0,1741885009.798541
0.2495,-0.00525,0.00675,-0.00024425,3.0500001e-05,-3.0500001e-05,1741885009.8125231
0.2485,-0.007,0.0065,-0.00035100002,0.00013725001,3.0500001e-05,1741885009.826901
0.24775,-0.00675,0.00575,-0.00030525,0.0002135,7.625e-05,1741885009.8414369
0.247,-0.005,0.00375,-0.00024425,0.00019825,4.575e-05,1741885009.855841
0.2465,-0.005,0.00275,-0.00029,0.0002135,-3.0500001e-05,1741885009.8702238
0.24575,-0.0075,0.0015,-0.00030525,0.00024425,-0.00010675,1741885009.88473
0.24525,-0.009,0.00125,-0.00027475,0.000229,-0.0001525,1741885009.89921
0.245,-0.0105,0.00125,-0.00024425,0.00013725001,-1.5250001e-05,1741885009.9136472
0.2445,-0.01125,0.002,-0.0002135,0.00010675,7.625e-05,1741885009.928588
0.244,-0.0105,0.00175,-9.15e-05,0.00013725001,0.00019825,1741885009.942531
0.2435,-0.00975,0.001,-7.625e-05,0.0001525,0.00024425,1741885009.956919
0.24325,-0.01025,0.00025,-6.1000002e-05,0.000122000005,0.0002595,1741885009.9714382
0.24375,-0.01125,-0.00025,3.0500001e-05,3.0500001e-05,0.000229,1741885009.985795
0.24475,-0.0115,0.0005,0.000122000005,-0.00010675,0.0002135,1741885010.0002198
0.24675,-0.012,0.00225,0.00013725001,-0.00024425,0.00033575002,1741885010.0146308
0.2475,-0.01175,0.00225,0.00016775,-0.0002135,0.000412,1741885010.029137
0.24825,-0.01075,0.00275,0.0002595,-0.00016775,0.00054925,1741885010.043534
0.2495,-0.00825,0.006,0.00024425,-0.000183,0.00068675,1741885010.058506
0.25025,-0.008,0.0075,0.000183,-9.15e-05,0.00093075,1741885010.0725179
0.2505,-0.0065,0.00775,0.000183,3.0500001e-05,0.00093075,1741885010.086806
0.25025,-0.0065,0.007,0.0002135,0.00019825,0.00090025004,1741885010.101221
0.249,-0.00625,0.00525,0.00027475,0.0002135,0.00090025004,1741885010.115523
0.24775,-0.005,0.004,0.00035100002,0.000183,0.0009765,1741885010.129815
0.24725,-0.00375,0.003,0.0004425,1.5250001e-05,0.001114,1741885010.1441312
0.2475,-0.00125,0.002,0.0005035,-4.575e-05,0.001114,1741885010.1585522
0.24775,0.0015,0.002,0.00030525,-1.5250001e-05,0.001114,1741885010.17281
0.2475,0.00425,0.0025,0.00010675,6.1000002e-05,0.0010375,1741885010.187011
0.247,0.006,0.0015,-0.00010675,9.15e-05,0.00062550005,1741885010.201283
0.246,0.0095,0.00175,-0.00019825,-1.5250001e-05,0.00033575002,1741885010.2157109
0.24575,0.00925,0.003,-0.0003205,-0.00010675,-9.15e-05,1741885010.230201
0.245,0.0065,0.004,-0.00057975,-7.625e-05,-0.001007,1741885010.2446048
0.242,0.00025,0.0025,-0.000763,6.1000002e-05,-0.0012055,1741885010.259021
0.2395,-0.00225,0.001,-0.001175,0.00016775,-0.0009155,1741885010.2734349
0.23675,-0.0055,-0.00125,-0.0013275,9.15e-05,-0.00067150005,1741885010.2891798
0.236,-0.0035,-0.0025,-0.00137325,-0.0003205,-0.0003205,1741885010.3026218
0.23725,0.00375,-0.00175,-0.00146475,-0.00059500005,-0.000183,1741885010.317708
0.2395,0.00475,0.00075,-0.0017242499,-0.00102225,-0.00030525,1741885010.331805
0.24375,0.00175,0.004,-0.00177,-0.00115975,-0.0005645,1741885010.346306
0.2455,-0.00175,0.005,-0.00177,-0.0012665,-0.00086975005,1741885010.360896
0.247,-0.006,0.0055,-0.0014495,-0.0013580001,-0.00143425,1741885010.375519
0.249,-0.0125,0.00725,-0.00108325,-0.00131225,-0.00175475,1741885010.3900769
0.25,-0.01675,0.00875,-0.00090025004,-0.00108325,-0.0017242499,1741885010.404741
0.2505,-0.024,0.01,-0.00083925005,-0.000946,-0.0014495,1741885010.419296
0.251,-0.026,0.01025,-0.00030525,-0.000824,-0.00102225,1741885010.4339142
0.253,-0.0285,0.01175,-4.575e-05,-0.00070200005,-0.0007935,1741885010.448618
0.25375,-0.029,0.012,0.0002135,-0.0002595,6.1000002e-05,1741885010.463032
0.255,-0.026,0.01125,0.0005035,0.0,0.00036625,1741885010.4786382
0.25475,-0.02225,0.01,0.00115975,0.00045775,0.0007325,1741885010.4917161
0.2525,-0.014,0.00725,0.0012970001,0.00062550005,0.00093075,1741885010.5060108
0.2515,-0.013,0.00675,0.0013885,0.000763,0.0010375,1741885010.520434
0.25075,-0.013,0.0065,0.0016785001,0.0009155,0.00105275,1741885010.534719
0.25,-0.00875,0.00675,0.001709,0.00096125,0.00119025,1741885010.5490298
0.249,-0.0045,0.00675,0.00154125,0.001068,0.00149525,1741885010.563322
0.2465,0.00075,0.005,0.00149525,0.00109875,0.0014495,1741885010.5780292
0.246,0.0035,0.00325,0.00146475,0.001236,0.00105275,1741885010.591769
0.2435,0.00775,-0.0,0.0013427499,0.0012055,0.00083925005,1741885010.605995
0.24225,0.00825,-0.00125,0.00109875,0.00112925,0.00074775,1741885010.6202948
0.2425,0.01,-0.0015,0.00051875,0.001007,0.00074775,1741885010.634701
0.24475,0.01525,0.0005,0.00029,0.00090025004,0.00051875,1741885010.648902
0.24525,0.015,0.002,0.00010675,0.00061025,-0.00045775,1741885010.6632252
0.2445,0.009,0.00475,3.0500001e-05,0.000473,-0.00096125,1741885010.678634
0.24425,0.00475,0.0055,-0.00010675,0.000412,-0.00125125,1741885010.691894
0.24375,-0.002,0.00675,-0.00045775,0.000412,-0.00119025,1741885010.706538
0.24325,-0.00575,0.0065,-0.00061025,0.00042725,-0.00108325,1741885010.72098
0.24275,-0.00825,0.00525,-0.00057975,0.00024425,-0.0009765,1741885010.735507
0.24225,-0.008,0.00275,-0.00039675,7.625e-05,-0.00105275,1741885010.750014
0.2425,-0.00775,0.002,-0.00030525,-4.575e-05,-0.00109875,1741885010.764608
0.2445,-0.007,0.0025,-0.00042725,1.5250001e-05,-0.000946,1741885010.779136
0.245,-0.006,0.00275,-0.00061025,1.5250001e-05,-0.00059500005,1741885010.793611
0.24525,-0.00425,0.00225,-0.0007325,1.5250001e-05,-0.0004425,1741885010.808597
0.2455,-0.00325,0.00125,-0.0012665,0.00013725001,7.625e-05,1741885010.8224819
0.247,-0.00175,-0.0015,-0.00160225,7.625e-05,0.00033575002,1741885010.838848
0.24825,-0.00375,-0.002,-0.00190725,-0.00013725001,0.00045775,1741885010.8515189
0.2495,-0.00625,-0.0005,-0.0017852499,-0.000122000005,0.00048825,1741885010.8661592
0.251,-0.00875,0.00425,-0.0015105,0.00010675,0.000412,1741885010.880501
0.2515,-0.00875,0.006,-0.0012207499,0.0004425,0.00061025,1741885010.895016
0.2505,-0.009,0.00625,-0.0012665,0.0004425,0.00083925005,1741885010.90939
0.25025,-0.008,0.00575,-0.0014037499,0.00048825,0.0013275,1741885010.9237309
0.24875,-0.007,0.003,-0.0014495,0.00059500005,0.0015565,1741885010.939019
0.2485,-0.00775,0.00125,-0.0014495,0.0007935,0.0018615,1741885010.952506
0.24775,-0.0075,-0.0005,-0.00137325,0.00083925005,0.0022125002,1741885010.967697
0.247,-0.00825,-0.0005,-0.0012817499,0.0007935,0.002777,1741885010.9813812
0.2465,-0.00725,-0.0,-0.001236,0.0005035,0.00411975,1741885010.995817
0.24825,-0.00225,0.00075,-0.001236,0.00035100002,0.004593,1741885011.010218
0.24675,-0.0015,0.0,-0.001068,0.00029,0.00520325,1741885011.0245929
0.2425,-0.004,-0.00075,-0.00086975005,0.00033575002,0.0051269997,1741885011.039318
0.243,-0.004,0.00075,4.575e-05,0.00030525,0.0038299998,1741885011.053803
0.24475,-0.003,0.00375,0.00074775,0.00019825,0.0029907501,1741885011.0682728
0.244,-0.0035,0.004,0.00131225,-4.575e-05,0.00239575,1741885011.082762
0.247,-0.0015,0.00425,0.00137325,-0.000229,0.0023497501,1741885011.098288
0.2475,-0.0025,0.00375,0.00102225,-0.00010675,0.0029145,1741885011.111634
0.247,-0.00325,0.0025,0.00067150005,0.00010675,0.0038757501,1741885011.125906
0.2425,0.00175,-0.00125,0.00109875,9.15e-05,0.0037537501,1741885011.140332
0.24125,0.00525,-0.002,0.0020752498,-0.00039675,0.0026092501,1741885011.154801
0.24375,0.0075,0.0,0.0023039998,-0.00077825,0.0020752498,1741885011.1690938
0.24475,0.00825,0.00125,0.00213625,-0.001175,0.001419,1741885011.1833842
0.24475,0.01,0.00325,0.0019685,-0.0011445,0.001068,1741885011.1986291
0.2445,0.0105,0.004,0.0017852499,-0.00105275,0.0007325,1741885011.212022
0.244,0.011,0.004,0.001587,-0.00083925005,0.00013725001,1741885011.226285
0.2435,0.01075,0.0035,0.00163275,-0.00077825,-0.000229,1741885011.2406862
0.24325,0.01125,0.00325,0.0016175,-0.00070200005,-0.000763,1741885011.255073
0.242,0.01325,0.003,0.0014037499,-0.00071725,-0.000763,1741885011.269624
0.24175,0.01375,0.00225,0.00074775,-0.00086975005,-0.00036625,1741885011.2842062
0.24175,0.012,0.00275,0.0004425,-0.0009765,-0.00030525,1741885011.298618
0.2415,0.01125,0.003,0.00035100002,-0.001068,-0.00051875,1741885011.313092
0.24075,0.0105,0.00275,0.00059500005,-0.0012817499,-0.001007,1741885011.328577
0.239,0.00725,0.0025,0.00064075,-0.00146475,-0.00096125,1741885011.3418722
0.2385,0.00575,0.003,0.00071725,-0.0019685,-0.00062550005,1741885011.356299
0.23825,0.00325,0.00425,0.00086975005,-0.0022735,-0.00062550005,1741885011.370698
0.23975,0.00275,0.00525,0.001526,-0.00296025,-0.0012207499,1741885011.38508
0.2425,-0.00125,0.006,0.00187675,-0.00320425,-0.001648,1741885011.399532
0.243,-0.00275,0.006,0.0018615,-0.0033570002,-0.001831,1741885011.414031
0.24475,-0.0065,0.0095,0.00157175,-0.0031127501,-0.00143425,1741885011.428826
0.246,-0.0085,0.0115,0.0013885,-0.002884,-0.00086975005,1741885011.442971
0.248,-0.009,0.013,0.00160225,-0.00270075,0.00027475,1741885011.458347
0.25375,0.001,0.0165,0.00163275,-0.00254825,0.00086975005,1741885011.4717078
0.256,0.0055,0.01825,0.0013580001,-0.00175475,0.00119025,1741885011.486559
0.256,0.008,0.017,0.00125125,-0.00131225,0.00109875,1741885011.5001888
0.25575,0.00825,0.0165,0.00105275,-0.00068675,0.00093075,1741885011.5146072
0.25525,0.0105,0.01725,0.000885,-0.0004425,0.00096125,1741885011.528992
0.255,0.011,0.01925,0.00096125,-0.0003205,0.00105275,1741885011.543298
0.25325,0.01225,0.019,0.0005645,-0.00024425,0.0016175,1741885011.558542
0.25075,0.017,0.015,0.00057975,-6.1000002e-05,0.0015565,1741885011.571884
0.25025,0.018,0.014,0.00071725,0.00057975,0.00105275,1741885011.586164
0.248,0.0145,0.01325,0.00067150005,0.00083925005,0.0009155,1741885011.6002991
0.24725,0.01275,0.01325,0.00070200005,0.00125125,0.00096125,1741885011.614476
0.244,0.01425,0.01275,0.00068675,0.00131225,0.00093075,1741885011.62869
0.243,0.01425,0.0125,0.00071725,0.0012817499,0.0007935,1741885011.642899
0.24125,0.01525,0.0115,0.00071725,0.00105275,0.000534,1741885011.658699
0.239,0.0175,0.01075,0.00062550005,0.000824,0.00042725,1741885011.671256
0.23825,0.01875,0.01,0.000229,0.00033575002,0.0002135,1741885011.685544
0.236,0.01825,0.0085,1.5250001e-05,6.1000002e-05,0.0,1741885011.699808
0.23425,0.01675,0.009,-0.00033575002,-0.000534,-0.00059500005,1741885011.714289
0.233,0.012,0.01175,-0.00054925,-0.00086975005,-0.00090025004,1741885011.7287848
0.23325,0.0095,0.012,-0.000885,-0.0012817499,-0.001175,1741885011.743268
0.23475,0.008,0.01025,-0.00160225,-0.002121,-0.001419,1741885011.758563
0.23875,0.00475,0.00625,-0.0016632499,-0.002243,-0.00125125,1741885011.772272
0.24,0.003,0.00625,-0.0016632499,-0.0023039998,-0.00048825,1741885011.786795
0.24575,0.00425,0.01,-0.0016175,-0.0025940002,-3.0500001e-05,1741885011.80129
0.249,0.0075,0.01225,-0.0012207499,-0.00334175,0.000534,1741885011.815775
0.25725,0.0105,0.01775,-0.00119025,-0.00340275,0.00054925,1741885011.8301702
0.26075,0.0105,0.021,-0.0013580001,-0.0027312501,0.000183,1741885011.844511
0.26325,0.0065,0.026,-0.0012817499,-0.0021972498,-1.5250001e-05,1741885011.858994
0.2635,0.004,0.0265,-0.0011445,-0.00169375,-6.1000002e-05,1741885011.873446
0.264,0.00375,0.02625,-0.00115975,-0.000763,0.0002135,1741885011.88894
0.26525,0.00575,0.02575,-0.0012665,-0.00027475,0.00024425,1741885011.9022
0.264,0.00525,0.02475,-0.0012970001,0.00068675,-0.0003205,1741885011.9177332
0.26075,0.003,0.02275,-0.001236,0.00105275,-0.0005645,1741885011.931089
0.259,0.00325,0.02225,-0.00099175,0.0016632499,-0.00045775,1741885011.9454951
0.25425,0.006,0.019,-0.000824,0.0020752498,-0.000534,1741885011.959889
0.25125,0.008,0.016,-0.000763,0.0025025,-0.0003815,1741885011.9743
0.24825,0.00825,0.01275,-0.00083925005,0.0027465,0.00024425,1741885011.9889832
0.2455,0.01,0.00975,-0.0007935,0.0026245,0.00035100002,1741885012.003052
0.24525,0.01075,0.01125,-0.00062550005,0.0021972498,0.0002135,1741885012.0180311
0.2485,0.01175,0.013,-0.0005645,0.0020905002,0.000183,1741885012.031734
0.24825,0.00975,0.01225,-0.000885,0.00242625,0.000229,1741885012.045999
0.246,0.002,0.00775,-0.0013275,0.0024872501,0.0005645,1741885012.06029
0.24575,0.00125,0.007,-0.0016632499,0.0023497501,0.001114,1741885012.074603
0.24525,0.0025,0.00775,-0.00175475,0.001953,0.0021819999,1741885012.089062
0.24575,0.007,0.0115,-0.0016785001,0.00187675,0.00254825,1741885012.103394
0.2455,0.0105,0.01275,-0.0017852499,0.00204475,0.00328075,1741885012.117831
0.2455,0.01125,0.01475,-0.0020295,0.00213625,0.0036162501,1741885012.132066
0.2455,0.0105,0.0145,-0.00181575,0.00251775,0.0034942501,1741885012.146379
0.24375,0.011,0.01325,-0.00112925,0.0028535,0.00317375,1741885012.160733
0.242,0.014,0.01175,-0.00035100002,0.00317375,0.0029145,1741885012.1749902
0.2405,0.0175,0.00925,3.0500001e-05,0.00328075,0.0028687501,1741885012.189256
0.23925,0.02025,0.00425,-0.0002595,0.00305175,0.0029449998,1741885012.2034938
0.239,0.021,0.00225,-0.00029,0.00242625,0.00263975,1741885012.217846
0.23875,0.024,0.0025,0.0,0.0022125002,0.002243,1741885012.231987
0.2385,0.02775,0.00425,0.00042725,0.001953,0.00125125,1741885012.246287
0.2385,0.03125,0.0075,0.00039675,0.00187675,0.00062550005,1741885012.26049
0.2375,0.0295,0.007,0.00024425,0.00181575,-3.0500001e-05,1741885012.2747772
0.236,0.026,0.00475,0.0,0.00177,-0.00099175,1741885012.289948
0.2335,0.02075,0.00075,-6.1000002e-05,0.00163275,-0.00119025,1741885012.303478
0.23425,0.01825,-0.001,-0.000122000005,0.000824,-0.00131225,1741885012.318143
0.2375,0.01725,-0.0055,6.1000002e-05,0.00039675,-0.00146475,1741885012.332386
0.23975,0.0165,-0.0055,0.00036625,-0.000183,-0.0017852499,1741885012.348414
0.24325,0.01625,-0.00125,0.0002595,-0.00029,-0.00169375,1741885012.3613708
0.2445,0.01575,0.00125,-6.1000002e-05,-0.00033575002,-0.0014495,1741885012.375813
0.24475,0.01275,0.00225,0.0,-0.00029,-0.00157175,1741885012.3901281
0.24425,0.0115,0.001,0.0002135,-0.000229,-0.00177,1741885012.404578
0.244,0.01125,0.001,0.00062550005,-0.00035100002,-0.00184625,1741885012.419039
0.24675,0.0125,0.0045,0.00048825,-0.0005035,-0.00163275,1741885012.433485
0.249,0.01225,0.00575,-0.000122000005,-0.00059500005,-0.00109875,1741885012.4488041
0.2505,0.008,0.00675,-0.0001525,-0.00051875,-0.0010375,1741885012.4625301
0.25075,0.0065,0.00775,0.00027475,-0.00027475,-0.001236,1741885012.478534
0.25075,0.0045,0.00825,0.00036625,-4.575e-05,-0.0012055,1741885012.491467
0.25,0.003,0.00675,0.00035100002,0.0002135,-0.00099175,1741885012.5057359
0.24925,0.00575,0.00225,0.00057975,0.00070200005,-0.0004425,1741885012.520066
0.24975,0.0085,0.00175,0.0007935,0.0007935,-0.00036625,1741885012.534383
0.2505,0.01075,0.0015,0.00112925,0.0007935,-0.0005645,1741885012.548652
0.25,0.01275,0.002,0.001114,0.00083925005,-0.00062550005,1741885012.562992
0.24975,0.013,0.0025,0.00064075,0.0007935,-0.00039675,1741885012.578304
0.25025,0.014,0.00325,0.000473,0.00080875,-0.00029,1741885012.591702
0.2495,0.01525,0.003,0.000473,0.00099175,-0.0003815,1741885012.605945
0.2485,0.01675,0.002,0.0005645,0.001419,-0.0007935,1741885012.6202629
0.248,0.01775,0.0,0.00039675,0.00143425,-0.00096125,1741885012.6345458
0.24825,0.0175,0.0005,1.5250001e-05,0.00149525,-0.0013885,1741885012.649101
0.24825,0.0155,0.002,-0.0001525,0.0016175,-0.00169375,1741885012.6634932
0.24825,0.0125,0.002,-0.00054925,0.001953,-0.0023039998,1741885012.6787682
0.246,0.00775,0.00075,-0.00061025,0.00213625,-0.0026245,1741885012.6922922
0.2445,0.00775,-0.00025,-0.0005645,0.002472,-0.00325,1741885012.706794
0.24125,0.0075,-0.002,-0.00061025,0.0025787498,-0.0034942501,1741885012.721226
0.2405,0.00575,-0.00275,-0.00057975,0.0025634998,-0.0036162501,1741885012.735738
0.23975,0.00475,-0.00375,-0.00019825,0.002121,-0.0034637498,1741885012.750242
0.237,0.00375,-0.0045,-3.0500001e-05,0.00177,-0.0031889998,1741885012.7647848
0.23625,0.0025,-0.005,0.00010675,0.00093075,-0.002365,1741885012.7792032
0.235,0.001,-0.0075,0.00013725001,0.00061025,-0.0019989999,1741885012.793486
0.23425,0.00175,-0.0085,0.00036625,3.0500001e-05,-0.00157175,1741885012.8088498
0.23625,0.00475,-0.009,0.000473,-0.00033575002,-0.0015565,1741885012.8223732
0.23825,0.005,-0.0095,0.00051875,-0.00096125,-0.0015105,1741885012.836858
0.24275,0.00275,-0.008,0.0004425,-0.0012055,-0.0014495,1741885012.8514009
0.24575,0.0015,-0.00575,0.00035100002,-0.00137325,-0.00137325,1741885012.865818
0.24925,0.0005,-0.00325,0.00024425,-0.00137325,-0.001114,1741885012.880393
0.2555,-0.0015,0.001,0.00016775,-0.00115975,-0.0009155,1741885012.894902
0.257,-0.00275,0.002,7.625e-05,-0.00057975,-0.000473,1741885012.909396
0.259,-0.0,0.0025,0.000229,-0.0002595,-0.0003815,1741885012.9238951
0.26125,0.003,0.003,0.0012207499,0.00074775,-0.0009765,1741885012.9396422
0.26075,0.00675,0.00375,0.00225825,0.0015565,-0.0017852499,1741885012.952441
0.25725,0.007,0.00175,0.00308225,0.0021819999,-0.002777,1741885012.968137
0.2545,0.006,0.0005,0.0030669998,0.00270075,-0.00413525,1741885012.981062
0.2535,0.00425,0.00125,0.003006,0.0028535,-0.0042572496,1741885012.9953878
0.2505,0.00425,0.002,0.00317375,0.0037079998,-0.0047912505,1741885013.009682
0.24225,-0.00375,-0.00325,0.0022735,0.00411975,-0.00555425,1741885013.02419
0.2395,-0.00975,-0.00675,0.0015565,0.00381475,-0.00668325,1741885013.039027
0.23725,-0.01525,-0.0105,0.00169375,0.00317375,-0.00672925,1741885013.053154
0.23825,-0.01575,-0.01025,0.00213625,0.0020752498,-0.0061339997,1741885013.068162
0.23575,-0.01425,-0.01125,0.00231925,0.0018615,-0.0061950004,1741885013.0821388
0.23475,-0.01325,-0.0135,0.0023497501,0.0016175,-0.0062255003,1741885013.096537
0.2355,-0.01175,-0.01525,0.00238025,0.00057975,-0.0054015,1741885013.111048
0.2395,-0.008,-0.01525,0.0025787498,-4.575e-05,-0.0050202496,1741885013.125754
0.24075,-0.00725,-0.01375,0.00242625,-0.000824,-0.0049285004,1741885013.1403918
0.245,-0.00925,-0.00975,0.0020905002,-0.0011445,-0.0049285004,1741885013.154992
0.248,-0.0105,-0.007,0.0015565,-0.00105275,-0.0048979996,1741885013.169436
0.24625,-0.0135,-0.0065,0.00149525,-0.0009765,-0.0048065,1741885013.184067
0.24525,-0.01025,-0.00725,0.00074775,-0.00148,-0.00440975,1741885013.19871
0.24975,-0.0045,-0.00475,-9.15e-05,-0.00177,-0.00463875,1741885013.2133608
0.25175,-0.0055,-0.004,-0.001526,-0.001831,-0.0059967497,1741885013.2286642
0.2565,-0.008,-0.00125,-0.0020752498,-0.00175475,-0.0069580004,1741885013.2428539
0.25575,-0.01675,-0.0015,-0.002411,-0.0013885,-0.0077972496,1741885013.25883
0.25275,-0.03425,-0.00475,-0.0024414998,0.0,-0.00846875,1741885013.2720902
0.2505,-0.03875,-0.0055,-0.002472,0.00067150005,-0.00823975,1741885013.286635
0.2465,-0.0435,-0.00625,-0.0029755002,0.0015565,-0.0069580004,1741885013.301253
0.2445,-0.04325,-0.0065,-0.0033875,0.001709,-0.0061035,1741885013.315855
0.2445,-0.04125,-0.00725,-0.0043944996,0.0019685,-0.00416575,1741885013.3304582
0.24375,-0.046,-0.01175,-0.0048065,0.0020752498,-0.0031585,1741885013.345034
0.2405,-0.0465,-0.014,-0.0050355,0.0019225,-0.00201425,1741885013.359631
0.23425,-0.04775,-0.01875,-0.0049285004,0.00137325,-0.0018005001,1741885013.3744378
0.2365,-0.04825,-0.019,-0.0036010002,-0.0004425,-0.00148,1741885013.389707
0.2395,-0.04425,-0.015,-0.00270075,-0.00109875,-0.0013580001,1741885013.40384
0.24175,-0.04,-0.01125,-0.0020599999,-0.0014495,-0.00077825,1741885013.4185028
0.24525,-0.031,-0.00275,-0.00239575,-0.00093075,-0.000412,1741885013.433142
0.24375,-0.0335,-0.00375,-0.00296025,-9.15e-05,-0.0002595,1741885013.448663
0.243,-0.0375,-0.00675,-0.00381475,0.001114,-0.00019825,1741885013.4623628
0.24675,-0.0355,-0.004,-0.00369275,0.00131225,-0.00010675,1741885013.478814
0.2465,-0.03425,-0.0005,-0.0032195,0.0022735,-0.00045775,1741885013.491492
0.24475,-0.04075,-0.0025,-0.003128,0.0028229998,-0.00064075,1741885013.505986
0.24425,-0.04375,-0.00675,-0.00276175,0.00270075,-0.0001525,1741885013.52071
0.243,-0.0455,-0.0135,-0.00254825,0.002121,0.00036625,1741885013.5351639
0.24275,-0.045,-0.01425,-0.0020752498,0.001175,0.0009765,1741885013.549726
0.24375,-0.043,-0.01125,-0.0017395001,0.00071725,0.00093075,1741885013.564188
0.24475,-0.044,-0.01025,-0.00175475,0.000229,0.00099175,1741885013.5789728
0.2445,-0.0495,-0.011,-0.0022277501,0.00033575002,0.0013885,1741885013.593146
0.2435,-0.05225,-0.012,-0.00279225,0.00051875,0.001953,1741885013.608897
0.24325,-0.0525,-0.013,-0.0032347501,0.0002595,0.002655,1741885013.622189
0.2425,-0.04575,-0.0155,-0.0031127501,-9.15e-05,0.0028074998,1741885013.636755
0.242,-0.0415,-0.01725,-0.0032347501,-0.00108325,0.00334175,1741885013.651336
0.242,-0.0385,-0.01825,-0.00343325,-0.00175475,0.003769,1741885013.665987
0.24075,-0.0375,-0.01825,-0.00358575,-0.00302125,0.0045012496,1741885013.680587
0.2395,-0.03475,-0.01725,-0.00343325,-0.00352475,0.00488275,1741885013.6951602
0.2415,-0.03325,-0.01375,-0.002655,-0.00440975,0.00546275,1741885013.709749
0.24625,-0.0285,-0.00025,-0.00231925,-0.0045165,0.0055085,1741885013.724378
0.24775,-0.02475,0.00425,-0.00193775,-0.00358575,0.0055085,1741885013.739572
0.243,-0.02025,0.00075,-0.0020295,-0.0031127501,0.0058899997,1741885013.753355
0.2405,-0.01925,-0.0025,-0.0025634998,-0.0031585,0.0065002497,1741885013.7681768
0.239,-0.018,-0.00275,-0.0038299998,-0.0042267498,0.0074004997,1741885013.7828
0.23975,-0.016,-0.0005,-0.003769,-0.00460825,0.007599,1741885013.798437
0.2405,-0.016,0.0015,-0.00204475,-0.0046845004,0.007309,1741885013.811837
0.24275,-0.01125,0.00475,-0.00109875,-0.004547,0.00712575,1741885013.8263838
0.2455,-0.007,0.00825,-0.0002135,-0.00354,0.00688175,1741885013.840853
0.24725,-0.00025,0.0155,-9.15e-05,-0.0025787498,0.0065155,1741885013.855333
0.24425,-0.0005,0.01425,0.00035100002,-0.00086975005,0.0055085,1741885013.8697758
0.24175,-0.0105,0.00675,0.000824,-0.00070200005,0.0055085,1741885013.8841238
0.243,-0.0135,0.006,0.00137325,-0.00096125,0.00593575,1741885013.8987
0.24375,-0.0125,0.00675,0.001709,-0.0012970001,0.0070647504,1741885013.913069
0.249,-0.009,0.0105,0.0017242499,-0.00105275,0.0071409997,1741885013.92877
0.251,-0.00675,0.01075,0.00276175,-0.0001525,0.0059510004,1741885013.94182
0.25375,0.00125,0.01125,0.00354,0.0003205,0.00511175,1741885013.956039
0.254,0.00325,0.01175,0.00402825,0.0012665,0.00354,1741885013.9702148
0.254,0.0025,0.0105,0.0037537501,0.00169375,0.0030669998,1741885013.984597
0.2535,0.00225,0.00925,0.0034790002,0.0020295,0.0028074998,1741885013.9988081
0.253,0.00075,0.00825,0.003128,0.0024414998,0.0023497501,1741885014.012964
0.25425,-0.0005,0.0065,0.0032195,0.0026092501,0.0020295,1741885014.028759
0.25425,0.0015,0.00525,0.00367725,0.00317375,0.001175,1741885014.041384
0.25175,0.00375,0.00125,0.0035095,0.003296,0.00086975005,1741885014.055604
0.25075,0.00425,0.00025,0.0026854998,0.0031127501,0.00042725,1741885014.0697742
0.2485,0.00225,-0.00025,0.00239575,0.0029755002,0.00016775,1741885014.0840588
0.24875,0.00075,-0.00025,0.002365,0.0028074998,-0.00010675,1741885014.098458
0.24775,0.0005,-0.00075,0.0026854998,0.00254825,-0.00061025,1741885014.112753
0.24525,0.00025,-0.00225,0.0025634998,0.002533,-0.00071725,1741885014.128717
0.2455,0.0005,-0.00225,0.00238025,0.0025940002,-0.000885,1741885014.141491
0.24525,0.00175,-0.0015,0.00251775,0.002655,-0.00102225,1741885014.156045
0.245,0.001,-0.00125,0.0029145,0.0030365,-0.0012055,1741885014.170475
0.24575,-0.002,-0.00025,0.00317375,0.0032347501,-0.0013580001,1741885014.185086
0.24575,-0.0005,-0.00025,0.00343325,0.0034790002,-0.00154125,1741885014.1996229
0.2425,0.0005,-0.006,0.0036162501,0.00390625,-0.0021819999,1741885014.21407
0.2425,-0.0005,-0.0085,0.0034637498,0.003891,-0.002411,1741885014.228519
0.2435,-0.00075,-0.00875,0.00305175,0.0036010002,-0.0025787498,1741885014.2430751
0.249,-0.0035,-0.003,0.00283825,0.00369275,-0.0026245,1741885014.258129
0.255,-0.006,0.0015,0.00328075,0.0049285004,-0.003128,1741885014.272079
0.255,-0.00625,0.001,0.0043639997,0.005844,-0.003952,1741885014.286377
0.25325,-0.006,-0.003,0.006836,0.007019,-0.0057372497,1741885014.30083
0.2465,-0.00425,-0.011,0.00773625,0.0070952503,-0.00646975,1741885014.315395
0.2405,-0.0025,-0.01725,0.00791925,0.00688175,-0.00668325,1741885014.3298318
0.238,-0.0035,-0.02275,0.0059205,0.0056304997,-0.00546275,1741885014.344348
0.237,-0.00875,-0.03075,0.0047607496,0.0048217503,-0.0048979996,1741885014.358929
0.23425,-0.0105,-0.0355,0.0028074998,0.002365,-0.00428775,1741885014.3734798
0.229,-0.01175,-0.041,0.00193775,0.000473,-0.00396725,1741885014.387975
0.22925,-0.01425,-0.0405,0.00048825,-0.00331125,-0.00317375,1741885014.402576
0.231,-0.01275,-0.03825,-0.0003205,-0.00520325,-0.003006,1741885014.4185312
0.232,-0.011,-0.03575,-0.0020905002,-0.009079001,-0.0033722501,1741885014.431989
0.236,-0.017,-0.02725,-0.0028535,-0.010849,-0.00334175,1741885014.44659
0.2355,-0.02075,-0.02325,-0.003418,-0.0138855,-0.0020752498,1741885014.4612732
0.24425,-0.02225,-0.00875,-0.0036010002,-0.016159,-0.00086975005,1741885014.47607
0.25175,-0.0185,0.00525,-0.004547,-0.018188499,0.0012055,1741885014.4905941
0.2625,-0.01575,0.02575,-0.0050202496,-0.01667775,0.001419,1741885014.505074
0.26225,-0.016,0.02775,-0.0051269997,-0.01412975,0.00119025,1741885014.5195048
0.258,-0.017,0.02425,-0.0042572496,-0.00912475,0.00065625,1741885014.534048
0.248,-0.02025,0.0095,-0.0041810004,-0.00798025,0.00093075,1741885014.5487611
0.244,-0.021,0.004,-0.00485225,-0.0080872495,0.002365,1741885014.563073
0.24075,-0.02125,0.00275,-0.004776,-0.008667,0.00325,1741885014.578807
0.24075,-0.0205,0.00625,-0.00325,-0.00918575,0.00419625,1741885014.592042
0.242,-0.014,0.01525,-0.0024872501,-0.009140001,0.004013,1741885014.6065621
0.24325,-0.0085,0.02,-0.00238025,-0.008727999,0.00331125,1741885014.621088
0.24475,-0.00475,0.02725,-0.00279225,-0.00798025,0.0031585,1741885014.635591
0.2445,-0.006,0.0295,-0.0032347501,-0.0069580004,0.003128,1741885014.650055
0.24325,-0.007,0.02975,-0.0029145,-0.0050355,0.0027465,1741885014.6645381
0.24225,-0.00975,0.02825,-0.00239575,-0.00453175,0.002472,1741885014.679043
0.24325,-0.011,0.02925,-0.0020905002,-0.0044555003,0.002777,1741885014.6935291
0.24525,-0.013,0.03375,-0.0023039998,-0.00466925,0.0033264998,1741885014.709025
0.246,-0.01275,0.03725,-0.0026854998,-0.0047607496,0.00399775,1741885014.7227352
0.24725,-0.0065,0.04175,-0.00231925,-0.00428775,0.00352475,1741885014.7373781
0.24625,-0.003,0.04,-0.00108325,-0.0030975002,0.00193775,1741885014.7518709
0.24575,-0.003,0.0355,-0.00099175,-0.0028687501,0.001709,1741885014.768074
0.24575,-0.004,0.0345,-0.0012817499,-0.00289925,0.00193775,1741885014.780876
0.24625,-0.0045,0.03525,-0.0019685,-0.003418,0.00283825,1741885014.795328
0.24875,-0.00125,0.0425,-0.0018615,-0.00352475,0.00279225,1741885014.809793
0.249,-0.00025,0.045,-0.000534,-0.00270075,0.00131225,1741885014.824508
0.2485,0.00025,0.04325,-9.15e-05,-0.0020752498,0.00065625,1741885014.838858
0.25,0.00125,0.04425,-1.5250001e-05,-0.00108325,7.625e-05,1741885014.853477
0.252,0.0015,0.04975,-0.000122000005,-0.000473,-9.15e-05,1741885014.8683069
0.25,-0.00025,0.04875,-0.0002135,0.0009155,-0.000412,1741885014.882378
0.2445,-0.00475,0.04075,-0.000122000005,0.0012055,-0.0002595,1741885014.897989
0.24375,-0.0065,0.0375,-3.0500001e-05,0.001175,0.00016775,1741885014.911285
0.243,-0.00275,0.03625,0.00013725001,0.00105275,0.0012665,1741885014.925739
0.24325,0.0,0.0385,0.00027475,0.0011445,0.00154125,1741885014.939971
0.2435,0.00125,0.04025,0.00033575002,0.00154125,0.0012970001,1741885014.954077
0.243,0.00125,0.0385,0.00019825,0.0018005001,0.00115975,1741885014.968412
0.243,0.00175,0.037,0.00010675,0.00231925,0.0009155,1741885014.9825652
0.2415,-0.0,0.0355,0.000229,0.002655,0.00074775,1741885014.996949
