acc_x,acc_y,acc_z,gyro_x,gyro_y,gyro_z,timestamp
-0.129,0.924,-0.13675,0.01301575,-0.07707225,-0.007187,1741884473.7873762
0.13125,0.916,-0.02275,-0.0038757501,-0.086547755,-0.007431,1741884473.8020658
0.32675,0.86725,0.0985,-0.0196685,-0.0941925,-0.011688249,1741884473.816571
0.5285,0.78525,0.213,-0.045287997,-0.0953065,-0.036193747,1741884473.830973
0.80525,0.44375,0.38325,-0.057541,-0.08187875,-0.04306025,1741884473.845483
0.84975,0.26425,0.40775,-0.075882,-0.039993253,-0.035019003,1741884473.860014
0.8275,0.0245,0.411,-0.080078006,-0.02197275,-0.0263825,1741884473.874551
0.81125,-0.07,0.37925,-0.07598875,-0.01121525,-0.029358,1741884473.889206
0.80825,-0.31475,0.32575,-0.069686994,-0.008545,-0.0381775,1741884473.903757
0.81125,-0.415,0.3245,-0.0577545,0.008026,-0.0386505,1741884473.920005
0.7415,-0.50075,0.33375,-0.05245975,0.0221405,-0.034073003,1741884473.9327931
0.6515,-0.5175,0.31375,-0.039566003,0.04739375,-0.03082275,1741884473.949992
0.40275,-0.55675,0.23925,-0.031128,0.054947,-0.03288275,1741884473.961798
0.273,-0.57475,0.20825,-0.021576,0.0596465,-0.034484748,1741884473.976287
0.161,-0.57325,0.18225,-0.0029145,0.06393425,-0.02772525,1741884473.992799
0.01725,-0.5005,0.13325,0.004776,0.06365975,-0.0219575,1741884474.005167
-0.028,-0.45475,0.11175,0.016693002,0.05805975,-0.014785751,1741884474.020105
-0.0915,-0.3935,0.13025,0.021927001,0.053482,-0.013351499,1741884474.034282
-0.13475,-0.3885,0.14375,0.033966,0.04451,-0.012039251,1741884474.049984
-0.24975,-0.36775,0.16725,0.04068,0.040039003,-0.008606,1741884474.063518
-0.306,-0.31625,0.16475,0.053527746,0.027679501,0.0032347501,1741884474.080002
-0.35925,-0.1425,0.13225,0.05818175,0.018310498,0.00991825,1741884474.093173
-0.35375,-0.027,0.1265,0.06181325,0.0074004997,0.01554875,1741884474.1067672
-0.346,0.08475,0.1335,0.066070504,-0.01475525,0.0206145,1741884474.121184
-0.338,0.263,0.147,0.0657195,-0.0249175,0.02189625,1741884474.135582
-0.31375,0.34475,0.14125,0.057662997,-0.038772497,0.029220501,1741884474.150292
-0.243,0.47875,0.10125,0.05159,-0.044799753,0.03141775,1741884474.1644192
-0.20875,0.55275,0.05575,0.037658747,-0.062088,0.027160749,1741884474.180066
-0.047,0.701,0.03225,0.0274505,-0.07041925,0.02424625,1741884474.1935658
0.05425,0.7275,0.06775,0.016739,-0.07748425,0.02067575,1741884474.209973
0.248,0.67975,0.2045,-0.0025940002,-0.091858,0.0073242504,1741884474.221878
0.37025,0.6595,0.272,-0.01222225,-0.09771725,-0.0014495,1741884474.236436
0.51175,0.6495,0.31825,-0.03347775,-0.09404,-0.016265752,1741884474.250879
0.7435,0.6285,0.33025,-0.0427705,-0.083252,-0.0251465,1741884474.265415
0.7945,0.53475,0.355,-0.0572815,-0.045868002,-0.040573,1741884474.280334
0.80475,0.252,0.3815,-0.0628205,-0.03660575,-0.042785753,1741884474.294392
0.8105,0.11675,0.4215,-0.067779504,-0.02189625,-0.0435485,1741884474.310186
0.8205,-0.11875,0.466,-0.0670625,-0.0139770005,-0.042663503,1741884474.323485
0.803,-0.2375,0.447,-0.064682,-0.00494375,-0.04214475,1741884474.338176
0.7265,-0.461,0.41225,-0.052948,0.0158385,-0.048049998,1741884474.352725
0.66725,-0.53675,0.4025,-0.044433497,0.02598575,-0.0509795,1741884474.367163
0.58225,-0.5795,0.38825,-0.02693175,0.04837025,-0.04647825,1741884474.381664
0.359,-0.615,0.332,-0.018753,0.05982975,-0.04068,1741884474.396132
0.24275,-0.60875,0.29375,-0.00016775,0.07453925,-0.031570498,1741884474.410812
0.029,-0.559,0.21575,0.010086001,0.07699575,-0.02940375,1741884474.425189
-0.0645,-0.538,0.18625,0.0280305,0.07339475,-0.0239715,1741884474.4424572
-0.20125,-0.48375,0.1585,0.0358125,0.0672455,-0.018707251,1741884474.454387
-0.23925,-0.43675,0.165,0.04992675,0.05169675,-0.007553,1741884474.470528
-0.30275,-0.33575,0.1935,0.055770747,0.043899503,-0.00276175,1741884474.483574
-0.343,-0.2745,0.2055,0.061081,0.03598025,0.0016632499,1741884474.499954
-0.383,-0.19875,0.20675,0.06965625,0.017929,0.0137635,1741884474.5125911
-0.40425,-0.00725,0.1955,0.07247925,0.008148249,0.019867001,1741884474.526984
-0.38975,0.095,0.19225,0.07630925,-0.012985251,0.02215575,1741884474.54288
-0.33625,0.2785,0.19375,0.076156504,-0.023224002,0.02067575,1741884474.555784
-0.28575,0.3705,0.19175,0.06793225,-0.039672747,0.02348325,1741884474.57057
-0.1325,0.54825,0.1495,0.060500998,-0.046157748,0.02537525,1741884474.5845609
-0.05775,0.6175,0.11325,0.04287725,-0.05249025,0.022873,1741884474.600383
0.0765,0.74225,0.04025,0.032776,-0.055908248,0.019348249,1741884474.613285
0.16175,0.8,0.02075,0.022232,-0.0608215,0.014328,1741884474.630626
0.2675,0.84175,0.02725,-0.001068,-0.069992,-0.00263975,1741884474.642821
0.5125,0.7735,0.13275,-0.0141755,-0.071457,-0.014221249,1741884474.66005
0.6325,0.66525,0.2135,-0.037460253,-0.0605775,-0.0384675,1741884474.671338
0.784,0.38625,0.325,-0.04806525,-0.0484925,-0.045761,1741884474.685886
0.786,0.217,0.3425,-0.06428525,-0.025970502,-0.04205325,1741884474.700566
0.763,-0.049,0.3565,-0.066146754,-0.017547501,-0.038330004,1741884474.714988
0.763,-0.17675,0.36325,-0.063568,0.00115975,-0.032821752,1741884474.730648
0.7705,-0.41625,0.37375,-0.06074525,0.01322925,-0.030014,1741884474.743983
0.7525,-0.491,0.36175,-0.055694498,0.025543248,-0.028259251,1741884474.760782
0.71175,-0.54075,0.33,-0.038330004,0.0448455,-0.02737425,1741884474.773033
0.57025,-0.556,0.243,-0.027954001,0.051437248,-0.0263215,1741884474.787584
0.48075,-0.54075,0.2115,-0.01042175,0.0606995,-0.022033751,1741884474.8020391
0.28075,-0.50125,0.1645,-0.003128,0.06466675,-0.0197295,1741884474.816611
0.18875,-0.483,0.14675,0.01036075,0.06791675,-0.016159,1741884474.831131
0.04275,-0.447,0.1295,0.016570998,0.066452004,-0.014572251,1741884474.845855
-0.01625,-0.4215,0.1345,0.02778625,0.060974,-0.009201,1741884474.860397
-0.11975,-0.34775,0.1565,0.03297425,0.05729675,-0.00579825,1741884474.8749728
-0.17025,-0.31375,0.1595,0.042785753,0.046112,-0.00086975005,1741884474.89275
-0.26625,-0.2275,0.15525,0.047638,0.03866575,0.000122000005,1741884474.903888
-0.3135,-0.15925,0.1535,0.0525055,0.03044125,0.001892,1741884474.920037
-0.3545,-0.07475,0.15325,0.06021125,0.01165775,0.0052185003,1741884474.932954
-0.37825,0.1135,0.13275,0.06216425,0.00045775,0.00437925,1741884474.949974
-0.36025,0.185,0.11375,0.061141998,-0.02215575,0.00340275,1741884474.961704
-0.28625,0.2905,0.109,0.058426,-0.0314635,0.0048217503,1741884474.9761941
-0.24425,0.33575,0.10925,0.049133252,-0.044616748,0.010009751,1741884474.993674
-0.1445,0.47075,0.0635,0.04344175,-0.05104075,0.0112915,1741884475.005182
-0.06,0.5615,0.033,0.028900249,-0.0631255,0.00694275,1741884475.020424
0.16275,0.70175,0.021,0.0190735,-0.06755075,0.0014495,1741884475.033924
0.2705,0.719,0.04375,0.0073242504,-0.070694,-0.0045165,1741884475.050316
0.37575,0.69375,0.085,-0.01814275,-0.07127375,-0.01351925,1741884475.062884
0.58775,0.571,0.2175,-0.028411752,-0.06767275,-0.01953125,1741884475.080545
0.671,0.47875,0.28125,-0.043090753,-0.052765,-0.037231497,1741884475.093214
0.74175,0.25875,0.338,-0.04853825,-0.043701246,-0.044403,1741884475.106484
0.74325,0.12925,0.335,-0.059341498,-0.027954001,-0.040741,1741884475.1208441
0.733,-0.157,0.30275,-0.062530495,-0.01882925,-0.0318145,1741884475.135545
0.7265,-0.26425,0.29575,-0.056945752,-0.0010375,-0.02500925,1741884475.1503592
0.718,-0.432,0.31075,-0.04924,0.0057677496,-0.03082275,1741884475.1647859
0.70175,-0.52375,0.304,-0.0404815,0.01257325,-0.0362855,1741884475.1799722
0.65625,-0.60125,0.275,-0.024932751,0.03338625,-0.0278015,1741884475.193784
0.4905,-0.65825,0.1965,-0.0178375,0.044067502,-0.01779175,1741884475.209985
0.39675,-0.637,0.16325,-0.0018615,0.053680502,-0.0066374997,1741884475.222775
0.23125,-0.53375,0.129,0.0060425,0.05558775,-0.0049590003,1741884475.2371998
0.15725,-0.48375,0.117,0.01879875,0.057953,-0.0007325,1741884475.251589
0.016,-0.42475,0.0915,0.024231002,0.057006747,0.0012817499,1741884475.265871
-0.043,-0.404,0.08575,0.034606997,0.050277747,0.0052642496,1741884475.280381
-0.11625,-0.34125,0.1035,0.0396575,0.04600525,0.00662225,1741884475.294685
-0.15,-0.306,0.11575,0.044815,0.04129025,0.00717175,1741884475.310217
-0.18775,-0.27075,0.12325,0.0529785,0.03050225,0.01092525,1741884475.323597
-0.22975,-0.134,0.138,0.05555725,0.024643,0.013488751,1741884475.3380868
-0.244,-0.06,0.14075,0.058776747,0.011078,0.015808,1741884475.352611
-0.27725,0.0645,0.14475,0.0598755,0.00331125,0.01576225,1741884475.3694131
-0.28225,0.12575,0.14125,0.06004325,-0.015075751,0.013351499,1741884475.3817458
-0.22975,0.29275,0.11525,0.058426,-0.0248565,0.011734,1741884475.396306
-0.164,0.411,0.0915,0.04898075,-0.040847752,0.0079345,1741884475.410657
-0.01375,0.5975,0.049,0.0404815,-0.04515075,0.00466925,1741884475.425131
0.0315,0.626,0.03025,0.030609248,-0.048034754,0.00062550005,1741884475.442505
0.065,0.621,0.022,0.0090637505,-0.053970248,-0.00561525,1741884475.4539058
0.169,0.59375,0.05375,-0.00096125,-0.057556253,-0.008850001,1741884475.470089
0.258,0.57325,0.095,-0.0162505,-0.063507,-0.020904498,1741884475.4828281
0.47775,0.495,0.2235,-0.023697,-0.06147775,-0.027740499,1741884475.49983
0.56,0.4195,0.268,-0.042037997,-0.044967752,-0.03518675,1741884475.511876
0.641,0.26825,0.303,-0.05087275,-0.0349885,-0.0356445,1741884475.526355
0.65425,0.1945,0.32075,-0.0629425,-0.01965325,-0.0343475,1741884475.543187
0.6255,-0.00125,0.30325,-0.0651245,-0.01460275,-0.0345765,1741884475.5554318
0.61075,-0.13025,0.27175,-0.064499,-0.010101249,-0.035888746,1741884475.570051
0.60525,-0.2565,0.24475,-0.05764775,0.0021057501,-0.036972,1741884475.584599
0.6055,-0.43525,0.23275,-0.0522765,0.009887749,-0.034973253,1741884475.6000419
0.60075,-0.4885,0.23625,-0.039672747,0.024810748,-0.02775575,1741884475.6135669
0.55625,-0.56325,0.2285,-0.033325247,0.032776,-0.022796748,1741884475.630008
0.507,-0.58375,0.21225,-0.017608749,0.04476925,-0.01937875,1741884475.643059
0.37475,-0.58775,0.18,-0.00862125,0.048462003,-0.0209655,1741884475.657056
0.302,-0.56325,0.16475,0.00788875,0.054809503,-0.0196075,1741884475.6715589
0.1565,-0.48825,0.1295,0.01504525,0.05703725,-0.015808,1741884475.686094
0.09375,-0.45175,0.11725,0.0218505,0.05752575,-0.0111085,1741884475.70048
0.04175,-0.41475,0.115,0.033615,0.054062,-0.0028687501,1741884475.715093
-0.06625,-0.35375,0.13,0.038818248,0.051452752,-0.00045775,1741884475.730182
-0.12825,-0.335,0.14225,0.048233002,0.044326752,0.0056609996,1741884475.743992
-0.24225,-0.27175,0.16175,0.05274975,0.03891,0.010757499,1741884475.7606559
-0.2855,-0.20525,0.1635,0.06254575,0.02256775,0.019470248,1741884475.772974
-0.33475,-0.01925,0.17125,0.066268995,0.012436,0.02050775,1741884475.787491
-0.34075,0.06975,0.1715,0.068802,-0.008667,0.0183715,1741884475.801968
-0.318,0.21425,0.1585,0.06726075,-0.018341,0.01849375,1741884475.816401
-0.293,0.27625,0.14625,0.064437754,-0.027298,0.01930225,1741884475.8307579
-0.26275,0.3385,0.12875,0.056045502,-0.0442505,0.0196075,1741884475.8451672
-0.17925,0.48825,0.078,0.049743753,-0.05343625,0.0186615,1741884475.859784
-0.10675,0.56875,0.06925,0.033935502,-0.070755,0.009552,1741884475.8739789
0.0715,0.64525,0.11325,0.02525325,-0.07684325,0.00074775,1741884475.888361
0.15175,0.63925,0.15525,0.00617975,-0.08026125,-0.0196685,1741884475.9027379
0.3355,0.552,0.2605,-0.0043335,-0.0788575,-0.027069,1741884475.919708
0.43975,0.48675,0.305,-0.02537525,-0.06672675,-0.036255002,1741884475.931828
0.63075,0.34075,0.34825,-0.03430175,-0.05688475,-0.04173275,1741884475.94644
0.717,0.2495,0.374,-0.040756248,-0.0497895,-0.04901125,1741884475.961122
0.7865,0.12525,0.392,-0.054123,-0.0388335,-0.051117,1741884475.975678
0.87625,-0.16225,0.3955,-0.060974,-0.0247955,-0.04154975,1741884475.991946
0.8865,-0.288,0.3665,-0.05896,-0.00137325,-0.028,1741884476.004746
0.86375,-0.47,0.28875,-0.049636748,0.0047302498,-0.0317535,1741884476.019466
0.84525,-0.523,0.29025,-0.0318145,0.02671825,-0.037658747,1741884476.0338619
0.71775,-0.60775,0.27325,-0.026535,0.04104625,-0.0293885,1741884476.0496361
0.59725,-0.6,0.24375,-0.016723748,0.065307505,-0.0055085,1741884476.063794
0.34475,-0.51875,0.1815,-0.010604749,0.0716095,0.00064075,1741884476.080037
0.23875,-0.46725,0.14975,0.00334175,0.0748595,0.000946,1741884476.092511
0.0875,-0.4385,0.11725,0.0079955,0.074417,0.00160225,1741884476.1061802
0.02275,-0.44475,0.128,0.01177975,0.07292175,0.0048065,1741884476.120469
-0.0525,-0.4445,0.1465,0.019226,0.06811525,0.01368725,1741884476.134924
-0.218,-0.42125,0.17925,0.0229035,0.06457525,0.01823425,1741884476.1498291
-0.29775,-0.38875,0.1825,0.0312195,0.053970248,0.02575675,1741884476.164047
-0.42575,-0.28475,0.1745,0.03569025,0.045944247,0.0290985,1741884476.180097
-0.453,-0.20425,0.168,0.047119252,0.023819,0.030777,1741884476.193217
-0.432,0.00625,0.1485,0.052887,0.011886501,0.027587999,1741884476.210028
-0.4125,0.1055,0.1395,0.056656,0.00033575002,0.023285,1741884476.2219179
-0.355,0.25625,0.12075,0.05496225,-0.021041749,0.02082825,1741884476.2364469
-0.3105,0.33725,0.10475,0.051712003,-0.030075,0.022094749,1741884476.250988
-0.24775,0.44925,0.0755,0.043335,-0.046875,0.01799,1741884476.265444
-0.08,0.70925,-0.01275,0.0358125,-0.0552825,0.012802,1741884476.2805219
0.01125,0.8055,-0.039,0.011795,-0.069046,0.00045775,1741884476.29444
0.19125,0.82325,0.01725,-0.0024872501,-0.07254025,-0.0059967497,1741884476.310233
0.293,0.7645,0.094,-0.02513125,-0.07557675,-0.02323925,1741884476.3235378
0.50175,0.563,0.2555,-0.03323375,-0.073226996,-0.03353875,1741884476.338009
0.58475,0.45925,0.3195,-0.045761,-0.056762747,-0.04727175,1741884476.352569
0.67025,0.25,0.42275,-0.051178,-0.04756175,-0.04924,1741884476.367062
0.69525,0.10775,0.43375,-0.057433996,-0.040161252,-0.04653925,1741884476.381569
0.72825,-0.033,0.424,-0.064621,-0.02238475,-0.034118753,1741884476.396111
0.763,-0.302,0.37625,-0.06213375,-0.0114744995,-0.032043498,1741884476.410666
0.7635,-0.407,0.36125,-0.049377497,0.008148249,-0.037384,1741884476.425046
0.7735,-0.5405,0.36375,-0.042923,0.017517,-0.0362855,1741884476.4419022
0.741,-0.579,0.34825,-0.030761749,0.043075502,-0.023697,1741884476.454005
0.543,-0.6075,0.2595,-0.022216748,0.0532075,-0.01968375,1741884476.4701838
0.4225,-0.6115,0.215,-0.00059500005,0.061081,-0.017120251,1741884476.483171
0.2175,-0.567,0.1685,0.00947575,0.06289675,-0.013854999,1741884476.499649
0.1305,-0.53075,0.15375,0.017730748,0.06437675,-0.00912475,1741884476.5119371
0.047,-0.49325,0.13925,0.03094475,0.06318675,-0.00048825,1741884476.526386
-0.1275,-0.42525,0.13175,0.03668225,0.06065375,0.00242625,1741884476.540877
-0.21625,-0.39375,0.1465,0.04721075,0.052887,0.009430001,1741884476.555439
-0.383,-0.2835,0.188,0.052429248,0.0467225,0.014297499,1741884476.570688
-0.44225,-0.18975,0.196,0.06283575,0.02819825,0.0193635,1741884476.584449
-0.5055,0.042,0.16025,0.067031756,0.01637275,0.019333,1741884476.600199
-0.4995,0.15625,0.1335,0.06861875,-0.009277251,0.017028749,1741884476.613347
-0.4275,0.36075,0.115,0.06552125,-0.021347,0.016113251,1741884476.630086
-0.37825,0.43475,0.113,0.06007375,-0.032180753,0.014846751,1741884476.6424809
-0.31875,0.50025,0.104,0.04499825,-0.05068975,0.0099945,1741884476.656546
-0.17625,0.60275,0.0785,0.03572075,-0.05880725,0.00720225,1741884476.670945
-0.09,0.63125,0.08425,0.017105,-0.07241825,-0.00239575,1741884476.685544
0.12525,0.63975,0.1595,0.00788875,-0.079071,-0.010238751,1741884476.7005582
0.272,0.61025,0.243,-0.0119630005,-0.08525075,-0.023773251,1741884476.7144902
0.5755,0.5185,0.411,-0.0216675,-0.080017,-0.02896125,1741884476.730112
0.68875,0.455,0.4295,-0.0398865,-0.056594748,-0.036239497,1741884476.743675
0.83775,0.298,0.43875,-0.04800425,-0.04489125,-0.03825375,1741884476.760705
0.862,0.17525,0.4345,-0.054245,-0.036514252,-0.039627,1741884476.7726479
0.878,0.037,0.44325,-0.05950925,-0.018127501,-0.037552,1741884476.7870998
0.9305,-0.209,0.4495,-0.05929575,-0.009445249,-0.03338625,1741884476.801666
0.928,-0.29475,0.419,-0.052658,0.01445,-0.028473,1741884476.8161752
0.81975,-0.39575,0.346,-0.046524,0.02867125,-0.02961725,1741884476.8306339
0.71825,-0.439,0.3045,-0.03312675,0.04898075,-0.0289765,1741884476.845186
0.47625,-0.50475,0.23325,-0.02664175,0.0563965,-0.025390498,1741884476.860385
0.35375,-0.528,0.21,-0.0122985,0.06655875,-0.0182495,1741884476.8743098
0.14675,-0.552,0.1885,-0.00437925,0.06808475,-0.015564,1741884476.888745
0.0595,-0.5635,0.19025,0.0034942501,0.0680695,-0.012832751,1741884476.9031549
-0.0285,-0.5715,0.19125,0.0195465,0.06567375,-0.00517275,1741884476.919725
-0.19575,-0.544,0.191,0.027649,0.06257625,-0.0005645,1741884476.932247
-0.2655,-0.507,0.1855,0.043167,0.051941004,0.0085602505,1741884476.9467661
-0.377,-0.378,0.188,0.05062875,0.04493725,0.01368725,1741884476.961152
-0.407,-0.2595,0.19525,0.06488025,0.02633675,0.018310498,1741884476.975567
-0.40775,0.00925,0.1785,0.06976325,0.015289251,0.017135499,1741884476.991822
-0.3935,0.13125,0.16475,0.07162475,-0.0072785,0.014282251,1741884477.004249
-0.32975,0.337,0.141,0.069122255,-0.0175935,0.014038,1741884477.019647
-0.268,0.4495,0.1195,0.06472775,-0.027252251,0.01475525,1741884477.03335
-0.18625,0.5595,0.0915,0.048828,-0.04492175,0.01651,1741884477.047903
-0.01575,0.73625,0.01025,0.03768925,-0.051284753,0.015075751,1741884477.0622761
0.05575,0.784,-0.02125,0.01200875,-0.059249748,0.0056304997,1741884477.0768251
0.17425,0.81525,-0.01,0.00061025,-0.061325002,-0.0028074998,1741884477.0924459
0.23775,0.794,0.037,-0.023697,-0.064071745,-0.019516,1741884477.106076
0.4245,0.6255,0.23075,-0.036987253,-0.06369025,-0.02664175,1741884477.120524
0.51975,0.4835,0.32575,-0.056045502,-0.051956248,-0.040741,1741884477.1350021
0.61375,0.2,0.41325,-0.0623475,-0.0425415,-0.043457,1741884477.15022
0.61475,0.036,0.4085,-0.06738275,-0.03370675,-0.0423125,1741884477.164031
0.64775,-0.242,0.3615,-0.065795995,-0.02053825,-0.039672747,1741884477.180178
0.7,-0.33375,0.36575,-0.06112675,-0.01361075,-0.038757253,1741884477.193108
0.749,-0.411,0.385,-0.051101748,0.0065307496,-0.03344725,1741884477.210936
0.75175,-0.54225,0.392,-0.044616748,0.01829525,-0.02952575,1741884477.2222452
0.708,-0.576,0.36225,-0.026397752,0.039917,-0.02418525,1741884477.236726
0.537,-0.5725,0.26025,-0.016983,0.04881275,-0.02174375,1741884477.251241
0.435,-0.5425,0.21475,0.00042725,0.06074525,-0.017273001,1741884477.265672
0.2475,-0.45,0.15075,0.00839225,0.063263,-0.015335,1741884477.280423
0.17025,-0.40525,0.1335,0.015304499,0.064026,-0.012756251,1741884477.294434
0.04325,-0.3385,0.144,0.025940001,0.061676,-0.00611875,1741884477.3102741
-0.017,-0.32825,0.16075,0.030075,0.058792,-0.0027465,1741884477.3235142
-0.08375,-0.3315,0.18275,0.039322,0.05163575,0.0012665,1741884477.337941
-0.23925,-0.34725,0.21025,0.04623425,0.04685975,0.0035704998,1741884477.3526669
-0.3135,-0.31375,0.203,0.06144725,0.03208925,0.0114135,1741884477.367049
-0.38825,-0.1235,0.17425,0.066741996,0.0224,0.015594499,1741884477.381556
-0.39325,-0.007,0.14625,0.072280996,0.00177,0.0182495,1741884477.395942
-0.38625,0.1725,0.08175,0.0726775,-0.008727999,0.01667775,1741884477.4104419
-0.37425,0.232,0.062,0.0711975,-0.019577,0.0149535,1741884477.4247859
-0.28925,0.3685,0.059,0.0630645,-0.04129025,0.015029999,1741884477.442396
-0.2105,0.45725,0.05725,0.056762747,-0.052063,0.015625,1741884477.453523
-0.11225,0.55,0.0565,0.038513247,-0.06877125,0.014846751,1741884477.470167
0.11525,0.72475,0.05525,0.02742,-0.0730895,0.0129395,1741884477.4824572
0.24575,0.79325,0.077,0.00444025,-0.07583625,-0.0018615,1741884477.496918
0.571,0.79925,0.23775,-0.00773625,-0.0760345,-0.0151215,1741884477.511563
0.721,0.715,0.34075,-0.03338625,-0.05950925,-0.039566003,1741884477.526048
0.861,0.4425,0.44,-0.04603575,-0.043457,-0.043167,1741884477.542497
0.83375,0.28325,0.4135,-0.0578155,-0.027557248,-0.039276,1741884477.55501
0.754,0.0065,0.3475,-0.07099925,-0.00767525,-0.027740499,1741884477.569862
0.75375,-0.1235,0.36725,-0.06988525,-0.0029907501,-0.028656,1741884477.58437
0.763,-0.25175,0.39325,-0.06124875,0.01222225,-0.033493,1741884477.600456
0.73375,-0.478,0.3705,-0.05770875,0.0253295,-0.028564502,1741884477.613311
0.6705,-0.5605,0.32375,-0.04476925,0.0504455,-0.017608749,1741884477.6301959
0.4755,-0.63625,0.23425,-0.03392025,0.05862425,-0.01658625,1741884477.642365
0.368,-0.62175,0.2025,-0.01245125,0.06747425,-0.01194775,1741884477.656847
0.16425,-0.5385,0.155,-0.00320425,0.06925975,-0.008316,1741884477.671233
0.067,-0.50225,0.126,0.014099,0.067047,-0.00378425,1741884477.6856341
-0.09075,-0.4575,0.08925,0.0222015,0.06419375,-0.0026092501,1741884477.7002409
-0.15875,-0.409,0.09125,0.03096,0.060791,-0.00289925,1741884477.714559
-0.231,-0.34375,0.09675,0.046264753,0.050476003,-0.0015105,1741884477.730007
-0.36725,-0.222,0.121,0.051330503,0.043075502,0.001892,1741884477.743381
-0.4135,-0.1495,0.123,0.0602265,0.022643998,0.0070037497,1741884477.760164
-0.44225,0.054,0.09425,0.063263,0.010253999,0.0079955,1741884477.7720408
-0.43225,0.1615,0.083,0.0634155,-0.014679,0.007187,1741884477.786467
-0.388,0.344,0.08475,0.060135,-0.02661125,0.0070342496,1741884477.80094
-0.3535,0.416,0.08925,0.054397497,-0.03828425,0.0079955,1741884477.815422
-0.2355,0.54925,0.07275,0.0386505,-0.059326246,0.0099639995,1741884477.830264
-0.14775,0.6125,0.07225,0.02893075,-0.0681,0.0099639995,1741884477.8443751
-0.0395,0.6455,0.101,0.0064545004,-0.08117675,0.00381475,1741884477.8598552
0.21425,0.65075,0.1995,-0.004303,-0.08406075,-0.00320425,1741884477.8732631
0.3325,0.64175,0.22675,-0.026275748,-0.07804875,-0.013839751,1741884477.887785
0.561,0.54075,0.3055,-0.037552,-0.071899496,-0.01678475,1741884477.902256
0.686,0.4585,0.3715,-0.052673247,-0.061828498,-0.032714747,1741884477.916839
0.89275,0.2005,0.51275,-0.05714425,-0.05593875,-0.044815,1741884477.9313312
0.92225,0.02825,0.52225,-0.06056225,-0.046752997,-0.0502625,1741884477.945772
0.96925,-0.26775,0.52975,-0.06213375,-0.01731875,-0.03639225,1741884477.960549
0.982,-0.36675,0.5165,-0.05805975,-0.0035704998,-0.031601,1741884477.9749088
0.9455,-0.428,0.466,-0.041824248,0.0232085,-0.03718575,1741884477.9920158
0.74975,-0.4795,0.32525,-0.0344695,0.037704498,-0.036148,1741884478.004087
0.61775,-0.4875,0.2595,-0.0221405,0.0591125,-0.0230255,1741884478.019385
0.35775,-0.4595,0.181,-0.01567075,0.064392,-0.017654499,1741884478.0330062
0.25125,-0.43625,0.166,-0.0021057501,0.06779475,-0.012741,1741884478.0475461
0.08875,-0.40225,0.15525,0.00444025,0.06694025,-0.01197825,1741884478.064501
0.0235,-0.41125,0.159,0.01741025,0.0624085,-0.0100555,1741884478.0764558
-0.113,-0.4625,0.17825,0.024536248,0.060028,-0.0075225,1741884478.092066
-0.185,-0.46275,0.1805,0.032256998,0.0572815,-0.0028687501,1741884478.105406
-0.25,-0.42425,0.17975,0.046325747,0.048278753,0.011260999,1741884478.120288
-0.3215,-0.266,0.17275,0.052597,0.040573,0.015167249,1741884478.1344619
-0.321,-0.16925,0.17375,0.065795995,0.020019501,0.009521499,1741884478.15006
-0.26575,0.019,0.17825,0.070053004,0.0095672505,0.00646975,1741884478.163241
-0.24375,0.0995,0.17225,0.06988525,-0.00488275,0.00930775,1741884478.180497
-0.2525,0.28,0.1335,0.06793225,-0.0110625,0.011398249,1741884478.1925209
-0.24725,0.397,0.096,0.062027,-0.031188998,0.0077515002,1741884478.206531
-0.12875,0.64375,0.0155,0.054580748,-0.0425415,0.0043639997,1741884478.220963
-0.039,0.71525,-0.01125,0.04356375,-0.05159,0.0005645,1741884478.235418
0.034,0.73975,-0.03125,0.016861,-0.05941775,-0.00773625,1741884478.2502432
0.1195,0.71075,-0.04025,0.0037079998,-0.0605315,-0.010162249,1741884478.2644491
0.163,0.66825,0.01075,-0.0168305,-0.06159975,-0.016113251,1741884478.280202
0.2835,0.51175,0.18025,-0.0248565,-0.060424753,-0.02073675,1741884478.2935302
0.35525,0.44275,0.24975,-0.04119875,-0.05039975,-0.02572625,1741884478.310209
0.488,0.27675,0.3295,-0.050109748,-0.043899503,-0.028289748,1741884478.3225029
0.533,0.15475,0.337,-0.0633545,-0.036026,-0.029739501,1741884478.337019
0.6215,-0.02,0.36,-0.06513975,-0.0344695,-0.02838125,1741884478.351656
0.6905,-0.09725,0.4055,-0.064392,-0.0318755,-0.02870175,1741884478.366125
0.75475,-0.19575,0.44175,-0.05944825,-0.014648501,-0.032653753,1741884478.3807511
0.78375,-0.37925,0.405,-0.054992747,-0.0026245,-0.0327605,1741884478.39535
0.76075,-0.4415,0.36325,-0.04164125,0.0166015,-0.0309905,1741884478.410507
0.6685,-0.51725,0.29575,-0.034134,0.02528375,-0.028900249,1741884478.424236
0.599,-0.5255,0.2725,-0.018875,0.0414275,-0.022461,1741884478.4387121
0.42725,-0.50325,0.22225,-0.011016751,0.0475005,-0.02026375,1741884478.453152
0.333,-0.48625,0.191,0.00358575,0.05546575,-0.01504525,1741884478.4702961
0.15975,-0.46125,0.14575,0.00968925,0.057433996,-0.01121525,1741884478.481917
0.086,-0.4455,0.14225,0.015457249,0.05802925,-0.0074920002,1741884478.4964101
0.0225,-0.43275,0.15325,0.02749625,0.054596,-0.0028229998,1741884478.511175
-0.114,-0.45,0.18325,0.034668,0.051422,-0.0019225,1741884478.525454
-0.18875,-0.44875,0.18225,0.04930125,0.04353325,0.0060425,1741884478.542399
-0.306,-0.3585,0.16425,0.05603025,0.0376435,0.011627249,1741884478.554284
-0.32675,-0.26025,0.15375,0.06988525,0.01867675,0.0138855,1741884478.570418
-0.302,-0.03225,0.14125,0.074935995,0.0075377496,0.011886501,1741884478.582985
-0.2875,0.0575,0.14675,0.07681275,-0.01083375,0.0099639995,1741884478.60017
-0.27875,0.184,0.16575,0.07495125,-0.018341,0.011306751,1741884478.611957
-0.25425,0.27225,0.16325,0.072403,-0.02633675,0.013412501,1741884478.626549
-0.20025,0.3945,0.14125,0.064071745,-0.04335025,0.014328,1741884478.642287
-0.04425,0.65625,0.062,0.055953998,-0.05052175,0.012542751,1741884478.655406
0.024,0.73975,0.0325,0.031128,-0.05856325,0.0055237496,1741884478.6700952
0.1175,0.757,0.04825,0.0175935,-0.059784,0.00080875,1741884478.684007
0.177,0.73875,0.093,-0.0068665,-0.061141998,-0.00839225,1741884478.699857
0.31725,0.632,0.21675,-0.0186615,-0.0592345,-0.0122985,1741884478.713001
0.38125,0.55475,0.2715,-0.029693501,-0.05511475,-0.0163575,1741884478.7300968
0.4995,0.38825,0.36125,-0.04679875,-0.044067502,-0.02746575,1741884478.7422311
0.54425,0.3045,0.389,-0.0542755,-0.038330004,-0.030075,1741884478.756494
0.5765,0.2265,0.4065,-0.06843575,-0.027237,-0.0237885,1741884478.7710872
0.647,0.01175,0.4545,-0.071304254,-0.02288825,-0.02500925,1741884478.785526
0.68175,-0.11975,0.45875,-0.0662385,-0.01408375,-0.0379945,1741884478.8001091
0.6975,-0.344,0.42075,-0.061905,-0.0041504996,-0.038818248,1741884478.8148549
0.67925,-0.39225,0.387,-0.050644003,0.0153502505,-0.03125,1741884478.829878
0.62075,-0.4375,0.32025,-0.044067502,0.022521999,-0.0293885,1741884478.8438091
0.57625,-0.467,0.28975,-0.031005751,0.0366515,-0.024002,1741884478.860172
0.451,-0.4675,0.22175,-0.023834249,0.042282,-0.020996,1741884478.872939
0.39075,-0.44325,0.19575,-0.016570998,0.046112,-0.020049999,1741884478.887527
0.33525,-0.416,0.17775,-0.004837,0.05239875,-0.01855475,1741884478.901994
0.20525,-0.3755,0.15475,-0.00059500005,0.0556335,-0.015335,1741884478.916451
0.13575,-0.36175,0.1515,0.008712751,0.05688475,-0.01115425,1741884478.9308941
0.01125,-0.3605,0.14975,0.014206001,0.05470275,-0.010314999,1741884478.945413
-0.05525,-0.3715,0.153,0.02586375,0.049850497,-0.005066,1741884478.960444
-0.18975,-0.36475,0.16575,0.03190625,0.04618825,-0.0021057501,1741884478.9746401
-0.24825,-0.3415,0.17125,0.04379275,0.035293497,0.0062407497,1741884478.991951
-0.33675,-0.26175,0.173,0.049316503,0.02867125,0.01104725,1741884479.003694
-0.36575,-0.195,0.16425,0.054809503,0.02098075,0.0152435,1741884479.020224
-0.372,0.013,0.145,0.064941496,0.000946,0.01882925,1741884479.032528
-0.353,0.1235,0.13225,0.0679015,-0.010253999,0.01763925,1741884479.049402
-0.328,0.2285,0.118,0.065857,-0.030029248,0.015396,1741884479.061331
-0.26525,0.39925,0.0725,0.060668997,-0.0386505,0.015274,1741884479.0757499
-0.21575,0.48775,0.04275,0.04618825,-0.05581675,0.015396,1741884479.09232
-0.0455,0.72475,-0.00875,0.0370025,-0.064346254,0.0126495,1741884479.104828
0.062,0.8195,-0.0065,0.01310725,-0.0749665,-0.00302125,1741884479.11997
0.2885,0.81,0.09975,-0.0016175,-0.074524,-0.010162249,1741884479.134002
0.41725,0.72175,0.19675,-0.0164795,-0.071426496,-0.015564,1741884479.1499898
0.66625,0.476,0.3835,-0.0368195,-0.0588685,-0.03453075,1741884479.163021
0.74325,0.36325,0.436,-0.044326752,-0.05201725,-0.041793752,1741884479.1799822
0.783,0.24125,0.46075,-0.0592805,-0.03408825,-0.0391235,1741884479.192111
0.83575,-0.0955,0.509,-0.06279,-0.02330025,-0.037490748,1741884479.206609
0.8585,-0.262,0.50575,-0.055542,-0.0068665,-0.039215,1741884479.2210948
0.86825,-0.4835,0.4655,-0.04733275,0.0028687501,-0.041183498,1741884479.235529
0.83875,-0.53925,0.43125,-0.02993775,0.026657,-0.040847752,1741884479.249954
0.686,-0.566,0.32425,-0.023040751,0.038803,-0.03430175,1741884479.264521
0.574,-0.54925,0.2745,-0.012847999,0.060897753,-0.011886501,1741884479.2803159
0.35625,-0.441,0.2045,-0.00596625,0.06646725,-0.0069580004,1741884479.293503
0.283,-0.3905,0.19,0.001831,0.0676575,-0.0077210004,1741884479.310123
0.228,-0.36225,0.1905,0.0150605,0.0662995,-0.012436,1741884479.3223329
0.1015,-0.36525,0.20075,0.020111,0.0667725,-0.012634249,1741884479.336724
0.00775,-0.3695,0.19375,0.02908325,0.06779475,-0.0050965,1741884479.351126
-0.2295,-0.36625,0.17825,0.03338625,0.06622325,-0.00051875,1741884479.365699
-0.354,-0.3685,0.16675,0.044540502,0.0546265,0.0048674997,1741884479.3803189
-0.53975,-0.313,0.13725,0.0521545,0.04458625,0.0066374997,1741884479.394397
-0.572,-0.238,0.12825,0.059600748,0.03173825,0.008727999,1741884479.410079
-0.54075,-0.0115,0.10325,0.068222,0.00314325,0.0137635,1741884479.4234161
-0.5065,0.10075,0.092,0.068939246,-0.010803251,0.01496875,1741884479.438093
-0.46675,0.192,0.08725,0.064331,-0.036239497,0.015533499,1741884479.452596
-0.365,0.33475,0.101,0.0592345,-0.04771425,0.01646425,1741884479.469344
-0.2915,0.423,0.10225,0.046524,-0.0701905,0.0160065,1741884479.481378
-0.064,0.645,0.097,0.038681,-0.080566496,0.0126495,1741884479.49584
0.056,0.71925,0.1175,0.019775499,-0.09040825,-0.00384525,1741884479.510218
0.3055,0.7225,0.238,0.008224499,-0.090454005,-0.014038,1741884479.5245829
0.43625,0.6745,0.315,-0.0039825,-0.086547755,-0.021881001,1741884479.541919
0.654,0.52375,0.43925,-0.027435249,-0.065567,-0.03108225,1741884479.5536509
0.731,0.42925,0.4755,-0.036972,-0.051834,-0.03752125,1741884479.5695732
0.7715,0.335,0.49175,-0.048339747,-0.03152475,-0.0532075,1741884479.582714
0.72025,0.12075,0.4755,-0.054183997,-0.0237275,-0.053939752,1741884479.599772
0.693,0.008,0.47725,-0.06283575,-0.006256,-0.04505925,1741884479.6117098
0.66775,-0.24325,0.433,-0.061798,0.00042725,-0.04205325,1741884479.626241
0.6395,-0.35475,0.37975,-0.05101025,0.017151,-0.043686002,1741884479.6419258
0.59825,-0.49775,0.3295,-0.043624748,0.025177,-0.04714975,1741884479.65521
0.58525,-0.54775,0.334,-0.036255002,0.032043498,-0.04862975,1741884479.670239
0.50075,-0.60825,0.3035,-0.026275748,0.0508575,-0.029007,1741884479.684213
0.42175,-0.61425,0.2645,-0.021606501,0.06102,-0.014038,1741884479.699498
0.337,-0.617,0.22575,-0.0051269997,0.069458,-0.00358575,1741884479.713213
0.17575,-0.5685,0.16675,0.004547,0.068222,-0.00453175,1741884479.730134
0.116,-0.51775,0.15075,0.01756275,0.06478875,-0.001648,1741884479.741992
0.014,-0.45825,0.1505,0.02200325,0.06381225,0.002121,1741884479.756293
-0.0565,-0.44925,0.151,0.031784,0.061676,0.009734999,1741884479.770813
-0.2355,-0.4325,0.1555,0.037201,0.0592345,0.0142365,1741884479.7853189
-0.323,-0.406,0.16275,0.04290775,0.0550995,0.01924125,1741884479.8000908
-0.43275,-0.257,0.18525,0.05549625,0.038513247,0.02633675,1741884479.814355
-0.44825,-0.15075,0.19475,0.061523497,0.02630625,0.027007999,1741884479.829557
-0.44475,-0.03875,0.198,0.069931,0.0012207499,0.0254975,1741884479.843092
-0.4,0.14075,0.197,0.07067875,-0.009369001,0.026000999,1741884479.860057
-0.37525,0.22625,0.1925,0.0683135,-0.0259095,0.0263825,1741884479.8720798
-0.3085,0.4135,0.1435,0.065979,-0.0353545,0.02212525,1741884479.886585
-0.2515,0.52425,0.1025,0.0523225,-0.0570985,0.012909001,1741884479.901025
-0.072,0.73375,0.0475,0.040099997,-0.067031756,0.011383001,1741884479.915448
0.018,0.78325,0.05375,0.026947001,-0.073593244,0.00897225,1741884479.930215
0.09275,0.796,0.081,0.0016175,-0.0772705,-0.0051269997,1741884479.944308
0.25875,0.71725,0.209,-0.00962825,-0.07789601,-0.01345825,1741884479.960149
0.3745,0.66525,0.297,-0.0288085,-0.073471,-0.030716,1741884479.973191
0.5885,0.53025,0.4295,-0.0390625,-0.0639495,-0.03857425,1741884479.9876962
0.65475,0.419,0.466,-0.056488,-0.038879503,-0.0506135,1741884480.002225
0.681,0.133,0.477,-0.062393248,-0.03167725,-0.049682498,1741884480.019399
0.6745,0.027,0.45425,-0.064468496,-0.024765,-0.042221002,1741884480.0312252
0.711,-0.15325,0.419,-0.0626525,-0.019012501,-0.040466253,1741884480.045797
0.7485,-0.28075,0.41525,-0.060135,-0.01036075,-0.04104625,1741884480.060383
0.7825,-0.53825,0.40875,-0.051422,0.013854999,-0.041687,1741884480.0750248
0.7595,-0.60925,0.39175,-0.0453645,0.02690125,-0.035843,1741884480.0919209
0.703,-0.629,0.35625,-0.0312195,0.04733275,-0.02041625,1741884480.1039639
0.5395,-0.6165,0.27825,-0.0229035,0.05334475,-0.01599125,1741884480.119829
0.44975,-0.60525,0.25075,-0.0042115003,0.06242375,-0.012054499,1741884480.132988
0.28575,-0.51525,0.21425,0.0042267498,0.065979,-0.0101775,1741884480.1498308
0.21075,-0.453,0.19875,0.01596075,0.06896975,-0.0053709997,1741884480.1619809
0.0585,-0.38225,0.15975,0.019744748,0.0690155,-0.0026854998,1741884480.176374
-0.0175,-0.37075,0.15175,0.027252251,0.066741996,0.00201425,1741884480.1918411
-0.161,-0.37325,0.1595,0.032074,0.0632935,0.00434875,1741884480.205207
-0.233,-0.36875,0.171,0.036620997,0.058258,0.0080415,1741884480.2198799
-0.304,-0.348,0.1895,0.04467775,0.04441825,0.0169525,1741884480.234244
-0.445,-0.2275,0.22175,0.04939275,0.0352325,0.01991275,1741884480.2499359
-0.497,-0.1385,0.2135,0.05738825,0.012909001,0.022995,1741884480.263083
-0.4955,0.06975,0.17075,0.06030275,0.001114,0.023101749,1741884480.280004
-0.45725,0.1605,0.15775,0.06172175,-0.019134501,0.0237275,1741884480.2921631
-0.388,0.32725,0.1275,0.060165502,-0.02680975,0.024078252,1741884480.30639
-0.3475,0.422,0.0985,0.057617247,-0.03421025,0.022934001,1741884480.320821
-0.285,0.51675,0.0685,0.047165003,-0.0518035,0.01637275,1741884480.3352408
-0.09575,0.6575,0.0395,0.0388335,-0.0611725,0.01104725,1741884480.350069
0.00075,0.688,0.04725,0.0177155,-0.07118225,-0.00019825,1741884480.3639848
0.1565,0.6965,0.1,0.00640875,-0.072357245,-0.00460825,1741884480.380179
0.24225,0.6895,0.15775,-0.0112305,-0.07386775,-0.0202485,1741884480.392954
0.479,0.6205,0.33625,-0.0177155,-0.074935995,-0.03259275,1741884480.410209
0.625,0.5335,0.42875,-0.03445425,-0.0615845,-0.0532685,1741884480.42206
0.822,0.298,0.49875,-0.04512025,-0.046157748,-0.055191003,1741884480.436703
0.8315,0.14975,0.47575,-0.055862498,-0.031570498,-0.049408,1741884480.451224
0.80775,0.03325,0.44375,-0.06198125,-0.0167695,-0.0379945,1741884480.465703
0.7895,-0.11325,0.4055,-0.0582275,-0.012802,-0.03863525,1741884480.480289
0.7925,-0.18275,0.39325,-0.051025502,0.0051880004,-0.042678747,1741884480.494741
0.72525,-0.36725,0.33775,-0.04853825,0.01852425,-0.0410155,1741884480.510547
0.649,-0.45575,0.3045,-0.037902746,0.040893503,-0.03291325,1741884480.524072
0.48425,-0.5755,0.241,-0.02876275,0.045410253,-0.03161625,1741884480.541944
0.407,-0.62125,0.222,-0.009323,0.04986575,-0.02781675,1741884480.553181
0.2405,-0.62775,0.20025,-0.00115975,0.05378725,-0.0219115,1741884480.570017
0.15525,-0.59175,0.181,0.011810251,0.05998225,-0.0085755,1741884480.5821261
-0.02575,-0.536,0.1305,0.017654499,0.0611115,-0.0025787498,1741884480.5967062
-0.1235,-0.5285,0.10775,0.02389525,0.0607605,0.0027465,1741884480.6111171
-0.2055,-0.51725,0.0955,0.0390625,0.0507355,0.0109709995,1741884480.625519
-0.29325,-0.41825,0.12125,0.04739375,0.04151925,0.01367175,1741884480.6417851
-0.3095,-0.32225,0.1435,0.060379002,0.02278125,0.0178985,1741884480.6543648
-0.31925,-0.09225,0.176,0.063705504,0.01560975,0.01890575,1741884480.6699982
-0.32325,0.01675,0.1865,0.06513975,0.0032347501,0.0198365,1741884480.683298
-0.33375,0.17525,0.19775,0.06404125,-0.00390625,0.019806,1741884480.699831
-0.3265,0.2305,0.197,0.0592805,-0.02064525,0.02012625,1741884480.712072
-0.2385,0.39825,0.15125,0.055724997,-0.02961725,0.0213165,1741884480.726602
-0.1625,0.51475,0.10175,0.050583,-0.03837575,0.020996,1741884480.7418509
-0.0865,0.61625,0.0565,0.0343475,-0.051818747,0.0110015,1741884480.755399
0.00525,0.70675,0.0165,0.023650998,-0.056686502,0.003769,1741884480.770205
0.04,0.68925,0.0325,0.000885,-0.060806252,-0.0079345,1741884480.7841432
0.15475,0.64225,0.11525,-0.009201,-0.0608825,-0.012771499,1741884480.799957
0.23175,0.615,0.1695,-0.027007999,-0.05862425,-0.0248565,1741884480.81318
0.4155,0.497,0.315,-0.034958,-0.056701753,-0.033249002,1741884480.8302028
0.52625,0.39625,0.394,-0.041916,-0.05334475,-0.04255675,1741884480.8421981
0.67475,0.137,0.484,-0.05552675,-0.0438385,-0.050536998,1741884480.856649
0.70675,-0.00075,0.50475,-0.0606995,-0.0375825,-0.047424253,1741884480.8712971
0.72725,-0.113,0.51775,-0.06015025,-0.01997375,-0.0430145,1741884480.8857799
0.777,-0.30125,0.51425,-0.0556335,-0.0110625,-0.0446015,1741884480.9003851
0.79425,-0.3895,0.4865,-0.04249575,0.00694275,-0.04945375,1741884480.9149692
0.75625,-0.53375,0.4175,-0.0368195,0.01930225,-0.044555753,1741884480.930161
0.7005,-0.553,0.3785,-0.02671825,0.04426575,-0.02272025,1741884480.944095
0.5195,-0.517,0.27975,-0.02050775,0.053222753,-0.0160675,1741884480.9606311
0.42725,-0.49675,0.24175,-0.0059205,0.061828498,-0.01501475,1741884480.973133
0.27875,-0.46275,0.22325,0.0015565,0.063202,-0.0153502505,1741884480.987556
0.21475,-0.44425,0.21825,0.00817875,0.06427,-0.013137749,1741884481.001931
0.1515,-0.42725,0.20425,0.01814275,0.067093,-0.0045625,1741884481.0163488
0.01225,-0.404,0.169,0.023101749,0.067276,-0.00270075,1741884481.030747
-0.06175,-0.39,0.16525,0.033889752,0.06307975,-0.0013427499,1741884481.045301
-0.22375,-0.38325,0.17625,0.0382385,0.0596465,0.0032347501,1741884481.060062
-0.30875,-0.38425,0.178,0.04689025,0.050171003,0.016723748,1741884481.0741918
-0.4495,-0.329,0.1445,0.053588748,0.0423125,0.019622749,1741884481.088564
-0.48275,-0.257,0.11575,0.0697785,0.020218,0.0168305,1741884481.103076
-0.4695,-0.05325,0.106,0.07551575,0.00788875,0.014938249,1741884481.119636
-0.4375,0.04575,0.12575,0.07789601,-0.004013,0.01531975,1741884481.132069
-0.39725,0.133,0.152,0.07576,-0.023528999,0.01950075,1741884481.14658
-0.292,0.30875,0.18325,0.07301325,-0.0318145,0.02088925,1741884481.161057
-0.21725,0.4235,0.1695,0.06198125,-0.0484315,0.0194245,1741884481.175549
-0.04175,0.67325,0.10025,0.053039502,-0.055893,0.017395,1741884481.192953
0.05025,0.75975,0.08975,0.0305175,-0.0645905,0.01193225,1741884481.2042491
0.21475,0.8075,0.13725,0.018463248,-0.065384,0.00708,1741884481.2196732
0.3005,0.794,0.17975,0.0076905,-0.06510925,-0.00068675,1741884481.233119
0.4825,0.71725,0.27225,-0.01098625,-0.060668997,-0.024932751,1741884481.24988
0.5505,0.6445,0.307,-0.022094749,-0.054138247,-0.03515625,1741884481.262187
0.5915,0.558,0.3295,-0.04667675,-0.032348752,-0.042633,1741884481.276651
0.604,0.3435,0.35375,-0.056686502,-0.024078252,-0.0416565,1741884481.2929358
0.5865,0.2305,0.3545,-0.068695,-0.01857,-0.03591925,1741884481.3056371
0.597,-0.00175,0.3835,-0.06985475,-0.01800525,-0.036331248,1741884481.320301
0.62675,-0.14025,0.40475,-0.06605525,-0.00788875,-0.0447235,1741884481.334947
0.674,-0.428,0.39425,-0.061828498,0.00242625,-0.04768375,1741884481.3499992
0.6775,-0.53375,0.36725,-0.049347,0.02401725,-0.043686002,1741884481.36394
0.63975,-0.69525,0.3135,-0.042923,0.03318775,-0.036316004,1741884481.379989
0.588,-0.74675,0.2775,-0.03541575,0.04011525,-0.027954001,1741884481.393028
0.51125,-0.77,0.235,-0.013733,0.047881998,-0.017807,1741884481.40995
0.3225,-0.7275,0.1705,-0.00190725,0.05148325,-0.01425175,1741884481.422091
0.2305,-0.676,0.14825,0.01705925,0.057953,-0.00469975,1741884481.4365702
0.08375,-0.57425,0.11875,0.02487175,0.05824275,-0.00054925,1741884481.450963
0.03325,-0.532,0.12275,0.0392915,0.051391497,0.00396725,1741884481.465317
-0.06775,-0.4555,0.166,0.045287997,0.0474395,0.00744625,1741884481.480339
-0.12175,-0.417,0.198,0.05485525,0.039672747,0.01560975,1741884481.494404
-0.24225,-0.2965,0.24325,0.059082,0.03509525,0.019577,1741884481.509835
-0.30725,-0.2175,0.25175,0.06295775,0.02977,0.02262875,1741884481.523204
-0.36975,-0.124,0.255,0.070984,0.01452625,0.0252075,1741884481.537576
-0.436,0.104,0.23725,0.0739135,0.00396725,0.02522275,1741884481.551888
-0.428,0.2195,0.2165,0.074707,-0.018509,0.0213775,1741884481.566292
-0.33975,0.427,0.17625,0.07206725,-0.02940375,0.017974751,1741884481.580789
-0.27575,0.52875,0.14825,0.05874625,-0.04670725,0.0099639995,1741884481.595274
-0.158,0.687,0.06225,0.048446752,-0.052124,0.0054475004,1741884481.610003
-0.11075,0.73475,0.02275,0.02386475,-0.06086725,-0.00119025,1741884481.624171
-0.00725,0.74125,0.028,0.011184749,-0.06570425,-0.0052795,1741884481.6387
0.05325,0.69675,0.07,9.15e-05,-0.070449755,-0.012313751,1741884481.6530602
0.13375,0.647,0.1375,-0.016265752,-0.075332746,-0.031570498,1741884481.6699939
0.35275,0.525,0.31525,-0.02507025,-0.0730895,-0.0390625,1741884481.6821702
0.43325,0.43,0.377,-0.047805753,-0.05137625,-0.039672747,1741884481.699172
0.53025,0.21,0.4395,-0.056808498,-0.038330004,-0.0360565,1741884481.711194
0.58575,0.1415,0.4545,-0.060668997,-0.02920525,-0.039032,1741884481.7256372
0.6545,0.04725,0.42275,-0.0591125,-0.028259251,-0.04359425,1741884481.74223
0.68,-0.03575,0.4235,-0.057541,-0.01690675,-0.0501405,1741884481.7547781
0.7415,-0.229,0.453,-0.057189997,-0.0070037497,-0.0484925,1741884481.770116
0.7375,-0.318,0.42575,-0.05747975,0.00585925,-0.039978,1741884481.784111
0.705,-0.39625,0.38875,-0.050827,0.03025825,-0.025848499,1741884481.8000371
0.62425,-0.556,0.35225,-0.04081725,0.034179747,-0.0308685,1741884481.813196
0.60925,-0.6265,0.355,-0.021408001,0.04039,-0.032074,1741884481.829889
0.56825,-0.625,0.33825,-0.015457249,0.048584,-0.020141501,1741884481.842186
0.5095,-0.57175,0.30175,-0.00364675,0.06280525,-0.00190725,1741884481.8567302
0.33875,-0.48875,0.22,0.0045012496,0.06605525,-0.0025634998,1741884481.871111
0.25775,-0.4595,0.198,0.020019501,0.06773375,-0.00611875,1741884481.885549
0.143,-0.39925,0.1985,0.02500925,0.06782525,-0.0034484998,1741884481.900822
0.0875,-0.3785,0.19675,0.02882375,0.06796275,0.000885,1741884481.9142258
0.0275,-0.36625,0.1925,0.0376435,0.06631475,0.00511175,1741884481.930271
-0.11,-0.35825,0.18775,0.04273975,0.06330875,0.0047455,1741884481.943089
-0.1965,-0.344,0.18175,0.052658,0.05349725,0.0065307496,1741884481.959881
-0.3605,-0.28675,0.18425,0.057006747,0.0455475,0.008514499,1741884481.9720871
-0.412,-0.262,0.193,0.06510925,0.025695749,0.0105742505,1741884481.9865339
-0.45675,-0.1825,0.20375,0.06840525,0.017151,0.0144805005,1741884482.0009332
-0.4685,-0.10425,0.21575,0.073059,0.0026854998,0.02442925,1741884482.015306
-0.4805,0.12025,0.214,0.075790495,-0.00643925,0.024261499,1741884482.030478
-0.474,0.239,0.19,0.077774,-0.01690675,0.02050775,1741884482.045506
-0.4525,0.34525,0.163,0.07324225,-0.03993225,0.014343251,1741884482.0600598
-0.30175,0.56975,0.1245,0.066543505,-0.0513,0.0139465,1741884482.0730329
-0.18225,0.70675,0.104,0.047638,-0.07200625,0.01077275,1741884482.087529
0.0295,0.87975,0.085,0.036789,-0.0767975,0.00267025,1741884482.102081
0.09125,0.867,0.11325,0.0136565,-0.08010875,-0.01857,1741884482.11656
0.2495,0.708,0.27375,0.001419,-0.082428,-0.025466999,1741884482.131087
0.37175,0.6445,0.3645,-0.01899725,-0.076538004,-0.0360565,1741884482.145728
0.56425,0.532,0.471,-0.0290375,-0.06605525,-0.039382998,1741884482.160257
0.6235,0.42875,0.478,-0.041092,-0.052612253,-0.039779752,1741884482.174772
0.66175,0.33175,0.47475,-0.06044,-0.028991751,-0.039611753,1741884482.1918662
0.68325,0.1895,0.47425,-0.0637665,-0.022995,-0.0424805,1741884482.203952
0.6905,0.10325,0.48425,-0.064209,-0.02211,-0.05403125,1741884482.2200162
0.701,-0.1215,0.45725,-0.0622405,-0.02212525,-0.056686502,1741884482.233095
0.70325,-0.23575,0.45,-0.06011975,-0.004013,-0.04417425,1741884482.249763
0.66625,-0.398,0.4215,-0.0594635,0.01042175,-0.03385925,1741884482.262227
0.624,-0.45025,0.39625,-0.050293,0.0314635,-0.02490225,1741884482.27667
0.52575,-0.557,0.3365,-0.0412445,0.037902746,-0.026657,1741884482.292437
0.47075,-0.59875,0.298,-0.01997375,0.04609675,-0.028900249,1741884482.305641
0.351,-0.621,0.237,-0.0118407495,0.0490265,-0.023117,1741884482.320141
0.29,-0.5955,0.22425,-0.0065002497,0.052688498,-0.01324475,1741884482.33467
0.22425,-0.5565,0.20475,0.00411975,0.05815125,0.00065625,1741884482.349807
0.09525,-0.4745,0.1505,0.0115205,0.05867,-3.0500001e-05,1741884482.363588
0.035,-0.44,0.128,0.02548225,0.05622875,3.0500001e-05,1741884482.3800478
-0.08575,-0.381,0.119,0.030578502,0.054428,0.0044707498,1741884482.392599
-0.1405,-0.35425,0.12575,0.038971,0.04830925,0.01266475,1741884482.406943
-0.23675,-0.28125,0.1295,0.0436095,0.044067502,0.01481625,1741884482.421349
-0.28025,-0.22475,0.12675,0.051528998,0.033325247,0.017974751,1741884482.435761
-0.356,-0.085,0.133,0.054077253,0.026886,0.01829525,1741884482.45013
-0.38175,-0.02525,0.13575,0.055953998,0.01940925,0.01820375,1741884482.46457
-0.38925,0.03225,0.1385,0.057617247,0.001831,0.0188445,1741884482.47999
-0.35475,0.17925,0.14325,0.0576935,-0.0069274995,0.018875,1741884482.493825
-0.32925,0.26375,0.1265,0.05729675,-0.024993999,0.01019275,1741884482.509977
-0.2525,0.40875,0.094,0.05451975,-0.0348205,0.00402825,1741884482.522548
-0.18225,0.47075,0.08675,0.03775025,-0.0519105,0.0030365,1741884482.537036
-0.04825,0.56725,0.07,0.026764,-0.056045502,0.00355525,1741884482.551465
-0.002,0.597,0.0675,0.016967751,-0.0590515,0.000885,1741884482.565932
0.10325,0.616,0.10625,0.0009765,-0.06855775,-0.012054499,1741884482.580439
0.18875,0.60375,0.16475,-0.006012,-0.073028505,-0.021331752,1741884482.595069
0.305,0.55875,0.25025,-0.02288825,-0.0756225,-0.040634252,1741884482.6100538
0.55675,0.38825,0.3955,-0.032318,-0.06973275,-0.0470275,1741884482.624109
0.64925,0.2995,0.42525,-0.04925525,-0.04422,-0.04924,1741884482.638627
0.73,0.10625,0.43325,-0.056137,-0.032837003,-0.04641725,1741884482.653166
0.74825,0.01875,0.42325,-0.061035253,-0.025085501,-0.0435485,1741884482.6698182
0.83025,-0.1855,0.4675,-0.057602,-0.02053825,-0.048446752,1741884482.6823208
0.84775,-0.2765,0.4765,-0.0484315,-0.0024414998,-0.049377497,1741884482.69696
0.79725,-0.4285,0.43,-0.0470885,0.013046251,-0.03866575,1741884482.711478
0.741,-0.47925,0.38775,-0.046157748,0.029571502,-0.02471925,1741884482.726094
0.66825,-0.49625,0.33325,-0.035553,0.0502015,-0.0112915,1741884482.742465
0.5105,-0.458,0.23825,-0.026886,0.05488575,-0.01239025,1741884482.755193
0.4405,-0.4205,0.20725,-0.00997925,0.05966175,-0.013503999,1741884482.7700438
0.314,-0.36,0.171,-0.0030975002,0.06065375,-0.013122501,1741884482.784169
0.24075,-0.3705,0.16925,0.00741575,0.06321725,-0.0115967505,1741884482.799818
0.058,-0.43725,0.17175,0.01194775,0.06520075,-0.00839225,1741884482.8130891
-0.03475,-0.4545,0.15975,0.0237275,0.06593325,-0.002243,1741884482.830082
-0.16875,-0.427,0.13025,0.03129575,0.0619355,-0.0017242499,1741884482.842408
-0.2055,-0.4085,0.1245,0.038452253,0.054596,-0.0012055,1741884482.856711
-0.263,-0.35,0.14675,0.049774252,0.038085997,0.00384525,1741884482.8711839
-0.293,-0.29775,0.1625,0.053833,0.03132625,0.008194,1741884482.885557
-0.3205,-0.2405,0.176,0.060974,0.01835625,0.014206001,1741884482.900301
-0.348,-0.0885,0.1885,0.065155,0.010940501,0.013839751,1741884482.91496
-0.34775,-0.00425,0.18625,0.06958,-0.0052795,0.01402275,1741884482.9301891
-0.32675,0.16375,0.179,0.06947325,-0.014160249,0.0148772495,1741884482.9439108
-0.29525,0.25475,0.1755,0.065857,-0.033508252,0.0129395,1741884482.9600372
-0.16275,0.45025,0.15025,0.0604095,-0.04306025,0.0128632495,1741884482.972854
-0.077,0.54575,0.122,0.04243475,-0.056076,0.012756251,1741884482.987326
0.09125,0.697,0.08825,0.03250125,-0.059723,0.008773751,1741884483.0017002
0.15925,0.7465,0.08025,0.022766002,-0.062317003,0.00187675,1741884483.016064
0.211,0.77175,0.082,0.0013275,-0.0631715,-0.01390075,1741884483.0306702
0.3,0.709,0.169,-0.011245751,-0.0622405,-0.019577,1741884483.045121
0.3655,0.65,0.23775,-0.0331725,-0.05706775,-0.02766425,1741884483.059697
0.50475,0.5285,0.3455,-0.04299925,-0.0506135,-0.03129575,1741884483.0741482
0.5505,0.4375,0.36975,-0.06015025,-0.03253175,-0.03907775,1741884483.08866
0.604,0.254,0.41025,-0.06675725,-0.0255585,-0.041702252,1741884483.103179
0.62725,0.1505,0.4385,-0.077713,-0.0201875,-0.03945925,1741884483.119565
0.6745,-0.088,0.4895,-0.07928475,-0.01579275,-0.03739925,1741884483.1322591
0.6795,-0.2145,0.492,-0.07789601,-0.0072785,-0.035339247,1741884483.1468642
0.68325,-0.33425,0.48125,-0.06805425,0.0127105,-0.03585825,1741884483.161489
0.6655,-0.51525,0.41425,-0.059784,0.01982125,-0.03854375,1741884483.176096
0.6325,-0.5885,0.37175,-0.041396998,0.035675,-0.037917998,1741884483.1923141
0.529,-0.7215,0.321,-0.0326995,0.043105997,-0.03253175,1741884483.205151
0.4545,-0.768,0.31375,-0.0118407495,0.051651,-0.0200805,1741884483.219603
0.27475,-0.7255,0.2695,0.00080875,0.054123,-0.017501751,1741884483.234068
0.1865,-0.67,0.2355,0.02124025,0.058776747,-0.011688249,1741884483.2497668
0.01425,-0.58725,0.164,0.02769475,0.059738252,-0.0043639997,1741884483.2628238
-0.0585,-0.5575,0.15,0.03302,0.059341498,0.0044250004,1741884483.2799768
-0.116,-0.51175,0.15025,0.04574575,0.052719,0.0154115,1741884483.292544
-0.1965,-0.36375,0.16925,0.052780252,0.047104,0.0168305,1741884483.306347
-0.23875,-0.2845,0.18775,0.06324775,0.035400502,0.01876825,1741884483.3207412
-0.34225,-0.16725,0.23225,0.066360496,0.029663,0.020111,1741884483.3351932
-0.37675,-0.0945,0.2485,0.07136525,0.01567075,0.02330025,1741884483.349966
-0.373,0.10175,0.2575,0.072631754,0.0075225,0.02398675,1741884483.3640032
-0.35275,0.18725,0.2485,0.070938006,-0.008407501,0.021759002,1741884483.379946
-0.321,0.3325,0.19875,0.06808475,-0.016448999,0.019317752,1741884483.3928509
-0.29925,0.39225,0.16475,0.06410225,-0.0254975,0.017028749,1741884483.409956
-0.26525,0.44425,0.133,0.05207825,-0.04356375,0.010818499,1741884483.4217532
-0.18875,0.5465,0.067,0.044754002,-0.051788248,0.00511175,1741884483.436191
-0.13475,0.60525,0.04425,0.0272675,-0.068252504,-0.00570675,1741884483.450639
0.0445,0.729,0.0665,0.0163575,-0.07498175,-0.010513251,1741884483.4650629
0.1355,0.73375,0.1175,-0.0075835,-0.07991025,-0.024231002,1741884483.48016
0.31875,0.62425,0.27625,-0.017700251,-0.0792695,-0.031723,1741884483.494184
0.45525,0.543,0.38675,-0.03433225,-0.068939246,-0.048522998,1741884483.510258
0.692,0.30825,0.52475,-0.04299925,-0.0555115,-0.054015998,1741884483.523105
0.7655,0.2025,0.5345,-0.05230725,-0.04237375,-0.052383497,1741884483.5375948
0.81225,0.1165,0.5105,-0.066360496,-0.023697,-0.03854375,1741884483.552129
0.883,-0.08125,0.5035,-0.06773375,-0.013503999,-0.03804025,1741884483.5667489
0.90475,-0.19075,0.50075,-0.06056225,-0.0015105,-0.042678747,1741884483.581357
0.876,-0.3615,0.44975,-0.056305,0.0090637505,-0.038437,1741884483.5958579
0.8395,-0.41375,0.433,-0.046157748,0.03718575,-0.03256225,1741884483.610324
0.70075,-0.50625,0.36625,-0.04039,0.04818725,-0.02943425,1741884483.6249769
0.6135,-0.53225,0.3355,-0.02705375,0.06523125,-0.018890498,1741884483.642449
0.40375,-0.54375,0.26675,-0.018631,0.070877,-0.01582325,1741884483.654088
0.30525,-0.5285,0.24025,-0.00070200005,0.077011004,-0.01463325,1741884483.670091
0.151,-0.459,0.218,0.007431,0.07722475,-0.013854999,1741884483.682945
0.0905,-0.42725,0.21325,0.01425175,0.0767975,-0.0122375,1741884483.699231
0.02375,-0.4065,0.20225,0.02452075,0.076233,-0.0060577504,1741884483.711788
-0.14675,-0.41775,0.16125,0.0288085,0.0743865,-0.0022735,1741884483.7262468
-0.227,-0.41975,0.15,0.0407715,0.06233225,0.00115975,1741884483.742537
-0.338,-0.3425,0.15525,0.0471345,0.052826,0.0020752498,1741884483.755293
-0.38175,-0.28275,0.16675,0.054809503,0.036163248,0.009872501,1741884483.770005
-0.446,-0.15625,0.17825,0.057449248,0.0291595,0.0158385,1741884483.7843552
-0.461,-0.0805,0.1695,0.060897753,0.02153025,0.019927999,1741884483.799656
-0.43925,0.106,0.15875,0.067871004,0.0017395001,0.02029425,1741884483.813188
-0.41125,0.1835,0.16475,0.06855775,-0.0090485,0.01879875,1741884483.8300102
-0.378,0.2455,0.1685,0.06390375,-0.0290375,0.018692,1741884483.8419259
-0.286,0.38725,0.13775,0.059692502,-0.0387115,0.01899725,1741884483.856508
-0.21425,0.48725,0.11375,0.047699,-0.05970775,0.019927999,1741884483.870872
-0.057,0.6835,0.0825,0.039306752,-0.06793225,0.016983,1741884483.885366
-0.01125,0.72125,0.08075,0.021484248,-0.07823175,-0.002655,1741884483.900009
0.0755,0.71075,0.139,0.012207,-0.08392325,-0.012085,1741884483.9142778
0.17075,0.688,0.2195,0.00068675,-0.08969125,-0.017395,1741884483.930104
0.2885,0.66475,0.3095,-0.023101749,-0.089218244,-0.025512751,1741884483.943258
0.47775,0.5475,0.41025,-0.03373725,-0.080429,-0.031433,1741884483.960115
0.5445,0.43175,0.431,-0.050109748,-0.05618275,-0.042678747,1741884483.972459
0.70625,0.22025,0.5175,-0.056244,-0.0503235,-0.045761,1741884483.987038
0.782,0.10675,0.55325,-0.063507,-0.04515075,-0.049804747,1741884484.0015612
0.90775,-0.189,0.56475,-0.064148,-0.03550725,-0.05033875,1741884484.016159
0.9315,-0.3215,0.54275,-0.05915825,-0.0032195,-0.044143748,1741884484.030745
0.868,-0.48975,0.43725,-0.053939752,0.012771499,-0.041153,1741884484.045259
0.79725,-0.548,0.38475,-0.03762825,0.038879503,-0.03904725,1741884484.059998
0.6145,-0.60425,0.28275,-0.026886,0.046997003,-0.03677375,1741884484.074178
0.52025,-0.59225,0.24775,-0.01681525,0.053894002,-0.031692497,1741884484.088647
0.42325,-0.55275,0.22225,-0.001831,0.066543505,-0.016128499,1741884484.103141
0.24675,-0.43175,0.17475,0.004242,0.071106,-0.0099639995,1741884484.1195478
0.17475,-0.3855,0.1555,0.017883249,0.0725555,-0.00935375,1741884484.131951
0.052,-0.3565,0.14325,0.02439875,0.07058725,-0.011031999,1741884484.146432
-0.00375,-0.36875,0.15375,0.034362752,0.0661315,-0.0085602505,1741884484.160932
-0.14325,-0.40975,0.168,0.0390015,0.06283575,-0.0048674997,1741884484.175528
-0.2185,-0.41625,0.1685,0.0499115,0.05101025,0.00541675,1741884484.19245
-0.32,-0.33975,0.19475,0.05622875,0.04261775,0.01083375,1741884484.204534
-0.34725,-0.26675,0.21725,0.06298825,0.0332185,0.013916001,1741884484.2196102
-0.36925,-0.18175,0.2385,0.0756225,0.014267,0.01617425,1741884484.233346
-0.39975,0.02975,0.2485,0.0789795,0.0051574996,0.017974751,1741884484.249685
-0.394,0.14175,0.24075,0.0779725,-0.014160249,0.020034749,1741884484.262173
-0.33975,0.3425,0.214,0.075027496,-0.0243225,0.0178985,1741884484.276551
-0.2995,0.4265,0.18975,0.06207275,-0.04417425,0.015518251,1741884484.2923148
-0.16625,0.57125,0.15225,0.05226125,-0.052826,0.01564025,1741884484.3054101
-0.091,0.64425,0.12625,0.041961752,-0.060806252,0.014587499,1741884484.319809
0.03175,0.762,0.085,0.021026501,-0.07257075,0.0065002497,1741884484.3341599
0.103,0.791,0.11,0.009140001,-0.0772095,0.0005035,1741884484.349806
0.189,0.7925,0.17275,-0.013778751,-0.082611,-0.0168915,1741884484.363036
0.4075,0.7155,0.323,-0.02323925,-0.081192,-0.02854925,1741884484.380296
0.51775,0.63375,0.37875,-0.045807,-0.06266775,-0.045043997,1741884484.39364
0.663,0.41725,0.4385,-0.0589295,-0.047592252,-0.043701246,1741884484.406602
0.705,0.3325,0.46625,-0.07878125,-0.029693501,-0.033203,1741884484.4210718
0.71975,0.1225,0.4965,-0.081512496,-0.027740499,-0.03536975,1741884484.435613
0.71125,-0.03325,0.49725,-0.0786895,-0.026474,-0.04270925,1741884484.450214
0.72525,-0.36825,0.497,-0.071228,-0.00975025,-0.050674498,1741884484.464882
0.723,-0.50775,0.47625,-0.06900025,0.0059510004,-0.044875998,1741884484.480041
0.69925,-0.598,0.43575,-0.054992747,0.03515625,-0.033752497,1741884484.493802
0.5755,-0.6905,0.33675,-0.043472253,0.045105,-0.03300475,1741884484.510387
0.49875,-0.7215,0.301,-0.016983,0.0529175,-0.0319825,1741884484.5228019
0.3495,-0.7215,0.25725,-0.0044250004,0.05574025,-0.02851875,1741884484.5373418
0.26325,-0.6765,0.22475,0.01747125,0.06419375,-0.01419075,1741884484.551693
0.08425,-0.525,0.146,0.02661125,0.0667115,-0.00717175,1741884484.5662248
0.01175,-0.456,0.11475,0.04145825,0.06295775,0.00099175,1741884484.580638
-0.07825,-0.36725,0.1225,0.047821,0.05874625,0.0031585,1741884484.595093
-0.10575,-0.3195,0.16025,0.053177,0.053894002,0.0047912505,1741884484.610317
-0.13,-0.26375,0.20125,0.059616,0.04344175,0.010742251,1741884484.623977
-0.20025,-0.14475,0.2565,0.06192025,0.038269002,0.013046251,1741884484.6383119
-0.24925,-0.089,0.26225,0.0673675,0.025406,0.013488751,1741884484.65293
-0.3305,0.04075,0.249,0.06991575,0.017273001,0.013778751,1741884484.667242
-0.34425,0.12325,0.24525,0.07051075,-0.0014495,0.015594499,1741884484.6817942
-0.32625,0.2795,0.2295,0.06782525,-0.01095575,0.01542675,1741884484.6962402
-0.303,0.339,0.21175,0.06381225,-0.02015675,0.014618,1741884484.710716
-0.23075,0.44425,0.15775,0.05307,-0.037979253,0.0134735005,1741884484.725111
-0.18,0.51425,0.125,0.045776248,-0.04695125,0.012771499,1741884484.739527
-0.1185,0.5885,0.09675,0.0266265,-0.06372075,0.0073242504,1741884484.7540321
0.02025,0.70725,0.06,0.01634225,-0.07023625,0.00131225,1741884484.77028
0.092,0.744,0.06625,-0.00511175,-0.07823175,-0.014434749,1741884484.78278
0.29525,0.7495,0.1675,-0.0164795,-0.07994075,-0.02250675,1741884484.79986
0.425,0.71175,0.24975,-0.0387115,-0.07424925,-0.04093925,1741884484.81182
0.6865,0.48225,0.432,-0.049179003,-0.06365975,-0.04989625,1741884484.826336
0.7715,0.334,0.502,-0.05880725,-0.05099475,-0.053894002,1741884484.841969
0.81875,0.189,0.537,-0.07542425,-0.0312195,-0.04391475,1741884484.855333
0.80525,-0.0895,0.50775,-0.07724,-0.022491502,-0.0385285,1741884484.870347
0.77925,-0.21425,0.4795,-0.06732175,-0.003769,-0.04043575,1741884484.884539
0.7665,-0.441,0.45875,-0.06027225,0.00646975,-0.045043997,1741884484.899651
0.74925,-0.54075,0.44875,-0.04812625,0.0338745,-0.0404815,1741884484.913545
0.636,-0.661,0.4045,-0.041977,0.048874002,-0.03022775,1741884484.930028
0.54975,-0.6675,0.3575,-0.022491502,0.06495675,-0.015625,1741884484.942869
0.35175,-0.5955,0.23975,-0.0106355,0.06767275,-0.014419501,1741884484.9570382
0.25375,-0.541,0.20025,0.0094604995,0.07118225,-0.011734,1741884484.971426
0.091,-0.44775,0.16225,0.017212,0.071167,-0.00791925,1741884484.985894
0.02675,-0.408,0.15075,0.02424625,0.06973275,-0.00372325,1741884485.000334
-0.02875,-0.37025,0.14975,0.03721625,0.0647125,0.0030975002,1741884485.014813
-0.13125,-0.29025,0.17375,0.04296875,0.061386,0.005783,1741884485.0301492
-0.1945,-0.2515,0.1955,0.0519715,0.05245975,0.0110932505,1741884485.043639
-0.31775,-0.19,0.22175,0.0556335,0.04635625,0.014053251,1741884485.0597
-0.36,-0.13925,0.2165,0.06390375,0.032196,0.01876825,1741884485.072526
-0.38025,0.014,0.19875,0.06840525,0.024383498,0.019348249,1741884485.086947
-0.36625,0.10225,0.1915,0.072586,0.0163575,0.01794425,1741884485.1012218
-0.3515,0.18875,0.18075,0.076294,-9.15e-05,0.0123595,1741884485.115751
-0.31,0.345,0.14325,0.07315075,-0.0089569995,0.011627249,1741884485.130163
-0.2725,0.4085,0.11375,0.056900002,-0.026840251,0.018859752,1741884485.1445289
-0.16625,0.5495,0.057,0.048019502,-0.0351715,0.021103,1741884485.160181
-0.115,0.6225,0.03325,0.032394502,-0.05154425,0.012024,1741884485.173315
-0.0265,0.691,0.0455,0.0237275,-0.05896,0.001068,1741884485.187826
0.01725,0.6915,0.073,-0.001007,-0.074585,-0.0233155,1741884485.202292
0.173,0.6065,0.1775,-0.01608275,-0.081955,-0.0308685,1741884485.219469
0.304,0.5485,0.25325,-0.02952575,-0.085785,-0.03468325,1741884485.231303
0.4405,0.50775,0.3215,-0.049514752,-0.073410004,-0.040847752,1741884485.245847
0.66775,0.38625,0.4475,-0.0591125,-0.06185925,-0.043518003,1741884485.26054
0.7505,0.3065,0.49525,-0.07781975,-0.047821,-0.042831503,1741884485.2747562
0.84525,0.05375,0.5115,-0.0830535,-0.044051997,-0.04391475,1741884485.289313
0.86675,-0.101,0.491,-0.07852175,-0.029129,-0.04588325,1741884485.303895
0.89975,-0.3385,0.49475,-0.073028505,-0.0153807495,-0.04628,1741884485.320106
0.87025,-0.433,0.488,-0.0585175,0.01567075,-0.048568748,1741884485.33302
0.703,-0.593,0.39925,-0.05084225,0.0299225,-0.044051997,1741884485.350207
0.59275,-0.61075,0.349,-0.042389,0.0417785,-0.034546003,1741884485.362089
0.36275,-0.5565,0.24275,-0.0240325,0.054535,-0.01693725,1741884485.3765252
0.24875,-0.50775,0.187,-0.014572251,0.057953,-0.013382,1741884485.3930829
0.14975,-0.46075,0.137,0.00148,0.05906675,-0.010299751,1741884485.405458
0.02725,-0.392,0.1015,0.00770575,0.0561675,-0.00845325,1741884485.4199429
-0.00725,-0.3655,0.1055,0.0173645,0.047012247,-0.00354,1741884485.4343119
-0.07525,-0.328,0.12275,0.021103,0.0436555,0.0002135,1741884485.4500082
-0.113,-0.3125,0.131,0.027709998,0.038452253,0.008850001,1741884485.4633548
-0.2045,-0.27,0.15175,0.0319215,0.035903998,0.011917,1741884485.4800682
-0.254,-0.2395,0.1565,0.037048247,0.032669,0.0134735005,1741884485.4925172
-0.30825,-0.1405,0.1385,0.04891975,0.021087749,0.014495751,1741884485.506839
-0.30475,-0.07775,0.1315,0.0542145,0.013031,0.01474,1741884485.521235
-0.2925,-0.0125,0.13675,0.06274425,-0.0031127501,0.014053251,1741884485.536059
-0.26225,0.11525,0.16275,0.065216005,-0.010452249,0.01402275,1741884485.550456
-0.2395,0.16825,0.16875,0.063034,-0.022491502,0.017547501,1741884485.5649762
-0.17475,0.28575,0.13075,0.059616,-0.028183,0.019439751,1741884485.580213
-0.129,0.3725,0.0945,0.05169675,-0.04011525,0.018631,1741884485.5937228
-0.00725,0.544,0.05775,0.04606625,-0.04714975,0.015396,1741884485.610176
0.05725,0.59775,0.06025,0.03860475,-0.05387875,0.010513251,1741884485.622449
0.12025,0.63,0.07125,0.0206605,-0.05982975,-0.00283825,1741884485.636818
0.2455,0.63925,0.11175,0.0115815,-0.05944825,-0.0091095,1741884485.6512089
0.31675,0.64275,0.14225,-0.0068665,-0.056366,-0.0177155,1741884485.665828
0.4725,0.58675,0.22075,-0.017135499,-0.05273425,-0.022995,1741884485.6802619
0.5435,0.51075,0.27625,-0.03427125,-0.04060375,-0.035461497,1741884485.6948102
0.6485,0.36725,0.37725,-0.042511,-0.034317,-0.03648375,1741884485.7100852
0.6725,0.26775,0.3945,-0.06068425,-0.017929,-0.026000999,1741884485.7238379
0.6925,0.04075,0.3795,-0.06510925,-0.01042175,-0.02224725,1741884485.7382789
0.7015,-0.05625,0.3665,-0.06466675,-0.00561525,-0.02278125,1741884485.752901
0.7165,-0.2295,0.367,-0.0555725,0.00555425,-0.031128,1741884485.7673311
0.712,-0.307,0.36925,-0.050033502,0.013992251,-0.033569247,1741884485.781803
0.69725,-0.3855,0.368,-0.0417785,0.0345,-0.02445975,1741884485.796323
0.618,-0.49425,0.33475,-0.03601075,0.0437775,-0.018753,1741884485.810828
0.548,-0.5155,0.30075,-0.018158002,0.056259252,-0.019333,1741884485.825314
0.396,-0.51525,0.26125,-0.008651749,0.060714748,-0.0207215,1741884485.841745
0.31275,-0.485,0.2495,0.0070342496,0.07011425,-0.0159455,1741884485.854219
0.1395,-0.3945,0.21,0.0128632495,0.07386775,-0.011260999,1741884485.869994
0.061,-0.353,0.192,0.01838675,0.0755615,-0.00782775,1741884485.883234
-0.074,-0.28975,0.182,0.03044125,0.0730895,-0.00712575,1741884485.8997061
-0.13975,-0.2605,0.185,0.03645325,0.069793746,-0.00788875,1741884485.912334
-0.203,-0.2335,0.19075,0.0464935,0.0585785,-0.0064545004,1741884485.927074
-0.29875,-0.17475,0.183,0.05055225,0.0512085,-0.00396725,1741884485.942472
-0.32825,-0.127,0.16425,0.05738825,0.036026,0.0003815,1741884485.9558752
-0.3455,0.01525,0.11475,0.060058497,0.027679501,0.00154125,1741884485.970349
-0.34525,0.11025,0.09175,0.063095,0.0071105,-0.00030525,1741884485.984729
-0.322,0.25925,0.04825,0.061996497,-0.00488275,-0.003418,1741884485.9999108
-0.293,0.30475,0.03525,0.053970248,-0.027862499,-0.0039825,1741884486.013808
-0.197,0.4205,0.02075,0.04774475,-0.037857,-0.0015105,1741884486.030068
-0.134,0.48425,0.02225,0.040207002,-0.0468445,0.00057975,1741884486.0428228
-0.06875,0.527,0.0325,0.0226745,-0.060928248,0.00064075,1741884486.059938
0.08125,0.5755,0.08975,0.014358499,-0.0667115,-0.0026092501,1741884486.0717099
0.177,0.58775,0.1275,-0.0037079998,-0.0734405,-0.012146,1741884486.08621
0.3735,0.591,0.193,-0.01408375,-0.0729065,-0.0148315,1741884486.100828
0.47575,0.55,0.2345,-0.03718575,-0.06427,-0.015167249,1741884486.115443
0.68,0.40025,0.3095,-0.046203498,-0.0568695,-0.018341,1741884486.1302242
0.75125,0.31425,0.32475,-0.057662997,-0.044372503,-0.02920525,1741884486.144379
0.8405,0.1355,0.3465,-0.0609435,-0.039688,-0.033722,1741884486.160044
0.87575,0.018,0.3625,-0.06277475,-0.033462502,-0.03689575,1741884486.173364
0.89775,-0.12325,0.37025,-0.06448375,-0.00941475,-0.030853251,1741884486.188031
0.8545,-0.33025,0.3285,-0.0626525,0.00587475,-0.02342225,1741884486.202527
0.797,-0.37825,0.291,-0.051757753,0.02931225,-0.017455999,1741884486.217008
0.64425,-0.41025,0.21,-0.043701246,0.036804248,-0.019439751,1741884486.231528
0.56375,-0.4135,0.17875,-0.027359,0.045776248,-0.0253295,1741884486.2460558
0.3895,-0.44675,0.139,-0.020691,0.049087502,-0.024887,1741884486.2605271
0.30075,-0.4635,0.13075,-0.01065075,0.05717475,-0.01326,1741884486.275041
0.145,-0.45825,0.12175,-0.0048217503,0.058792,-0.009734999,1741884486.2923489
0.0775,-0.45125,0.111,0.0018005001,0.0577545,-0.009262,1741884486.3038778
0.01525,-0.4545,0.11025,0.01490775,0.053604,-0.008590749,1741884486.3196301
-0.10975,-0.4685,0.13975,0.022064252,0.050827,-0.0067445002,1741884486.3329122
-0.17875,-0.46675,0.15175,0.037368752,0.042633,0.000183,1741884486.3496478
-0.292,-0.4025,0.16925,0.04458625,0.036514252,0.0047607496,1741884486.361805
-0.316,-0.342,0.1815,0.058136,0.020172002,0.010162249,1741884486.376226
-0.30175,-0.16675,0.1855,0.0641175,0.010727,0.010879501,1741884486.3920388
-0.265,-0.0625,0.1945,0.071289,-0.0077667497,0.009933501,1741884486.405184
-0.1965,0.126,0.21575,0.072280996,-0.01431275,0.0093385,1741884486.4196858
-0.18025,0.2065,0.20325,0.070984,-0.01823425,0.01092525,1741884486.434185
-0.16275,0.2895,0.1855,0.063384995,-0.027282748,0.01496875,1741884486.448541
-0.1025,0.469,0.12575,0.058609,-0.03506475,0.013733,1741884486.4650419
-0.0385,0.553,0.10525,0.0447845,-0.05210875,0.00782775,1741884486.480258
0.1065,0.6655,0.09075,0.034973253,-0.057846002,0.00413525,1741884486.4929678
0.1565,0.6795,0.091,0.01322925,-0.06124875,-0.00408925,1741884486.506058
0.2495,0.667,0.1185,0.00216675,-0.0603485,-0.007843,1741884486.5203872
0.3035,0.64425,0.1465,-0.0194855,-0.056137,-0.014007499,1741884486.535025
0.4275,0.54825,0.2175,-0.0300445,-0.0529785,-0.016693002,1741884486.550246
0.496,0.4785,0.2535,-0.0394745,-0.048462003,-0.020019501,1741884486.564026
0.56125,0.40675,0.28925,-0.0534515,-0.0387115,-0.028167749,1741884486.580159
0.65575,0.2105,0.3325,-0.059570253,-0.03382875,-0.02958675,1741884486.593222
0.69275,0.105,0.3365,-0.06747425,-0.02088925,-0.0256805,1741884486.610166
0.75,-0.116,0.33325,-0.0677185,-0.012420749,-0.0253295,1741884486.6221309
0.759,-0.21925,0.328,-0.061905,0.0065612504,-0.02919,1741884486.636777
0.73425,-0.413,0.30125,-0.05770875,0.015579251,-0.02882375,1741884486.6513228
0.692,-0.5065,0.27875,-0.046569753,0.0349885,-0.02247625,1741884486.665827
0.55575,-0.61725,0.236,-0.037475497,0.04293825,-0.0206605,1741884486.68034
0.46825,-0.61675,0.21325,-0.0263825,0.04885875,-0.019744748,1741884486.694795
0.3785,-0.58175,0.1905,-0.00505075,0.05836475,-0.014862,1741884486.7104
0.207,-0.46975,0.13975,0.0036315,0.061676,-0.01156625,1741884486.7237859
0.12675,-0.41675,0.11075,0.017746,0.06289675,-0.0059967497,1741884486.738278
0.0105,-0.34625,0.09025,0.023834249,0.061141998,-0.0042115003,1741884486.752704
-0.03275,-0.32575,0.09825,0.036300752,0.05381775,-0.00242625,1741884486.769427
-0.1215,-0.28275,0.1315,0.042251498,0.04954525,-0.00083925005,1741884486.7820601
-0.166,-0.24425,0.1495,0.05258175,0.0390015,0.00460825,1741884486.796434
-0.23325,-0.1305,0.17275,0.057021998,0.03253175,0.00717175,1741884486.810789
-0.2515,-0.0575,0.1785,0.06100475,0.0254365,0.009216251,1741884486.8252249
-0.265,0.024,0.17975,0.06631475,0.010437001,0.010894749,1741884486.8425431
-0.26975,0.18875,0.157,0.0667725,0.00231925,0.01020825,1741884486.853861
-0.25475,0.2535,0.14125,0.0625915,-0.0170135,0.0062407497,1741884486.871109
-0.19225,0.35725,0.1095,0.058838002,-0.027069,0.0036010002,1741884486.883035
-0.1485,0.43025,0.086,0.04623425,-0.043716498,0.0023497501,1741884486.899264
-0.03875,0.5955,0.0455,0.0359345,-0.04930125,0.0029755002,1741884486.911789
0.0075,0.639,0.03875,0.01361075,-0.0592345,-0.00408925,1741884486.926165
0.095,0.63125,0.067,0.0045012496,-0.06484975,-0.01278675,1741884486.940762
0.1715,0.61975,0.10725,-0.0041044997,-0.070098996,-0.02168275,1741884486.955072
0.27625,0.60375,0.16625,-0.0256195,-0.0711975,-0.030716,1741884486.9706979
0.46375,0.52375,0.2595,-0.0382385,-0.06352225,-0.031188998,1741884486.9840379
0.514,0.46,0.271,-0.06045525,-0.04335025,-0.032226503,1741884486.999806
0.5505,0.253,0.276,-0.06770325,-0.03781125,-0.034225497,1741884487.012958
0.57425,0.12325,0.28475,-0.07191475,-0.036987253,-0.042389,1741884487.02972
0.69275,-0.14475,0.34325,-0.07115175,-0.033691503,-0.04473875,1741884487.042063
0.75025,-0.2665,0.379,-0.067977995,-0.01083375,-0.038390998,1741884487.0565891
0.77,-0.43375,0.3865,-0.0644225,0.0038757501,-0.03189075,1741884487.0711749
0.75075,-0.487,0.369,-0.058792,0.01652525,-0.0264435,1741884487.085641
0.72025,-0.537,0.3545,-0.041396998,0.033661,-0.026886,1741884487.100173
0.59625,-0.61675,0.3145,-0.0306855,0.039917,-0.027893,1741884487.114808
0.51025,-0.61325,0.2875,-0.009796251,0.051528998,-0.020279,1741884487.1305711
0.3315,-0.5355,0.23925,-0.001175,0.05641175,-0.014389,1741884487.143869
0.2475,-0.481,0.2185,0.0138855,0.061889753,-0.00720225,1741884487.160197
0.12,-0.38275,0.197,0.02105725,0.061737,-0.00672925,1741884487.1727629
0.06725,-0.354,0.19375,0.034179747,0.058349498,-0.00668325,1741884487.187167
-0.04475,-0.3255,0.2005,0.0395965,0.0562135,-0.0037385002,1741884487.201685
-0.11125,-0.31975,0.2085,0.04408275,0.05381775,0.0017242499,1741884487.216107
-0.175,-0.30625,0.2145,0.05363475,0.04493725,0.01177975,1741884487.230537
-0.24825,-0.22375,0.23,0.06036375,0.037475497,0.012802,1741884487.244952
-0.2575,-0.15675,0.2295,0.0735625,0.020477248,0.0102235,1741884487.2594619
-0.25375,-0.01525,0.216,0.0775605,0.013031,0.0102845,1741884487.273885
-0.25175,0.0665,0.196,0.079651,-0.00010675,0.01150525,1741884487.2883232
-0.23675,0.2695,0.12475,0.077423,-0.0074004997,0.01257325,1741884487.302714
-0.21275,0.38,0.0785,0.06723025,-0.0246125,0.013122501,1741884487.31936
-0.14975,0.56875,0.00125,0.0606995,-0.0343475,0.009445249,1741884487.331605
-0.1045,0.62325,-0.0135,0.05372625,-0.044098,0.0021972498,1741884487.346124
-0.04825,0.65875,-0.019,0.0366515,-0.060791,-0.0136565,1741884487.36078
0.08575,0.7145,0.0075,0.02528375,-0.06533825,-0.0170745,1741884487.375201
0.168,0.71625,0.05025,-0.00163275,-0.0678405,-0.01956175,1741884487.389696
0.33475,0.67125,0.1785,-0.015518251,-0.0651245,-0.022293,1741884487.404236
0.4015,0.60625,0.24625,-0.0453185,-0.050659247,-0.02456675,1741884487.419734
0.46625,0.4405,0.327,-0.05747975,-0.04148875,-0.024231002,1741884487.433183
0.48475,0.34925,0.3495,-0.072647005,-0.029693501,-0.025299,1741884487.449808
0.57,0.1425,0.38025,-0.07637025,-0.02977,-0.0280915,1741884487.462413
0.62925,0.04075,0.3835,-0.07789601,-0.029907249,-0.032318,1741884487.476925
0.7365,-0.15775,0.40725,-0.07746875,-0.017578252,-0.036209,1741884487.492157
0.768,-0.23475,0.421,-0.0754395,-0.0056304997,-0.0341645,1741884487.506047
0.77725,-0.3045,0.41725,-0.068344004,0.0175935,-0.0291595,1741884487.5204659
0.719,-0.47525,0.348,-0.0632325,0.028015248,-0.028473,1741884487.534971
0.65725,-0.5365,0.30875,-0.0473175,0.046203498,-0.030731251,1741884487.549851
0.531,-0.579,0.273,-0.038085997,0.051818747,-0.0312805,1741884487.5640168
0.4505,-0.5695,0.25425,-0.019317752,0.06393425,-0.02610775,1741884487.580022
0.23375,-0.51425,0.1885,-0.0099945,0.06855775,-0.022049,1741884487.5929651
0.122,-0.4725,0.1495,0.0069274995,0.06791675,-0.016235251,1741884487.60959
-0.07775,-0.42475,0.10275,0.013443,0.06422425,-0.013626001,1741884487.621999
-0.17325,-0.432,0.09925,0.019226,0.05912775,-0.010818499,1741884487.636479
-0.264,-0.4415,0.10325,0.03208925,0.0464325,-0.00305175,1741884487.6510148
-0.38725,-0.403,0.12375,0.039215,0.039215,0.0021819999,1741884487.665388
-0.42125,-0.352,0.128,0.05435175,0.02165225,0.01133725,1741884487.6802099
-0.4535,-0.174,0.1175,0.061828498,0.01133725,0.014038,1741884487.694218
-0.447,-0.06325,0.112,0.0706635,-0.010147001,0.01593025,1741884487.710009
-0.41775,0.11925,0.13675,0.071395755,-0.0203095,0.01567075,1741884487.723225
-0.389,0.1935,0.149,0.068161,-0.04040525,0.017028749,1741884487.73764
-0.297,0.33725,0.16,0.0636445,-0.04957575,0.0201875,1741884487.752085
-0.23,0.42275,0.15625,0.057846002,-0.0573425,0.02189625,1741884487.766612
-0.14825,0.5345,0.14975,0.0449065,-0.0743255,0.01791375,1741884487.7810812
0.05375,0.7285,0.178,0.03515625,-0.0816345,0.01330575,1741884487.7955048
0.1605,0.7425,0.22425,0.013153,-0.089035004,-0.0034942501,1741884487.809916
0.382,0.68,0.34475,0.002472,-0.08786,-0.011764499,1741884487.8243608
0.517,0.62525,0.41325,-0.019470248,-0.07495125,-0.02244575,1741884487.841554
0.80125,0.488,0.499,-0.028716998,-0.06587225,-0.0286255,1741884487.853377
0.89275,0.38775,0.49425,-0.044143748,-0.04692075,-0.036514252,1741884487.8698392
0.9525,0.1325,0.471,-0.0507965,-0.033432,-0.03657525,1741884487.882516
0.9335,-0.02275,0.47475,-0.05520625,-0.0192565,-0.03622425,1741884487.8971121
0.8985,-0.1785,0.4655,-0.0532075,0.00369275,-0.0366975,1741884487.9116979
0.904,-0.4025,0.473,-0.04824825,0.015335,-0.035949748,1741884487.92622
0.87725,-0.44275,0.439,-0.0359955,0.03793325,-0.02630625,1741884487.9423292
0.656,-0.46475,0.3035,-0.030426001,0.049514752,-0.019622749,1741884487.955297
0.52075,-0.4755,0.24575,-0.01708975,0.064026,-0.012252751,1741884487.970229
0.33875,-0.476,0.22075,-0.009506251,0.06697075,-0.011139,1741884487.9843972
0.273,-0.47075,0.2275,0.0054932497,0.071411245,-0.009216251,1741884487.999902
0.11375,-0.4425,0.19975,0.012496999,0.0737915,-0.0065765,1741884488.01323
0.031,-0.427,0.17925,0.019042999,0.07495125,-0.00381475,1741884488.0299299
-0.049,-0.4155,0.1645,0.0331115,0.070831254,-0.0033264998,1741884488.042681
-0.193,-0.40575,0.1545,0.03996275,0.066650495,-0.0033570002,1741884488.059926
-0.258,-0.38625,0.1555,0.05134575,0.056244,0.0071409997,1741884488.071378
-0.3625,-0.2665,0.15875,0.056472752,0.04853825,0.01316825,1741884488.0858529
-0.397,-0.179,0.15675,0.067749,0.028656,0.0134735005,1741884488.1004941
-0.411,0.00675,0.1455,0.072158754,0.01753225,0.010727,1741884488.114916
-0.39425,0.09825,0.13975,0.073699996,-0.003891,0.00883475,1741884488.13017
-0.3565,0.26325,0.12,0.070877,-0.013137749,0.009658749,1741884488.143806
-0.33175,0.34475,0.1115,0.06694025,-0.02224725,0.01048275,1741884488.160258
-0.21025,0.5325,0.09,0.05632025,-0.041977,0.009811499,1741884488.17279
-0.12475,0.62225,0.0755,0.048401,-0.0511475,0.006302,1741884488.1872509
-0.0475,0.68025,0.06475,0.02677925,-0.063613996,-0.00520325,1741884488.2019079
0.06675,0.68025,0.091,0.0148315,-0.06747425,-0.00982675,1741884488.216289
0.13525,0.6625,0.1395,-0.007187,-0.07418825,-0.0168305,1741884488.2307498
0.346,0.61375,0.2865,-0.016570998,-0.074005246,-0.022613501,1741884488.245311
0.4315,0.61575,0.32825,-0.037155252,-0.06121825,-0.0319215,1741884488.260139
0.5505,0.53875,0.35775,-0.0499725,-0.050048754,-0.03208925,1741884488.274243
0.57375,0.44575,0.36675,-0.06719975,-0.0306855,-0.039245497,1741884488.2887318
0.60025,0.18775,0.41675,-0.07203675,-0.02848825,-0.043335,1741884488.303329
0.633,0.038,0.4445,-0.07434075,-0.029174749,-0.04537975,1741884488.319634
0.68675,-0.1035,0.471,-0.07061775,-0.022796748,-0.04188525,1741884488.332587
0.80025,-0.3325,0.49375,-0.0671845,-0.011169501,-0.03793325,1741884488.3496802
0.80025,-0.4105,0.46,-0.0596465,0.01879875,-0.029296748,1741884488.361992
0.7165,-0.55125,0.3655,-0.05400075,0.03094475,-0.026122998,1741884488.3764758
0.649,-0.6095,0.32875,-0.03376775,0.047805753,-0.02619925,1741884488.392213
0.47725,-0.6785,0.245,-0.021942249,0.052566502,-0.025421249,1741884488.405483
0.38925,-0.6815,0.2205,-0.000824,0.061432,-0.017868,1741884488.420002
0.17425,-0.6115,0.177,0.00833125,0.066101,-0.01193225,1741884488.434489
0.06475,-0.55175,0.1525,0.016739,0.069397,-0.0063477503,1741884488.4498801
-0.12775,-0.46075,0.1135,0.03215025,0.06690975,-0.00045775,1741884488.463407
-0.2095,-0.43675,0.115,0.03862,0.0624085,0.0025787498,1741884488.4798532
-0.284,-0.41325,0.13,0.049942,0.04971325,0.01228325,1741884488.492488
-0.39575,-0.31,0.16775,0.055724997,0.041320752,0.015442001,1741884488.506947
-0.4225,-0.213,0.17225,0.066681,0.0213775,0.01708975,1741884488.521291
-0.41725,0.0035,0.16375,0.07008351,0.01083375,0.016265752,1741884488.5357802
-0.4055,0.10375,0.1615,0.071792506,-0.008361749,0.012329,1741884488.550302
-0.401,0.29775,0.1425,0.069198504,-0.017654499,0.012267999,1741884488.564696
-0.3755,0.392,0.1395,0.06396475,-0.027587999,0.01412975,1741884488.5799968
-0.32575,0.489,0.13125,0.050125,-0.049850497,0.01171875,1741884488.593385
-0.18425,0.65875,0.097,0.042251498,-0.0610505,0.006073,1741884488.610014
-0.08975,0.7065,0.10025,0.02070625,-0.07867425,-0.0056609996,1741884488.622499
0.1295,0.72325,0.18375,0.008651749,-0.08358775,-0.011901749,1741884488.636984
0.265,0.69125,0.26625,-0.01228325,-0.0825195,-0.02819825,1741884488.651485
0.51875,0.5715,0.39775,-0.021225,-0.07513425,-0.03742975,1741884488.666093
0.636,0.52925,0.427,-0.0417785,-0.054123,-0.04492175,1741884488.68067
0.87425,0.3455,0.50975,-0.052658,-0.0446015,-0.04505925,1741884488.6953778
0.9335,0.17175,0.5275,-0.064621,-0.02981575,-0.048462003,1741884488.710161
0.93175,-0.1415,0.49925,-0.06628425,-0.01693725,-0.04408275,1741884488.724797
0.8995,-0.247,0.4635,-0.066101,-0.0026092501,-0.03569025,1741884488.7425501
0.8655,-0.315,0.41725,-0.05903625,0.0214385,-0.028900249,1741884488.754029
0.7645,-0.4055,0.3415,-0.05334475,0.03291325,-0.030578502,1741884488.770081
0.6825,-0.4375,0.309,-0.041275002,0.0511475,-0.02796925,1741884488.783029
0.49975,-0.4825,0.278,-0.034958,0.05764775,-0.024536248,1741884488.799705
0.4085,-0.49425,0.259,-0.0187225,0.065857,-0.018692,1741884488.812072
0.2315,-0.4825,0.2055,-0.0099639995,0.06864925,-0.016235251,1741884488.826658
0.1515,-0.472,0.1865,0.0056915004,0.07080075,-0.01310725,1741884488.842582
0.01475,-0.46,0.16225,0.013183501,0.06947325,-0.011627249,1741884488.855595
-0.04275,-0.4545,0.168,0.027359,0.06558225,-0.0067597497,1741884488.870121
-0.2075,-0.46125,0.19925,0.033661,0.0634155,-0.00263975,1741884488.884716
-0.30075,-0.46325,0.20775,0.03984075,0.059494,0.0036010002,1741884488.899424
-0.37175,-0.42525,0.214,0.054992747,0.042419497,0.016296498,1741884488.913606
-0.43325,-0.237,0.21225,0.06280525,0.03120425,0.01940925,1741884488.930017
-0.437,-0.13075,0.202,0.07440175,0.009734999,0.02034,1741884488.942492
-0.405,0.111,0.184,0.07728575,-0.0002135,0.019226,1741884488.9569678
-0.3835,0.21275,0.17325,0.07345575,-0.017028749,0.018859752,1741884488.9713721
-0.33225,0.38675,0.13825,0.069503754,-0.024582,0.019287001,1741884488.985876
-0.27725,0.49525,0.10475,0.05789175,-0.042663503,0.01791375,1741884489.000303
-0.117,0.67,0.049,0.049621496,-0.05229175,0.012771499,1741884489.0149062
-0.04075,0.72125,0.043,0.040802,-0.06118775,0.0043944996,1741884489.030176
0.03225,0.744,0.066,0.01800525,-0.072753996,-0.01222225,1741884489.043896
0.191,0.67575,0.17525,0.00460825,-0.07598875,-0.017654499,1741884489.0595899
0.3025,0.606,0.254,-0.016296498,-0.0750885,-0.028778,1741884489.072744
0.4885,0.56,0.316,-0.02575675,-0.0680695,-0.03111275,1741884489.087244
0.55325,0.54475,0.30725,-0.04800425,-0.046569753,-0.03144825,1741884489.10178
0.6415,0.42225,0.30875,-0.056656,-0.0399475,-0.036972,1741884489.1163242
0.68975,0.309,0.34925,-0.07058725,-0.037048247,-0.04393,1741884489.1309912
0.776,-0.0105,0.4375,-0.07554625,-0.030914249,-0.040268,1741884489.145566
0.781,-0.16475,0.44275,-0.07719425,-0.0195465,-0.03344725,1741884489.160186
0.792,-0.294,0.4465,-0.068283,0.0032195,-0.032013,1741884489.174685
0.792,-0.478,0.4225,-0.059082,0.012420749,-0.03822325,1741884489.1891909
0.74375,-0.555,0.3845,-0.04220575,0.03572075,-0.033615,1741884489.203661
0.606,-0.645,0.31725,-0.033554003,0.04562375,-0.026977502,1741884489.2193532
0.52525,-0.65625,0.28825,-0.013000499,0.054931752,-0.02029425,1741884489.2328691
0.3355,-0.602,0.24225,-0.0025787498,0.059845,-0.01766975,1741884489.249747
0.23375,-0.55475,0.217,0.01570125,0.0667115,-0.0123442495,1741884489.261777
0.06775,-0.466,0.17975,0.023376498,0.067214996,-0.00941475,1741884489.276167
0.005,-0.4205,0.1775,0.03059375,0.066070504,-0.006607,1741884489.2924852
-0.056,-0.3775,0.18525,0.042831503,0.060974,-0.00074775,1741884489.305174
-0.19,-0.3235,0.22325,0.04751575,0.057541,0.00369275,1741884489.319652
-0.26375,-0.28925,0.24225,0.057662997,0.046341,0.01077275,1741884489.334056
-0.389,-0.1585,0.2475,0.06318675,0.03807075,0.0133667495,1741884489.349835
-0.41875,-0.05725,0.23025,0.0726775,0.018463248,0.0139465,1741884489.362975
-0.418,0.16875,0.176,0.07504275,0.00773625,0.0106355,1741884489.379929
-0.393,0.25525,0.15375,0.0724335,-0.013854999,0.0021515,1741884489.392205
-0.31025,0.40025,0.11225,0.06707775,-0.02351375,0.00131225,1741884489.4060102
-0.24925,0.47025,0.08575,0.059097253,-0.0318145,0.00292975,1741884489.420334
-0.18525,0.55075,0.0515,0.040420502,-0.0475005,0.0028535,1741884489.434958
-0.07125,0.67125,0.00525,0.03012075,-0.056274503,-0.00077825,1741884489.4498
-0.01275,0.67575,0.024,0.007599,-0.073104754,-0.012375,1741884489.463957
0.15975,0.5955,0.144,-0.0029755002,-0.0785065,-0.01905825,1741884489.4800708
0.26825,0.54975,0.22,-0.019134501,-0.07832325,-0.03227225,1741884489.493048
0.483,0.47325,0.3285,-0.027984502,-0.072265506,-0.035446253,1741884489.510029
0.59275,0.402,0.36325,-0.045776248,-0.05319225,-0.041092,1741884489.521952
0.77225,0.231,0.39525,-0.05296325,-0.045898497,-0.043991,1741884489.536343
0.824,0.126,0.40075,-0.06004325,-0.0396575,-0.042648252,1741884489.550976
0.83075,0.0245,0.37925,-0.065689005,-0.01918025,-0.039154,1741884489.56537
0.789,-0.16325,0.3245,-0.065032996,-0.0072175004,-0.038498,1741884489.58034
0.79,-0.25575,0.31075,-0.06130975,0.013488751,-0.031952,1741884489.594639
0.74925,-0.3835,0.298,-0.05805975,0.026413,-0.026291,1741884489.610296
0.68675,-0.42975,0.286,-0.047592252,0.04562375,-0.020584,1741884489.623646
0.55325,-0.503,0.2795,-0.03993225,0.05030825,-0.0209655,1741884489.638175
0.49925,-0.5295,0.28775,-0.022369498,0.055694498,-0.021041749,1741884489.652652
0.36575,-0.5935,0.294,-0.013641249,0.059021,-0.01893625,1741884489.6673868
0.28425,-0.6075,0.278,0.004303,0.06428525,-0.011321999,1741884489.6819148
0.13125,-0.5405,0.2375,0.0129395,0.06561275,-0.0078735,1741884489.696296
0.04625,-0.48825,0.21975,0.02076725,0.066070504,-0.00511175,1741884489.710911
-0.04275,-0.448,0.20975,0.033722,0.06399525,-0.0012665,1741884489.725455
-0.217,-0.43275,0.21975,0.039566003,0.06015025,0.000946,1741884489.742466
-0.29875,-0.41075,0.21575,0.05220025,0.04821775,0.010727,1741884489.7543712
-0.41575,-0.26875,0.17575,0.058136,0.0405425,0.016723748,1741884489.769989
-0.42475,-0.16725,0.16075,0.06726075,0.01976025,0.0190735,1741884489.783293
-0.363,0.001,0.16575,0.0696105,0.00794975,0.01605225,1741884489.799677
-0.32675,0.056,0.175,0.070449755,-0.011550999,0.014068499,1741884489.8120818
-0.28,0.20575,0.17075,0.069702245,-0.018219,0.015854,1741884489.826545
-0.26625,0.306,0.1355,0.06808475,-0.023697,0.01800525,1741884489.8416588
-0.23725,0.42825,0.09375,0.06054675,-0.0382385,0.014709501,1741884489.855374
-0.1085,0.6695,0.02725,0.054123,-0.048446752,0.0074920002,1741884489.8699782
-0.034,0.74,0.01625,0.033249002,-0.066391,-0.0077515002,1741884489.884479
0.12075,0.7535,0.072,0.019195499,-0.07244875,-0.0116425,1741884489.8997371
0.21475,0.69475,0.1415,-0.00611875,-0.075027496,-0.01832575,1741884489.913449
0.41775,0.566,0.277,-0.014862,-0.071579,-0.02301025,1741884489.930193
0.4965,0.5295,0.31125,-0.031021,-0.056778,-0.03129575,1741884489.942456
0.59925,0.4205,0.33825,-0.03987125,-0.047699,-0.034835752,1741884489.9569511
0.64125,0.32175,0.359,-0.048462003,-0.039978,-0.03712475,1741884489.9714549
0.67225,0.20675,0.36925,-0.0628205,-0.02851875,-0.030365,1741884489.985866
0.6785,0.01875,0.3305,-0.06634525,-0.021484248,-0.0239715,1741884490.000361
0.6935,-0.0475,0.3195,-0.06419375,-0.008255,-0.020355249,1741884490.0149288
0.76025,-0.1695,0.324,-0.059433,-0.00231925,-0.026855499,1741884490.030134
0.75875,-0.257,0.314,-0.048706003,0.01330575,-0.04043575,1741884490.04405
0.70525,-0.46525,0.30175,-0.0451355,0.024231002,-0.03607175,1741884490.06011
0.65475,-0.53675,0.29075,-0.0351715,0.043075502,-0.015686,1741884490.073086
0.55725,-0.598,0.26175,-0.025665252,0.04653925,-0.013992251,1741884490.0876422
0.49225,-0.616,0.2485,-0.014923001,0.04954525,-0.01622,1741884490.102155
0.408,-0.62725,0.2345,0.00320425,0.0609895,-0.011749251,1741884490.1165388
0.21625,-0.579,0.2075,0.01054375,0.06663524,-0.0056,1741884490.1309812
0.1135,-0.5295,0.19175,0.023758,0.07095325,0.0031127501,1741884490.1453419
-0.0725,-0.45775,0.187,0.030655,0.06965625,0.00408925,1741884490.1604
-0.1575,-0.4385,0.19825,0.045227002,0.061264,0.0044250004,1741884490.174356
-0.33075,-0.384,0.223,0.0520935,0.0552825,0.0062865,1741884490.1916952
-0.41275,-0.3345,0.2405,0.0654755,0.03939825,0.01013175,1741884490.2032661
-0.51525,-0.17025,0.262,0.071579,0.029129,0.010666001,1741884490.21959
-0.52425,-0.049,0.25,0.0763245,0.017883249,0.01019275,1741884490.2322052
-0.5075,0.0775,0.235,0.079223745,-0.0050202496,0.0069274995,1741884490.246523
-0.45025,0.2785,0.20975,0.077865504,-0.0157775,0.00505075,1741884490.2609448
-0.40275,0.355,0.2005,0.0706635,-0.037963748,0.00213625,1741884490.275361
-0.257,0.525,0.14325,0.06431575,-0.04837025,0.002365,1741884490.291669
-0.16,0.63975,0.116,0.045944247,-0.067031756,-0.00125125,1741884490.304341
0.043,0.83,0.11425,0.034027,-0.07489025,-0.00712575,1741884490.3194308
0.1285,0.842,0.1505,0.00637825,-0.084137,-0.019027751,1741884490.3332548
0.3635,0.74275,0.32875,-0.0061035,-0.08572375,-0.02513125,1741884490.349738
0.5125,0.6575,0.429,-0.01728825,-0.08338925,-0.032486,1741884490.362317
0.6385,0.55125,0.48675,-0.0399475,-0.059738252,-0.042663503,1741884490.376956
0.781,0.3945,0.46725,-0.0518035,-0.04438775,-0.04122925,1741884490.391723
0.757,0.353,0.40675,-0.07244875,-0.02737425,-0.03338625,1741884490.405919
0.62125,0.189,0.34625,-0.077179,-0.02592475,-0.037506,1741884490.4204302
0.6005,0.034,0.368,-0.07772825,-0.0187835,-0.056778,1741884490.434871
0.64275,-0.384,0.38825,-0.07478325,-0.011810251,-0.062530495,1741884490.4500952
0.6655,-0.5575,0.3665,-0.06570425,0.01402275,-0.050277747,1741884490.4639628
0.62425,-0.6955,0.29625,-0.060852002,0.027649,-0.03268425,1741884490.4800189
0.56125,-0.6935,0.2665,-0.053009,0.03636175,-0.01997375,1741884490.492967
0.49625,-0.70975,0.242,-0.02867125,0.0375825,-0.022766002,1741884490.510203
0.44075,-0.8025,0.25475,-0.0178375,0.038955748,-0.021514999,1741884490.5221481
0.4085,-0.79275,0.27575,-0.0001525,0.054138247,-0.00343325,1741884490.5366468
0.26225,-0.63875,0.269,0.0090485,0.062255748,0.003952,1741884490.550993
0.181,-0.5555,0.25125,0.02677925,0.069122255,0.00962825,1741884490.565439
