acc_x,acc_y,acc_z,gyro_x,gyro_y,gyro_z,timestamp
-0.08525,-0.02775,0.23525,-0.00083925005,-0.003662,-0.00057975,1741884835.4436119
-0.0895,-0.02475,0.23625,-0.000763,-0.0036315,-0.0003815,1741884835.457485
-0.09075,-0.023,0.23625,-0.001007,-0.00367725,-0.00019825,1741884835.471904
-0.09375,-0.023,0.23375,-0.0011445,-0.00369275,-0.00042725,1741884835.4866052
-0.09425,-0.0245,0.23325,-0.001007,-0.0037079998,-0.001007,1741884835.501257
-0.09525,-0.02575,0.23475,-0.00068675,-0.00372325,-0.0011445,1741884835.515949
-0.09475,-0.02625,0.23625,-0.00033575002,-0.0037537501,-0.001175,1741884835.5305989
-0.09425,-0.027,0.2375,-0.00019825,-0.00358575,-0.0008545,1741884835.5452821
-0.0945,-0.027,0.23675,-0.00036625,-0.00343325,-0.00067150005,1741884835.559922
-0.09425,-0.0265,0.23575,-0.00051875,-0.0030975002,-0.00065625,1741884835.5745852
-0.094,-0.02425,0.232,-0.00051875,-0.0029907501,-0.00068675,1741884835.5897448
-0.09525,-0.02325,0.22925,-0.000473,-0.0031127501,-0.0009765,1741884835.603942
-0.0995,-0.022,0.224,-0.0002595,-0.00334175,-0.001236,1741884835.618839
-0.101,-0.02125,0.22225,0.0002135,-0.0043944996,-0.001709,1741884835.633209
-0.1015,-0.01525,0.22525,0.00030525,-0.00511175,-0.0019989999,1741884835.6487281
-0.10075,-0.0115,0.233,-0.00042725,-0.0063477503,-0.00302125,1741884835.6623812
-0.1045,-0.022,0.277,-0.0012970001,-0.0062407497,-0.0035704998,1741884835.6786811
-0.10425,-0.049,0.346,-0.00364675,-0.0003815,-0.0008545,1741884835.691884
-0.11925,-0.11075,0.58725,-0.004074,0.008133001,0.0042115003,1741884835.7064278
-0.136,-0.11,0.742,-0.00254825,0.02212525,0.0102845,1741884835.720907
-0.17525,-0.048,0.98075,0.0070647504,0.06758125,0.011901749,1741884835.7353458
-0.20475,-0.04875,1.0,0.0111085,0.099716246,0.00520325,1741884835.74977
-0.25525,-0.08825,1.0,0.016723748,0.17907725,-0.0062407497,1741884835.764297
-0.424,-0.11775,0.8755,0.022232,0.21449275,-0.003891,1741884835.779104
-0.52525,-0.0575,0.75225,0.036316004,0.25251776,0.00874325,1741884835.79322
-0.6995,-0.00725,0.349,0.040710498,0.25830075,0.01445,1741884835.809037
-0.70225,-0.02025,0.0905,0.044433497,0.246048,0.028473,1741884835.822027
-0.54825,0.00875,-0.41075,0.045456,0.22521976,0.0382995,1741884835.836402
-0.43575,0.091,-0.61225,0.042801,0.19458,0.047622748,1741884835.850812
-0.33875,0.19,-0.73625,0.016876249,0.1075745,0.0526275,1741884835.865361
-0.21075,0.27775,-0.67875,0.000824,0.06056225,0.043335,1741884835.8798091
-0.11925,0.26725,-0.50175,-0.012741,-0.0037995,0.00767525,1741884835.894322
0.06025,0.168,-0.16175,-0.008727999,-0.01805125,-0.00935375,1741884835.9092932
0.124,0.09125,-0.077,-0.00024425,-0.03044125,-0.026947001,1741884835.92351
0.23175,-0.02825,0.04025,-0.001892,-0.034225497,-0.02690125,1741884835.937985
0.27325,-0.0515,0.08225,-0.00912475,-0.03718575,-0.01747125,1741884835.952586
0.2965,-0.07,0.0775,-0.0114135,-0.03512575,-0.0133667495,1741884835.969068
0.29,-0.072,0.0705,-0.01206975,-0.032013,-0.00891125,1741884835.9818099
0.26225,-0.05875,0.0825,-0.0099639995,-0.03170775,-0.008788999,1741884835.996381
0.24925,-0.06475,0.084,-0.0064239996,-0.03138725,-0.010253999,1741884836.011101
0.24,-0.078,0.082,-0.00148,-0.03408825,-0.01148975,1741884836.025721
0.23425,-0.08975,0.09875,-0.0029449998,-0.03494275,-0.0090637505,1741884836.0405781
0.22775,-0.07975,0.0895,-0.00747675,-0.03028875,-0.00216675,1741884836.054836
0.20025,-0.04175,0.057,-0.00830075,-0.03070075,-0.00045775,1741884836.0695071
0.19575,-0.028,0.06225,-0.00399775,-0.033462502,-0.0003205,1741884836.084
0.18225,-0.012,0.08125,-0.00090025004,-0.0345,-0.0016632499,1741884836.0988002
0.176,-0.01625,0.0955,0.00163275,-0.036438,-0.00514225,1741884836.1130939
0.16875,-0.04475,0.1115,0.0022277501,-0.03668225,-0.0060882503,1741884836.12928
0.1645,-0.05725,0.1195,0.003418,-0.040985,-0.00738525,1741884836.14207
0.162,-0.085,0.15025,0.004074,-0.04420475,-0.0076295,1741884836.156661
0.1645,-0.0865,0.1685,0.004074,-0.046112,-0.007309,1741884836.1711402
0.16575,-0.07475,0.185,-0.00029,-0.043289248,-0.00538625,1741884836.185788
0.1485,-0.0495,0.189,-0.0031585,-0.040649503,-0.0044707498,1741884836.20049
0.13975,-0.04775,0.17375,-0.0052795,-0.04164125,-0.0048217503,1741884836.215064
0.115,-0.05575,0.152,-0.00343325,-0.045456,-0.00546275,1741884836.2296581
0.103,-0.07125,0.15375,-0.00024425,-0.054123,-0.0048979996,1741884836.244271
0.096,-0.09975,0.2065,-0.001709,-0.0563965,-0.0036010002,1741884836.258904
0.09725,-0.09975,0.2395,-0.004074,-0.0540925,-0.001709,1741884836.273515
0.08525,-0.0765,0.255,-0.0030975002,-0.051330503,-0.002411,1741884836.2900732
0.07525,-0.0635,0.2395,0.0018005001,-0.050231997,-0.0062712496,1741884836.302579
0.04175,-0.04575,0.20375,0.0049590003,-0.05284125,-0.0081635,1741884836.319047
0.0205,-0.03975,0.1945,0.0068055,-0.05662525,-0.009674,1741884836.331577
0.005,-0.03725,0.19925,0.0017395001,-0.063568,-0.01127625,1741884836.34608
-0.0165,-0.0445,0.2395,-0.0039215,-0.06425475,-0.010437001,1741884836.360692
-0.029,-0.05175,0.24975,-0.009552,-0.06106575,-0.007782,1741884836.37537
-0.05575,-0.069,0.26075,-0.009262,-0.06172175,-0.00903325,1741884836.390305
-0.07025,-0.07525,0.26825,-0.01013175,-0.07427975,-0.014923001,1741884836.404693
-0.11325,-0.06725,0.29325,-0.011627249,-0.08180226,-0.01690675,1741884836.419362
-0.122,-0.052,0.32325,-0.0149535,-0.08421325,-0.017120251,1741884836.434035
-0.07075,-0.07875,0.529,-0.01548775,-0.0771485,-0.01617425,1741884836.4494112
0.01225,-0.133,0.73675,-0.01708975,-0.044464,-0.0067597497,1741884836.4633129
0.157,-0.14,1.0,-0.015533499,-0.0135345,0.004303,1741884836.4792562
0.097,-0.08425,1.0,-0.0077515002,0.02896125,0.016861,1741884836.492295
-0.0485,-0.0495,1.0,0.01519775,0.12409975,0.028854249,1741884836.506751
-0.325,-0.12025,0.978,0.01867675,0.166275,0.024932751,1741884836.521111
-0.4495,-0.127,0.93725,0.01127625,0.2444,0.01086425,1741884836.535615
-0.6475,-0.05225,0.79275,0.013717749,0.27021798,0.0065002497,1741884836.5500019
-0.73525,-0.05,0.64475,0.024887,0.276764,0.0110015,1741884836.564502
-0.76575,-0.06975,0.10875,0.02923575,0.262558,0.017501751,1741884836.57888
-0.67575,-0.04125,-0.23675,0.02772525,0.20010374,0.0278015,1741884836.593357
-0.3935,0.119,-0.73125,0.022171,0.1528015,0.0291595,1741884836.6095219
-0.29825,0.17525,-0.75125,0.016098,0.10334775,0.028656,1741884836.6223
-0.22775,0.1895,-0.65325,-4.575e-05,0.02996825,0.018753,1741884836.6369002
-0.07675,0.1355,-0.34725,-0.005249,0.0093995,0.0090637505,1741884836.651427
-0.0095,0.085,-0.23925,-0.0023345,-0.0166625,-0.009734999,1741884836.666059
0.12475,-0.01,-0.0815,-0.00093075,-0.0267945,-0.01531975,1741884836.680806
0.19825,-0.0405,0.00275,-0.0028687501,-0.0355225,-0.0159455,1741884836.6953962
0.2925,-0.0835,0.09275,-0.00579825,-0.0325775,-0.0126495,1741884836.710457
0.30625,-0.09,0.093,-0.01019275,-0.022369498,-0.00579825,1741884836.724492
0.2875,-0.0885,0.05725,-0.009643501,-0.019195499,-0.0042725,1741884836.741418
0.27025,-0.088,0.038,-0.007599,-0.01817325,-0.00213625,1741884836.753713
0.2415,-0.063,0.0175,-0.0077515002,-0.01867675,-4.575e-05,1741884836.770006
0.23275,-0.04025,0.0145,-0.008712751,-0.019348249,0.001587,1741884836.782781
0.2295,-0.03,0.015,-0.010253999,-0.023285,0.0023497501,1741884836.799362
0.20625,-0.0335,0.005,-0.01083375,-0.0273895,0.00251775,1741884836.811878
0.19575,-0.03225,0.01075,-0.008712751,-0.0355835,0.0010375,1741884836.826346
0.178,-0.02,0.01875,-0.005539,-0.0398865,-0.00093075,1741884836.8408709
0.166,-0.01475,0.01925,-0.00071725,-0.048568748,-0.0043182503,1741884836.855492
0.153,-0.014,0.0455,0.0,-0.05122375,-0.00590525,1741884836.869973
0.15725,-0.02075,0.07225,-0.00086975005,-0.05122375,-0.008026,1741884836.8845649
0.15725,-0.05475,0.11075,-0.0029145,-0.049636748,-0.0069885002,1741884836.8991659
0.156,-0.06575,0.11775,-0.008209251,-0.04989625,-0.00231925,1741884836.913727
0.159,-0.064,0.144,-0.008727999,-0.051498502,-0.000946,1741884836.929369
0.1575,-0.06375,0.15975,-0.007431,-0.052688498,-0.00042725,1741884836.942913
0.152,-0.05825,0.17475,-0.00328075,-0.051925752,-0.00112925,1741884836.959636
0.14425,-0.03825,0.204,-0.0023497501,-0.050674498,-0.0019989999,1741884836.9719949
0.13675,-0.03425,0.20725,-0.0016175,-0.04859925,-0.0021819999,1741884836.98661
0.111,-0.05125,0.19775,-0.0004425,-0.049087502,-0.001831,1741884837.0012732
0.103,-0.057,0.20125,0.00062550005,-0.0516815,-0.0012817499,1741884837.015797
0.09175,-0.05375,0.22275,6.1000002e-05,-0.05233775,-0.0015105,1741884837.0303879
0.08375,-0.052,0.2375,-0.000229,-0.05336,-0.0049742498,1741884837.044943
0.07025,-0.0415,0.2495,0.00042725,-0.053680502,-0.0070495,1741884837.0594208
0.0595,-0.04175,0.24625,0.00157175,-0.0542145,-0.008270251,1741884837.07391
0.019,-0.05925,0.23425,0.00254825,-0.058898997,-0.0077972496,1741884837.0907469
-0.0025,-0.0645,0.22825,0.0020752498,-0.06283575,-0.0074615004,1741884837.102975
-0.024,-0.064,0.22625,0.00109875,-0.07099925,-0.0070647504,1741884837.119869
-0.0585,-0.06175,0.24825,0.0012207499,-0.07456975,-0.0068969997,1741884837.132124
-0.06525,-0.0725,0.2735,0.0007325,-0.080169745,-0.008850001,1741884837.1493351
-0.0655,-0.075,0.33275,-0.000473,-0.0811005,-0.01098625,1741884837.161372
-0.073,-0.05875,0.3565,-0.0034790002,-0.07801825,-0.01481625,1741884837.1761122
-0.089,-0.026,0.39325,-0.0067597497,-0.07475275,-0.0154115,1741884837.191366
-0.07725,-0.0315,0.432,-0.01921075,-0.061996497,-0.0116425,1741884837.2055612
-0.00275,-0.139,0.6965,-0.024947999,-0.050644003,-0.00717175,1741884837.2202911
0.07875,-0.16475,0.8965,-0.0216675,-0.00617975,0.008209251,1741884837.2348921
0.0985,-0.0645,1.0,-0.0057677496,0.03179925,0.016570998,1741884837.249876
-0.0245,-0.02125,1.0,0.01345825,0.0763245,0.021881001,1741884837.263732
-0.16575,-0.00275,0.999,0.025421249,0.16470325,0.01380925,1741884837.279493
-0.40375,-0.04825,0.978,0.0185395,0.205307,0.00494375,1741884837.2926111
-0.49925,-0.08475,0.93875,0.01171875,0.26339725,0.00372325,1741884837.309823
-0.70575,-0.12425,0.6795,0.01708975,0.27249148,0.008667,1741884837.32153
-0.755,-0.08875,0.432,0.033661,0.25589,0.01841725,1741884837.3358889
-0.64375,-0.064,-0.127,0.034911998,0.234314,0.0243225,1741884837.35039
-0.55775,-0.06375,-0.38425,0.02177425,0.169052,0.042724498,1741884837.36501
-0.44325,0.0325,-0.6945,0.014038,0.12925725,0.04830925,1741884837.379717
-0.3755,0.09775,-0.6915,0.006546,0.08990475,0.046997003,1741884837.393893
-0.28725,0.1535,-0.60275,-0.0043944996,0.02601625,0.0263825,1741884837.4098518
-0.0955,0.163,-0.33125,-0.0045012496,0.0030975002,0.012252751,1741884837.4228852
-0.013,0.1315,-0.23525,-0.0002135,-0.02832025,-0.010528499,1741884837.43762
0.14825,0.04125,-0.0765,-9.15e-05,-0.03942875,-0.01708975,1741884837.452173
0.22375,0.0035,0.0115,-0.0042725,-0.047012247,-0.018631,1741884837.4667351
0.31625,-0.039,0.124,-0.00712575,-0.043075502,-0.014557,1741884837.481271
0.32275,-0.05825,0.1205,-0.010666001,-0.02896125,-0.00621025,1741884837.49589
0.3035,-0.06875,0.0645,-0.011856,-0.024658252,-0.004013,1741884837.51048
0.2875,-0.065,0.04575,-0.012756251,-0.02433775,-0.0022277501,1741884837.525114
0.26975,-0.08225,0.059,-0.0136565,-0.0306855,-0.00059500005,1741884837.541217
0.2685,-0.08475,0.0835,-0.013031,-0.0317535,0.00112925,1741884837.5541918
0.26275,-0.06625,0.0955,-0.009674,-0.025711,0.00637825,1741884837.56999
0.22625,-0.01325,0.06425,-0.01019275,-0.0273285,0.006775,1741884837.5831559
0.22525,-0.005,0.0715,-0.0040435,-0.031570498,0.0025787498,1741884837.5997481
0.19675,-0.00675,0.06025,0.00228875,-0.03152475,-0.00201425,1741884837.6121778
0.184,-0.004,0.04425,0.00567625,-0.03825375,-0.008926501,1741884837.626606
0.18125,-0.00675,0.05025,0.0047455,-0.03952025,-0.008484,1741884837.641113
0.16925,-0.012,0.05875,-0.000824,-0.03904725,-0.002884,1741884837.655731
0.1495,-0.02625,0.06475,-0.0048065,-0.04211425,-0.0002595,1741884837.670251
0.14325,-0.033,0.0715,-0.0073547503,-0.047057997,0.00064075,1741884837.684763
0.14325,-0.03525,0.0855,-0.0060272496,-0.05564875,-0.002472,1741884837.6994848
0.13975,-0.024,0.133,-0.0039215,-0.05532825,-0.00367725,1741884837.714118
0.12525,-0.02025,0.15025,0.0001525,-0.046112,-0.0023345,1741884837.729045
0.1325,-0.05075,0.16825,0.00245675,-0.042785753,-0.00149525,1741884837.7432032
0.14325,-0.05625,0.198,0.00283825,-0.0447235,-0.0018615,1741884837.759596
0.13475,-0.0275,0.2325,-0.00048825,-0.0451355,-0.0016785001,1741884837.7722602
0.1185,-0.02025,0.224,-0.0077515002,-0.04644775,-0.00131225,1741884837.7868679
0.08225,-0.031,0.18475,-0.008514499,-0.0508575,-0.00108325,1741884837.801465
0.0645,-0.03975,0.17325,-0.0051269997,-0.06192025,4.575e-05,1741884837.815978
0.0315,-0.04925,0.191,-0.0021057501,-0.06643675,-0.001709,1741884837.830506
0.02775,-0.042,0.2235,0.001175,-0.07003775,-0.0052795,1741884837.844922
0.0335,-0.0295,0.2665,0.0072175004,-0.071106,-0.0102235,1741884837.860299
0.04425,-0.032,0.331,0.0088195,-0.06976325,-0.009811499,1741884837.8739462
0.028,-0.03825,0.334,0.00381475,-0.06918325,-0.008285499,1741884837.888352
-0.005,-0.0485,0.313,-0.001587,-0.069229245,-0.00643925,1741884837.902952
-0.021,-0.048,0.3055,-0.008194,-0.0700225,-0.0033570002,1741884837.9196138
-0.04925,-0.0535,0.30275,-0.0065612504,-0.07086175,-0.0045777503,1741884837.932214
-0.054,-0.05675,0.3085,0.00042725,-0.069458,-0.01048275,1741884837.946901
-0.03725,-0.03325,0.35475,0.0025025,-0.06457525,-0.012054499,1741884837.961466
-0.0365,-0.0135,0.38925,0.00302125,-0.056686502,-0.011825499,1741884837.975976
-0.063,-0.0105,0.4605,-0.00169375,-0.03987125,-0.0104674995,1741884837.9913862
-0.06125,-0.03025,0.50925,-0.006607,-0.0329895,-0.009262,1741884838.005352
-0.038,-0.06675,0.58,-0.015808,-0.014785751,-0.00068675,1741884838.0200288
0.03225,-0.15475,0.77475,-0.015533499,0.0002135,0.0049895,1741884838.034464
0.06775,-0.14625,0.86625,0.0050812503,0.04724125,0.012909001,1741884838.049917
-0.016,-0.01425,0.923,0.02098075,0.07560725,0.01361075,1741884838.0632892
-0.08875,0.02775,0.92925,0.028366,0.13290401,0.008636501,1741884838.079465
-0.18075,-0.0495,0.96225,0.019927999,0.1629485,0.0111085,1741884838.092042
-0.27175,-0.13275,0.96425,0.010101249,0.22366326,0.02354425,1741884838.106485
-0.56425,-0.14825,0.877,0.010147001,0.24800101,0.02015675,1741884838.120953
-0.7315,-0.0995,0.71125,0.013931249,0.26324475,0.011016751,1741884838.135366
-0.85025,-0.073,0.44525,0.018814,0.256958,0.00030525,1741884838.149778
-0.8295,-0.06225,-0.254,0.01582325,0.2368775,0.0043335,1741884838.164407
-0.72675,-0.00575,-0.527,0.0106355,0.17555225,0.02604675,1741884838.1797178
-0.44625,0.15525,-0.8065,0.009155249,0.134369,0.034484748,1741884838.1934679
-0.3395,0.179,-0.79225,0.0010375,0.04208375,0.028747499,1741884838.209589
-0.184,0.17325,-0.47025,-4.575e-05,0.00267025,0.017425502,1741884838.22239
-0.07225,0.14575,-0.28475,0.00279225,-0.0418395,-0.0066985004,1741884838.2369761
0.17275,0.047,0.0035,0.00331125,-0.04924,-0.013793999,1741884838.251327
0.27525,-0.00175,0.0955,0.0019685,-0.04995725,-0.01605225,1741884838.265752
0.3435,-0.04675,0.13775,-0.00305175,-0.03787225,-0.009445249,1741884838.280467
0.382,-0.109,0.12025,-0.00570675,-0.027007999,-0.00788875,1741884838.295094
0.382,-0.113,0.09575,-0.00102225,-0.015304499,-0.0085755,1741884838.310045
0.33325,-0.08125,0.042,0.002472,-0.01531975,-0.00708,1741884838.324192
0.30225,-0.0505,0.0185,-0.00083925005,-0.0167695,-0.000885,1741884838.341135
0.256,-0.01225,-0.0165,-0.0044707498,-0.017807,0.0012665,1741884838.353557
0.2395,-0.00675,-0.02075,-0.0056,-0.01976025,0.0012817499,1741884838.369945
0.21675,-0.011,-0.002,-0.003891,-0.02180475,-3.0500001e-05,1741884838.382883
0.20575,-0.01875,0.003,0.00035100002,-0.029296748,-0.002533,1741884838.399606
0.179,-0.04225,-0.00975,0.00317375,-0.03376775,-0.002884,1741884838.411958
0.168,-0.0555,-0.01675,0.0065307496,-0.038742002,-0.00242625,1741884838.426471
0.162,-0.05875,-0.0145,0.009674,-0.04875175,-0.0013885,1741884838.441059
0.1745,-0.01025,0.03475,0.00738525,-0.0516815,-0.0016632499,1741884838.455581
0.18,0.01175,0.06575,-0.0017852499,-0.049286,-0.0029449998,1741884838.470131
0.17425,-0.0205,0.099,-0.00514225,-0.047378503,-0.00396725,1741884838.484656
0.1655,-0.046,0.105,-0.0031889998,-0.05055225,-0.0052185003,1741884838.499274
0.15175,-0.08275,0.10375,-0.00024425,-0.05632025,-0.0050355,1741884838.513778
0.152,-0.08475,0.111,-0.00013725001,-0.06832875,-0.0035704998,1741884838.529558
0.175,-0.05525,0.157,-0.002365,-0.069168,-0.0013580001,1741884838.542929
0.176,-0.0435,0.18275,-0.0056304997,-0.0578155,0.0047607496,1741884838.559919
0.1275,-0.05175,0.19575,-0.00694275,-0.050705,0.00691225,1741884838.571954
0.10175,-0.0555,0.20175,-0.00782775,-0.0470275,0.008285499,1741884838.586385
0.091,-0.0595,0.2195,-0.00694275,-0.05160525,0.00823975,1741884838.6008651
0.08375,-0.055,0.2235,-0.0058899997,-0.056549,0.0081025,1741884838.615257
0.07425,-0.05375,0.209,-0.0024872501,-0.065506,0.008072,1741884838.63746
0.03275,-0.0505,0.1935,0.00154125,-0.069168,0.00579825,1741884838.646564
0.0175,-0.0335,0.21675,0.00918575,-0.075058,-0.00381475,1741884838.66214
0.01825,0.0035,0.291,0.0065765,-0.074768,-0.006836,1741884838.677484
0.0065,-0.00725,0.31525,-0.0020599999,-0.072631754,-0.00419625,1741884838.6910012
-0.007,-0.06525,0.3765,-0.00343325,-0.072357245,-0.0021057501,1741884838.702464
0.0025,-0.07025,0.39275,-0.0041044997,-0.0719605,-0.00131225,1741884838.7169778
0.00225,-0.054,0.38375,-0.0025940002,-0.0707245,-0.0056609996,1741884838.731669
-0.03325,-0.00425,0.34025,-0.0008545,-0.069519,-0.009552,1741884838.746311
-0.05,0.0185,0.3305,-0.00086975005,-0.0644225,-0.0158845,1741884838.760853
-0.06275,0.02275,0.348,-0.0028687501,-0.06083675,-0.017974751,1741884838.775421
-0.057,0.00125,0.37075,-0.0100555,-0.05252075,-0.0188445,1741884838.790997
-0.02425,-0.065,0.497,-0.014267,-0.0449525,-0.01599125,1741884838.804682
0.002,-0.0955,0.605,-0.0164795,-0.01339725,-0.00169375,1741884838.819718
0.086,-0.1135,0.84425,-0.013214,0.0118407495,0.008377,1741884838.833673
0.0765,-0.07625,0.89425,0.0021515,0.076706,0.01918025,1741884838.849684
-0.0595,0.00075,0.875,0.008514499,0.111221254,0.012634249,1741884838.862356
-0.11,0.012,0.8725,0.01013175,0.14559925,0.001114,1741884838.876705
-0.1705,0.00275,0.87025,0.009643501,0.21339425,-0.013916001,1741884838.891387
-0.37,-0.02925,0.85125,0.015167249,0.23909,-0.0135345,1741884838.905666
-0.4685,-0.05025,0.816,0.02793875,0.26148975,-0.002411,1741884838.92016
-0.62,-0.04175,0.5555,0.0329285,0.26313776,0.0044707498,1741884838.93456
-0.6525,-0.04075,0.2965,0.03477475,0.24287425,0.0138245,1741884838.949672
-0.58125,-0.02975,-0.31225,0.0290985,0.21705624,0.018432502,1741884838.9635541
-0.51575,0.0325,-0.5685,0.02177425,0.1842345,0.02474975,1741884838.979351
-0.388,0.19025,-0.74225,0.010879501,0.10202025,0.03370675,1741884838.992539
-0.3,0.217,-0.64225,0.00505075,0.055069,0.02702325,1741884839.006964
-0.19675,0.199,-0.486,0.0,-0.0199585,-0.00488275,1741884839.021625
-0.01,0.06775,-0.21625,0.00061025,-0.03923025,-0.017730748,1741884839.0361369
0.089,-0.01,-0.097,-0.00198375,-0.054931752,-0.022796748,1741884839.050828
0.27175,-0.08775,0.0885,-0.0035095,-0.05514525,-0.01776125,1741884839.065459
0.32025,-0.093,0.11325,-0.0045625,-0.0375825,-0.00968925,1741884839.080034
0.3465,-0.0825,0.058,-0.00411975,-0.02864075,-0.0089569995,1741884839.094692
0.33075,-0.072,0.0235,-0.0025634998,-0.0237885,-0.009811499,1741884839.1101902
0.2845,-0.042,-0.01175,-0.0024414998,-0.0262145,-0.00997925,1741884839.123946
0.269,-0.02975,-0.01125,-0.0030669998,-0.029571502,-0.0097045,1741884839.1410902
0.25425,-0.0235,0.02075,-0.00488275,-0.032516498,-0.00794975,1741884839.153184
0.24775,-0.02875,0.035,-0.0052947504,-0.0312195,-0.0068207504,1741884839.1697211
0.238,-0.03725,0.03975,-0.00305175,-0.02807625,-0.0041044997,1741884839.182454
0.202,-0.05425,0.01775,-0.0016632499,-0.027954001,-0.00267025,1741884839.196915
0.1805,-0.05575,-0.001,-7.625e-05,-0.0326995,-0.0010375,1741884839.211607
0.14725,-0.03775,-0.01825,-7.625e-05,-0.037201,-0.00119025,1741884839.226238
0.1435,-0.0205,-0.0055,-0.0032347501,-0.04695125,-0.00355525,1741884839.2415528
0.1485,-0.004,0.04775,-0.0063477503,-0.050171003,-0.0050812503,1741884839.255448
0.14775,-0.01225,0.06625,-0.011886501,-0.05400075,-0.0072937496,1741884839.270028
0.1465,-0.0525,0.0825,-0.0129700005,-0.056335498,-0.006775,1741884839.284641
0.14025,-0.064,0.094,-0.01345825,-0.06298825,-0.00193775,1741884839.2992241
0.1245,-0.06425,0.119,-0.01361075,-0.06761175,0.0007325,1741884839.31359
0.12575,-0.06275,0.14275,-0.013198749,-0.071579,0.002365,1741884839.3296452
0.132,-0.05075,0.17275,-0.0099945,-0.07260125,0.001526,1741884839.342609
0.12525,-0.0195,0.2055,-0.00737,-0.07115175,0.00010675,1741884839.3598049
0.10525,-0.01675,0.20975,-0.00177,-0.070816,-0.0027312501,1741884839.3716621
0.0605,-0.03425,0.23025,-0.00059500005,-0.071991,-0.0037385002,1741884839.386216
0.05025,-0.062,0.25925,-0.00296025,-0.0737305,-0.00302125,1741884839.4008331
0.062,-0.09225,0.33475,-0.0043182503,-0.073059,-0.0013275,1741884839.4154491
0.06675,-0.08275,0.34675,-0.00352475,-0.06858825,0.00080875,1741884839.429934
0.04875,-0.05175,0.3235,-0.00148,-0.065506,-3.0500001e-05,1741884839.444452
0.028,-0.04425,0.30475,0.00105275,-0.062561,-0.001953,1741884839.4592361
0.00575,-0.04225,0.28525,0.0052795,-0.058914248,-0.0057677496,1741884839.4734368
-0.011,-0.03375,0.276,0.0065917503,-0.058319,-0.0060577504,1741884839.490901
-0.024,-0.03625,0.2825,0.00590525,-0.06115725,-0.0041810004,1741884839.502665
-0.0545,-0.05275,0.2985,0.00485225,-0.0637665,-0.0049285004,1741884839.5194309
-0.04975,-0.05475,0.30775,-0.000473,-0.06513975,-0.00747675,1741884839.531956
-0.0485,-0.04875,0.321,-0.0040587503,-0.06230175,-0.007187,1741884839.5466518
-0.06325,-0.0495,0.32175,-0.00773625,-0.054657,-0.00590525,1741884839.561244
-0.08775,-0.03675,0.3275,-0.0079955,-0.052124,-0.0060577504,1741884839.575924
-0.09575,-0.026,0.33425,-0.008361749,-0.048889253,-0.0085755,1741884839.5905988
-0.0965,-0.01575,0.37425,-0.00941475,-0.04635625,-0.0100707505,1741884839.605237
-0.08375,-0.02575,0.42575,-0.0141145,-0.03556825,-0.0093385,1741884839.619925
-0.0465,-0.0615,0.57575,-0.01579275,-0.025055,-0.00593575,1741884839.634701
-0.02075,-0.09725,0.6795,-0.01525875,-0.009719751,-0.00057975,1741884839.649631
0.0205,-0.10575,0.8775,-0.010147001,0.038025003,0.01481625,1741884839.663983
0.01125,-0.08825,0.955,-0.0047455,0.07038875,0.021179251,1741884839.679585
-0.02125,-0.05975,1.0,0.00798025,0.15136725,0.01728825,1741884839.6928582
-0.22925,0.00275,1.0,0.01367175,0.19827275,0.006302,1741884839.709388
-0.38375,-0.0025,0.998,0.01570125,0.2747345,-0.0142365,1741884839.721605
-0.65375,-0.03875,0.9525,0.01678475,0.29264826,-0.014068499,1741884839.736038
-0.7755,-0.05375,0.80925,0.028,0.29154974,-0.00102225,1741884839.750559
-0.85175,-0.091,0.2285,0.033752497,0.27848825,0.0061035,1741884839.7649431
-0.79675,-0.09025,-0.10375,0.037384,0.25785825,0.0141755,1741884839.77948
-0.7235,-0.056,-0.41925,0.0344695,0.1900025,0.03645325,1741884839.793943
-0.5865,0.10925,-0.80725,0.0252075,0.1416015,0.045898497,1741884839.809685
-0.49875,0.18925,-0.797,0.00109875,0.03421025,0.03660575,1741884839.822904
-0.262,0.221,-0.47625,-0.0032655,-0.009521499,0.017303498,1741884839.837609
-0.12525,0.17,-0.28475,0.0019225,-0.05773925,-0.0203095,1741884839.852132
0.15675,0.0315,0.02075,0.00419625,-0.06617726,-0.028839001,1741884839.866556
0.27575,-0.01925,0.1055,-0.0019225,-0.06387325,-0.022521999,1741884839.881193
0.388,-0.0875,0.149,-0.0065612504,-0.051528998,-0.01554875,1741884839.8957381
0.39925,-0.09525,0.12525,-0.0060425,-0.0260315,-0.0099639995,1741884839.910439
0.366,-0.09475,0.0665,-0.0033264998,-0.02079775,-0.01071175,1741884839.924926
0.342,-0.086,0.053,-0.00102225,-0.019439751,-0.012085,1741884839.940623
0.31375,-0.074,0.043,0.00146475,-0.02085875,-0.013275251,1741884839.954151
0.2805,-0.06225,0.025,0.00146475,-0.0213165,-0.012542751,1741884839.9693599
0.26775,-0.06525,0.0185,0.000824,-0.0184785,-0.00617975,1741884839.983171
0.22925,-0.0545,0.01175,0.0011445,-0.01652525,-0.00201425,1741884839.999431
0.217,-0.03475,0.01475,-0.0002135,-0.0177765,0.0031585,1741884840.012063
0.199,-0.0065,0.00975,-0.002472,-0.01979075,0.00352475,1741884840.026579
0.185,-0.0045,0.00125,-0.00292975,-0.0254975,-0.00083925005,1741884840.041131
0.1595,-0.016,-0.0065,-0.00115975,-0.029846251,-0.0040435,1741884840.055858
0.15725,-0.03,0.00425,0.00067150005,-0.034362752,-0.0064545004,1741884840.070275
0.15975,-0.04425,0.0205,0.0013580001,-0.04090875,-0.0070495,1741884840.084856
0.16575,-0.0485,0.0525,-0.00057975,-0.043213002,-0.00570675,1741884840.099495
0.16525,-0.0405,0.066,-0.00767525,-0.04730225,-0.0021972498,1741884840.1139588
0.15525,-0.0315,0.07825,-0.011917,-0.05021675,-0.000534,1741884840.1295528
0.15325,-0.03475,0.0795,-0.016388,-0.05789175,0.00115975,1741884840.1431522
0.14725,-0.0465,0.097,-0.015090999,-0.06083675,0.00131225,1741884840.160053
0.139,-0.05625,0.11925,-0.0079345,-0.06413275,0.00077825,1741884840.172121
0.14175,-0.07,0.19075,-0.003891,-0.064621,-0.000412,1741884840.186739
0.15075,-0.062,0.2265,0.0018005001,-0.06074525,-0.0048065,1741884840.201281
0.14575,-0.0295,0.25325,0.0033722501,-0.0574645,-0.00712575,1741884840.2157388
0.13175,-0.021,0.24125,0.0033264998,-0.055007998,-0.00846875,1741884840.230308
0.11375,-0.02225,0.222,-0.0031889998,-0.053650003,-0.0067902496,1741884840.244916
0.0855,-0.052,0.203,-0.0074004997,-0.05416875,-0.0046845004,1741884840.259619
0.07875,-0.073,0.215,-0.010086001,-0.055297747,-0.00267025,1741884840.2741702
0.06325,-0.09425,0.25425,-0.00794975,-0.0551605,-0.002121,1741884840.2908869
0.05425,-0.096,0.26775,-0.001648,-0.05532825,-0.001068,1741884840.3034291
0.03875,-0.073,0.2765,-0.00048825,-0.055953998,-0.0012970001,1741884840.319228
0.02675,-0.0495,0.2755,-0.0031585,-0.05783075,-0.0045012496,1741884840.332621
-0.0055,-0.017,0.26975,-0.00444025,-0.05935675,-0.0057525,1741884840.349296
-0.02325,-0.02125,0.26275,-0.00466925,-0.06381225,-0.00469975,1741884840.362059
-0.052,-0.04425,0.26625,-0.00517275,-0.06640625,-0.0047150003,1741884840.376697
-0.0555,-0.04875,0.282,-0.0057525,-0.068847746,-0.0058135,1741884840.3915231
-0.05375,-0.04175,0.31375,-0.005539,-0.07180775,-0.008346501,1741884840.406216
-0.0575,-0.0335,0.3235,-0.00587475,-0.0716705,-0.0091095,1741884840.420922
-0.064,-0.02925,0.328,-0.01004025,-0.06729125,-0.0084379995,1741884840.435715
-0.08225,-0.0245,0.339,-0.013275251,-0.06307975,-0.00773625,1741884840.450449
-0.096,-0.02075,0.34675,-0.01498425,-0.0529785,-0.00708,1741884840.46503
-0.1335,-0.01425,0.36575,-0.01257325,-0.04771425,-0.00717175,1741884840.4797308
-0.13975,-0.01625,0.39225,-0.011169501,-0.03663625,-0.00587475,1741884840.4945421
-0.1035,-0.02925,0.50325,-0.0135955,-0.029693501,-0.0046234997,1741884840.509484
-0.06875,-0.04975,0.5975,-0.0143737495,-0.001175,0.00148,1741884840.523833
0.01675,-0.08225,0.859,-0.0126495,0.023940999,0.009323,1741884840.5404139
-0.0035,-0.03375,0.94,0.0012055,0.092392,0.023773251,1741884840.5526621
-0.1805,0.056,0.945,0.0128632495,0.12982175,0.0187835,1741884840.566957
-0.27025,0.0705,0.9405,0.020691,0.16799925,0.0052185003,1741884840.5813272
-0.3475,0.05875,0.94625,0.020584,0.24324025,-0.01867675,1741884840.595722
-0.48875,-0.0235,0.97675,0.01956175,0.271576,-0.018920999,1741884840.610316
-0.61425,-0.06725,0.92575,0.026702998,0.2965545,-0.00494375,1741884840.624846
-0.7865,-0.09625,0.5005,0.0319215,0.292099,0.00143425,1741884840.640604
-0.75975,-0.07325,0.18625,0.038498,0.2553405,0.0166015,1741884840.6536589
-0.66975,-0.0235,-0.448,0.0379485,0.22442625,0.02873225,1741884840.669226
-0.6445,0.00525,-0.7045,0.0218505,0.13824475,0.04226675,1741884840.682543
-0.5265,0.10475,-0.8295,0.0155030005,0.085601754,0.036239497,1741884840.6969159
-0.405,0.1715,-0.68725,0.00852975,0.033554003,0.0236665,1741884840.711442
-0.25875,0.214,-0.4845,-0.00201425,-0.04002375,-0.0055085,1741884840.7260501
0.00275,0.1365,-0.15425,-0.00119025,-0.05622875,-0.0163575,1741884840.740713
0.12225,0.0675,-0.04175,-0.001831,-0.06829825,-0.026428249,1741884840.755122
0.32225,-0.058,0.13525,-0.0033264998,-0.06906125,-0.02430725,1741884840.7696671
0.379,-0.1195,0.20175,-0.004486,-0.04792775,-0.01835625,1741884840.7841852
0.41675,-0.15225,0.20125,-0.0022735,-0.03158575,-0.016021749,1741884840.7995038
0.392,-0.13925,0.14325,0.00334175,-0.012557999,-0.01042175,1741884840.8133068
0.31525,-0.08425,0.03225,0.004547,-0.0104065,-0.00883475,1741884840.8296099
0.281,-0.05425,-0.0035,0.0053252503,-0.0115815,-0.008255,1741884840.8424351
0.23325,-0.0095,-0.0325,0.0043335,-0.0168305,-0.00662225,1741884840.856918
0.2165,0.00475,-0.02975,0.001419,-0.018127501,-0.0042115003,1741884840.871527
0.20225,0.00775,-0.023,-0.0025787498,-0.019638,-0.0003815,1741884840.8861032
0.18125,-0.02475,-0.01625,-0.00193775,-0.022354,-0.00048825,1741884840.900749
0.17075,-0.04175,-0.01325,0.0012055,-0.0301665,-0.00148,1741884840.915437
0.15375,-0.04,-0.00175,0.00169375,-0.03468325,-0.001892,1741884840.9299011
0.15225,-0.031,0.00275,-0.00279225,-0.04444875,-0.0033875,1741884840.944623
0.166,-0.0075,0.0325,-0.00662225,-0.048584,-0.0043639997,1741884840.959748
0.17825,0.0025,0.05725,-0.010666001,-0.05052175,-0.00587475,1741884840.9736488
0.17825,-0.00975,0.09425,-0.01033025,-0.048828,-0.0059967497,1741884840.9906402
0.168,-0.03225,0.10375,-0.009384249,-0.047409,-0.0055237496,1741884841.002806
0.1585,-0.07225,0.12675,-0.00930775,-0.0499115,-0.0025787498,1741884841.0192971
0.16325,-0.08525,0.14675,-0.00976575,-0.05230725,-0.00051875,1741884841.0320141
0.16675,-0.09175,0.16375,-0.00845325,-0.0546265,0.00109875,1741884841.046508
0.16975,-0.06775,0.1855,-0.0077972496,-0.05485525,0.00016775,1741884841.0610309
0.1725,-0.0435,0.1955,-0.00738525,-0.050644003,-0.0013580001,1741884841.075619
0.164,-0.0255,0.209,-0.00643925,-0.046997003,-0.00143425,1741884841.090487
0.151,-0.03175,0.214,-0.00279225,-0.043213002,-0.00198375,1741884841.104684
0.122,-0.04425,0.21,-0.00061025,-0.043578997,-0.0024414998,1741884841.119427
0.10975,-0.0515,0.2095,0.0030365,-0.047165003,-0.004013,1741884841.1338098
0.087,-0.08325,0.2265,0.0028229998,-0.04983525,-0.00469975,1741884841.149477
0.0815,-0.0975,0.248,0.00062550005,-0.052139252,-0.0045777503,1741884841.162836
0.07675,-0.1035,0.27175,-0.0033875,-0.051880002,-0.0021819999,1741884841.179631
0.0735,-0.092,0.297,-0.0026854998,-0.049804747,-0.0010375,1741884841.192018
0.07275,-0.08075,0.29575,0.00251775,-0.04623425,-0.00033575002,1741884841.206505
0.049,-0.065,0.2745,0.0059205,-0.04588325,-0.00059500005,1741884841.220963
0.032,-0.0625,0.2665,0.009079001,-0.048141498,-0.00169375,1741884841.235518
0.022,-0.073,0.295,0.00631725,-0.049377497,-0.00213625,1741884841.249995
0.02875,-0.07775,0.319,-0.0025940002,-0.048095748,-0.00099175,1741884841.264585
0.02875,-0.07325,0.333,-0.004776,-0.04621875,0.000473,1741884841.279714
0.01,-0.066,0.315,-0.00364675,-0.045287997,0.001709,1741884841.29352
-0.03775,-0.036,0.26075,-0.00245675,-0.046997003,0.00105275,1741884841.309582
-0.04625,-0.01875,0.23775,-0.00184625,-0.0500945,-0.00024425,1741884841.322737
-0.054,-0.00325,0.22175,-0.0029145,-0.0591735,-0.0043182503,1741884841.337503
-0.08675,0.0085,0.23525,-0.00517275,-0.06428525,-0.00596625,1741884841.352077
-0.101,0.01025,0.264,-0.0111085,-0.0725555,-0.00839225,1741884841.366718
-0.117,0.00925,0.327,-0.012802,-0.073104754,-0.01098625,1741884841.381311
-0.11775,0.0035,0.36125,-0.015564,-0.063919,-0.01823425,1741884841.39588
-0.0935,-0.048,0.48675,-0.01779175,-0.054596,-0.0196075,1741884841.410622
-0.038,-0.1105,0.6325,-0.024475,-0.02000425,-0.00596625,1741884841.425152
0.12675,-0.16125,0.96675,-0.02497875,0.01127625,0.0102235,1741884841.440383
0.09875,-0.119,1.0,-0.0012207499,0.100448504,0.03395075,1741884841.4541519
-0.15,0.02375,0.922,0.01142875,0.14563,0.0282745,1741884841.4693499
-0.26325,0.07025,0.88,0.017212,0.18580624,0.011749251,1741884841.482729
-0.37625,0.0505,0.86375,0.008224499,0.25260925,-0.02095025,1741884841.499243
-0.61,-0.102,0.79925,0.0038605002,0.27285776,-0.02601625,1741884841.511708
-0.67725,-0.133,0.69,0.023528999,0.2690735,-0.01554875,1741884841.526301
-0.66,-0.05175,0.28,0.0399475,0.2519225,-0.008148249,1741884841.54077
-0.61125,-0.02,-0.0025,0.049194247,0.21076974,0.008255,1741884841.5552619
-0.43275,0.0215,-0.53725,0.04039,0.181427,0.0213775,1741884841.569591
-0.357,0.08625,-0.68325,0.026275748,0.1418,0.03363025,1741884841.583952
-0.2245,0.19075,-0.5865,0.0024414998,0.050171003,0.0335235,1741884841.599524
-0.14125,0.19475,-0.44475,-0.00131225,0.014846751,0.02015675,1741884841.6128352
-0.053,0.17025,-0.315,-0.0002595,-0.027862499,-0.010727,1741884841.629589
0.11675,0.0535,-0.10525,1.5250001e-05,-0.04002375,-0.019638,1741884841.642004
0.20275,-0.0095,0.008,-0.0017395001,-0.04930125,-0.02388,1741884841.656584
0.32825,-0.09025,0.15825,-0.00239575,-0.04449475,-0.02253725,1741884841.671082
0.3485,-0.11025,0.1645,-0.0043944996,-0.02247625,-0.014053251,1741884841.685684
0.322,-0.1295,0.10275,-0.0047150003,-0.0133667495,-0.0086975,1741884841.700448
0.3025,-0.12125,0.07425,-0.00254825,-0.00741575,-0.0040435,1741884841.7149792
0.27625,-0.08125,0.03475,-0.00070200005,-0.0077667497,-0.004242,1741884841.729653
0.26425,-0.06475,0.02225,0.00090025004,-0.00862125,-0.00413525,1741884841.744012
0.2505,-0.05375,0.01625,0.00042725,-0.010391249,-0.00154125,1741884841.7598789
0.22325,-0.03825,0.013,-0.00074775,-0.01210025,-0.00067150005,1741884841.772906
0.20925,-0.03325,0.0085,-0.0012970001,-0.016723748,-0.0023039998,1741884841.7876039
0.19,-0.0335,-0.004,-0.00096125,-0.019348249,-0.00381475,1741884841.802192
0.177,-0.03175,-0.009,-0.00062550005,-0.0261535,-0.0052337497,1741884841.816898
0.1605,-0.02675,-0.007,-0.00190725,-0.030548,-0.0057525,1741884841.83162
0.16075,-0.026,0.00025,-0.00561525,-0.038803,-0.0071105,1741884841.8461041
0.16525,-0.03725,0.029,-0.0068055,-0.0421905,-0.0075835,1741884841.8606122
0.168,-0.0485,0.04925,-0.01004025,-0.046692003,-0.0059205,1741884841.8751009
0.16025,-0.0655,0.0875,-0.012405501,-0.04818725,-0.0034484998,1741884841.890723
0.154,-0.06925,0.1025,-0.014297499,-0.0501405,-0.001175,1741884841.904404
0.15,-0.0685,0.115,-0.015594499,-0.055694498,0.001007,1741884841.919371
0.15225,-0.0615,0.137,-0.015075751,-0.057617247,0.0010375,1741884841.933308
0.15075,-0.055,0.1475,-0.01121525,-0.057800252,-0.00080875,1741884841.949445
0.14625,-0.04375,0.1775,-0.009094249,-0.057235748,-0.001953,1741884841.9625669
0.14575,-0.039,0.199,-0.0069580004,-0.05464175,-0.0024872501,1741884841.9795961
0.13875,-0.04225,0.231,-0.00621025,-0.052536,-0.0020295,1741884841.991672
0.131,-0.0515,0.23425,-0.00402825,-0.04954525,-0.0016785001,1741884842.006249
0.10175,-0.06075,0.21925,-0.002655,-0.04948425,-0.0023345,1741884842.0209768
0.08625,-0.0665,0.21025,-0.0026854998,-0.052139252,-0.00485225,1741884842.035282
0.06,-0.05925,0.209,-0.00369275,-0.05372625,-0.005844,1741884842.049979
0.0475,-0.0585,0.2205,-0.0038757501,-0.05461125,-0.0060272496,1741884842.064566
0.0445,-0.0725,0.2505,-0.0022735,-0.054565497,-0.00399775,1741884842.0795462
0.073,-0.0895,0.32875,-0.0020752498,-0.05404675,-0.00270075,1741884842.093641
0.0785,-0.0755,0.3445,0.00045775,-0.0497285,-0.00016775,1741884842.109528
0.047,-0.0385,0.31675,0.0021515,-0.0471345,-1.5250001e-05,1741884842.122719
0.022,-0.0235,0.29525,-0.0034790002,-0.046173,-0.003769,1741884842.137412
-0.004,-0.01825,0.26075,-0.0078735,-0.048401,-0.0059205,1741884842.151962
-0.0105,-0.029,0.2505,-0.01036075,-0.05429075,-0.0079955,1741884842.166652
-0.03375,-0.05175,0.261,-0.0094604995,-0.0562135,-0.00830075,1741884842.181366
-0.04475,-0.05675,0.2785,-0.0075835,-0.058014,-0.008773751,1741884842.195937
-0.0655,-0.05875,0.30675,-0.0070952503,-0.057922248,-0.008788999,1741884842.2106729
-0.08,-0.05525,0.31175,-0.00715625,-0.05679325,-0.008545,1741884842.225386
-0.1015,-0.03825,0.35925,-0.0070037497,-0.048049998,-0.009369001,1741884842.240608
-0.09375,-0.03325,0.41425,-0.008407501,-0.0405885,-0.010253999,1741884842.254614
-0.072,-0.04175,0.48925,-0.01260375,-0.02124025,-0.0075682504,1741884842.269404
-0.00325,-0.09125,0.64425,-0.0134735005,-0.00833125,-0.00358575,1741884842.283984
0.031,-0.09775,0.71475,-0.0087585,0.03373725,0.00665275,1741884842.299399
0.026,-0.056,0.767,-0.00334175,0.06172175,0.009521499,1741884842.312686
-0.00625,-0.03925,0.74175,0.008148249,0.119628996,-9.15e-05,1741884842.32923
-0.06025,0.0315,0.714,0.013549751,0.15031426,-0.009491,1741884842.341671
-0.106,0.0585,0.74275,0.03053275,0.207901,-0.017654499,1741884842.356168
-0.3055,0.059,0.7305,0.03494275,0.22772224,-0.01570125,1741884842.370552
-0.3815,0.03675,0.6225,0.03663625,0.23701476,-0.011688249,1741884842.3848839
-0.4005,-0.0105,0.46725,0.04135125,0.2277375,0.00048825,1741884842.399509
-0.36525,-0.04275,0.15375,0.046936,0.217804,0.008316,1741884842.413731
-0.35725,-0.01475,-0.049,0.0448455,0.18312074,0.0230865,1741884842.4296162
-0.33675,-0.01075,-0.46175,0.034057498,0.15550224,0.0293885,1741884842.4427578
-0.306,0.0105,-0.56475,0.01664725,0.08193975,0.026947001,1741884842.459848
-0.18425,0.059,-0.4815,0.011810251,0.04492175,0.017868,1741884842.471621
-0.10075,0.06725,-0.3725,0.007965,0.015533499,0.0073242504,1741884842.4859562
0.047,0.05075,-0.2155,0.00070200005,-0.019989,-0.00747675,1741884842.50047
0.103,0.02975,-0.15325,-0.00154125,-0.03044125,-0.010009751,1741884842.515053
0.15475,0.007,-0.089,-0.00216675,-0.0417785,-0.012054499,1741884842.529598
0.237,-0.0475,0.01675,-0.00068675,-0.04240425,-0.0136565,1741884842.544048
0.262,-0.072,0.04975,-0.000183,-0.036620997,-0.01463325,1741884842.560045
0.27675,-0.0995,0.0615,-0.0012207499,-0.0331115,-0.0128632495,1741884842.5731819
0.27075,-0.09875,0.047,-0.0037995,-0.02978525,-0.0065155,1741884842.587708
0.25125,-0.08425,0.027,-0.0052947504,-0.02977,-0.003128,1741884842.602397
0.2425,-0.0795,0.0295,-0.00846875,-0.029327499,0.0030365,1741884842.616787
0.23,-0.07425,0.0455,-0.0086975,-0.028839001,0.00531,1741884842.6312551
0.2215,-0.06175,0.04875,-0.0076905,-0.029007,0.0065155,1741884842.6457422
0.21125,-0.049,0.04175,-0.0065002497,-0.032409754,0.0055237496,1741884842.6602712
0.18275,-0.0315,0.01175,-0.005844,-0.0352325,0.0035095,1741884842.6747699
0.16475,-0.02275,0.00175,-0.003128,-0.043808,-0.00292975,1741884842.6905222
0.14125,-0.00825,0.01025,-0.0027160002,-0.0494995,-0.0059510004,1741884842.7039301
0.13975,-0.02,0.03475,-0.0053709997,-0.058898997,-0.0077210004,1741884842.719292
0.15375,-0.07025,0.117,-0.00770575,-0.060089,-0.0057372497,1741884842.733142
0.1565,-0.088,0.1485,-0.01251225,-0.0575715,0.0,1741884842.749412
0.15475,-0.09175,0.1745,-0.014800999,-0.05703725,0.002365,1741884842.762264
0.14725,-0.074,0.17425,-0.016113251,-0.05714425,0.00369275,1741884842.776781
0.11525,-0.0445,0.16425,-0.012847999,-0.05941775,0.0028074998,1741884842.791211
0.11025,-0.0465,0.184,-0.00903325,-0.06130975,0.00067150005,1741884842.805677
0.126,-0.05025,0.237,-0.00570675,-0.0608215,-0.0028229998,1741884842.8202581
0.1745,-0.039,0.34825,-0.006363,-0.05635075,-0.00267025,1741884842.8348658
0.17375,-0.0345,0.35825,-0.00561525,-0.042831503,-0.00184625,1741884842.849617
0.1355,-0.0475,0.30275,-0.0053709997,-0.036514252,-0.0013427499,1741884842.864098
0.11025,-0.05775,0.262,-0.0062407497,-0.02873225,0.0005645,1741884842.879678
0.06975,-0.05275,0.1915,-0.0057372497,-0.0280305,0.00108325,1741884842.892978
0.05725,-0.03725,0.17425,-0.0042572496,-0.034317,0.00054925,1741884842.909378
0.02525,-0.0175,0.18075,-0.0047150003,-0.04125975,-0.0001525,1741884842.922063
0.0165,-0.033,0.21275,-0.0062407497,-0.04922475,-0.00181575,1741884842.936642
0.027,-0.05375,0.26525,-0.0081025,-0.05679325,-0.00590525,1741884842.951318
0.06325,-0.0505,0.34375,-0.006546,-0.054580748,-0.0065002497,1741884842.9658508
0.045,-0.033,0.33475,-0.0036010002,-0.051330503,-0.0043944996,1741884842.980405
-0.02025,-0.02125,0.27775,-0.003891,-0.052597,-0.004013,1741884842.994964
-0.03725,-0.02225,0.25725,-0.0066985004,-0.0582275,-0.0064545004,1741884843.0096571
-0.04375,-0.01725,0.25675,-0.00708,-0.06204225,-0.00767525,1741884843.02437
-0.046,-0.02125,0.2845,-0.00402825,-0.067993246,-0.009323,1741884843.042075
-0.04525,-0.03725,0.358,-0.001587,-0.06781,-0.01033025,1741884843.053607
-0.05075,-0.04175,0.388,-0.001831,-0.061523497,-0.00997925,1741884843.0695539
-0.07425,-0.0245,0.4105,-0.0043182503,-0.056152247,-0.0088195,1741884843.0830789
-0.0835,-0.021,0.42125,-0.008545,-0.041076753,-0.009140001,1741884843.099621
-0.0505,-0.06625,0.538,-0.009643501,-0.029663,-0.010101249,1741884843.1123579
-0.008,-0.0915,0.6345,-0.0095672505,-0.0138855,-0.009216251,1741884843.129109
0.03525,-0.11525,0.728,-0.0042725,0.033462502,0.0056304997,1741884843.141349
0.052,-0.06125,0.84625,-4.575e-05,0.06478875,0.018982,1741884843.155715
-0.0155,0.0085,0.80075,0.003952,0.1294555,0.03427125,1741884843.170042
-0.14575,0.0665,0.6435,-0.00108325,0.15765375,0.0231475,1741884843.1843798
-0.14425,0.05675,0.632,-0.0110015,0.20626825,-0.013290499,1741884843.199382
-0.221,0.00225,0.66675,-0.0043335,0.22589101,-0.01950075,1741884843.213415
-0.30475,0.01025,0.621,0.01608275,0.23315425,-0.015686,1741884843.229206
-0.3855,0.043,0.33675,0.019134501,0.2192535,-0.014038,1741884843.242361
-0.369,0.012,0.1475,0.018814,0.2021485,-0.011612001,1741884843.256743
-0.35275,-0.0345,-0.04525,0.023956249,0.169098,0.00187675,1741884843.271199
-0.33425,-0.07,-0.3995,0.0246735,0.14753725,0.0094604995,1741884843.285683
-0.29125,-0.0385,-0.49,0.013931249,0.086746246,0.015915,1741884843.3002539
-0.1625,0.042,-0.42975,0.0071409997,0.0558015,0.01481625,1741884843.314683
-0.09825,0.05475,-0.33475,0.0003815,0.00997925,0.00535575,1741884843.3296661
0.0405,0.035,-0.16025,-0.00062550005,-0.00514225,-0.00077825,1741884843.3437319
0.1035,0.01475,-0.10275,-0.0017395001,-0.02389525,-0.007309,1741884843.359472
0.19625,-0.034,-0.02225,-0.00263975,-0.02867125,-0.00770575,1741884843.3729331
0.232,-0.05075,0.01425,-0.00334175,-0.030639749,-0.00782775,1741884843.387562
0.2615,-0.062,0.0475,-0.0019685,-0.027984502,-0.00880425,1741884843.40206
0.2935,-0.0765,0.083,-0.00096125,-0.02445975,-0.008545,1741884843.416646
0.2935,-0.078,0.0785,-0.0002595,-0.01693725,-0.005249,1741884843.431387
0.27575,-0.0545,0.0395,-0.000412,-0.0148772495,-0.00328075,1741884843.4458292
0.2625,-0.03725,0.0165,-0.0009765,-0.01525875,-0.00083925005,1741884843.460382
0.2285,-0.0155,-0.0215,-0.0013885,-0.01779175,-0.00030525,1741884843.474968
0.21175,-0.0145,-0.0325,-0.0038605002,-0.02619925,-0.00024425,1741884843.4905212
0.182,-0.025,-0.0315,-0.00494375,-0.0315095,-0.00070200005,1741884843.504368
0.17225,-0.03475,-0.01975,-0.0030975002,-0.0442505,-0.00115975,1741884843.519277
0.1595,-0.046,0.01925,-0.001953,-0.04995725,-0.000885,1741884843.533549
0.1555,-0.04575,0.0385,-0.0017852499,-0.0546265,-0.00080875,1741884843.549397
0.15625,-0.048,0.05425,-0.00276175,-0.062027,-0.00125125,1741884843.562594
0.164,-0.0505,0.09,-0.00228875,-0.06427,-0.001236,1741884843.579594
0.1635,-0.0525,0.115,0.00033575002,-0.064743,-0.0007325,1741884843.591685
0.166,-0.05675,0.17375,0.0010375,-0.06349175,-0.00013725001,1741884843.606227
0.16525,-0.048,0.18875,-0.0012055,-0.060379002,0.00051875,1741884843.6207528
0.1445,-0.0305,0.1885,-0.003418,-0.06001275,0.00077825,1741884843.635236
0.128,-0.027,0.1875,-0.0070495,-0.06404125,0.0020295,1741884843.649777
0.1025,-0.03175,0.19,-0.00717175,-0.067459,0.0030669998,1741884843.664198
0.09925,-0.04125,0.201,-0.00579825,-0.070465,0.004242,1741884843.679724
0.10125,-0.06275,0.273,-6.1000002e-05,-0.0714875,0.0056304997,1741884843.693233
0.10725,-0.05825,0.316,0.003296,-0.069122255,0.00590525,1741884843.7094588
0.1075,-0.03975,0.33675,0.0054780003,-0.060287498,0.0043335,1741884843.722126
0.08325,-0.008,0.312,0.0034637498,-0.05514525,0.00279225,1741884843.7365491
0.06775,-0.00875,0.28675,-0.00181575,-0.0499115,0.000824,1741884843.7509692
0.04475,-0.0295,0.2665,-0.0026092501,-0.05033875,0.00045775,1741884843.765492
0.045,-0.04525,0.28325,-0.001068,-0.05245975,0.00115975,1741884843.779985
0.05075,-0.043,0.3295,-0.00048825,-0.05160525,0.00181575,1741884843.794496
0.03225,-0.018,0.333,-0.0003815,-0.04841625,0.00238025,1741884843.8095832
-0.00975,0.0,0.30175,-0.00343325,-0.04090875,0.0040587503,1741884843.823474
-0.0345,-0.00875,0.276,-0.0070952503,-0.04090875,0.0043639997,1741884843.840461
-0.05775,-0.02125,0.2525,-0.011825499,-0.049347,0.00077825,1741884843.8525598
-0.06975,-0.02875,0.22725,-0.010879501,-0.055191003,-0.0029907501,1741884843.869256
-0.071,-0.022,0.23525,-0.0039825,-0.06346125,-0.008361749,1741884843.8818061
-0.0815,-0.0215,0.28975,-0.00149525,-0.065094,-0.008407501,1741884843.8965492
-0.08475,-0.0155,0.3145,-0.0016785001,-0.06314075,-0.0077667497,1741884843.911106
-0.06925,-0.0045,0.377,-0.0031585,-0.058303747,-0.00823975,1741884843.925759
-0.04125,-0.022,0.44725,-0.008712751,-0.0353545,-0.0051574996,1741884843.9404008
0.061,-0.085,0.703,-0.011306751,-0.013153,0.00245675,1741884843.954939
0.07,-0.08125,0.79925,-0.002365,0.0538635,0.0219575,1741884843.9693718
-0.07675,-0.03575,0.81025,0.00662225,0.092636004,0.024231002,1741884843.983712
-0.127,-0.0135,0.76575,0.011688249,0.13162225,0.018158002,1741884843.999377
-0.15025,0.01225,0.75275,0.0072175004,0.2059785,-0.00830075,1741884844.012508
-0.245,0.01325,0.79325,0.00125125,0.23609924,-0.019714251,1741884844.026865
-0.31425,0.00775,0.77475,0.00061025,0.2632905,-0.02449025,1741884844.041397
-0.3995,-0.024,0.54425,0.0068665,0.2569885,-0.0182495,1741884844.055861
-0.377,-0.0555,0.361,0.016845752,0.22456351,-0.00083925005,1741884844.070445
-0.28975,-0.071,-0.00375,0.02076725,0.20738225,0.009796251,1741884844.084925
-0.2805,-0.04375,-0.19325,0.02124025,0.18995675,0.02127075,1741884844.099432
-0.2895,-0.02425,-0.372,0.008773751,0.13450626,0.03898625,1741884844.113912
-0.253,0.0455,-0.51575,0.0023345,0.09620675,0.038772497,1741884844.1294951
-0.18975,0.08175,-0.455,-0.00035100002,0.02822875,0.016632,1741884844.142771
-0.04025,0.0865,-0.2755,0.00137325,0.00688175,0.0047455,1741884844.159616
0.021,0.06725,-0.223,-0.0013275,-0.019333,-0.00453175,1741884844.1716979
0.12325,0.02,-0.107,-0.0050202496,-0.0289765,-0.0042115003,1741884844.186259
0.17775,0.00875,-0.0375,-0.006363,-0.0387115,-0.0055085,1741884844.200864
0.25975,-0.01225,0.0365,-0.00416575,-0.036438,-0.00811775,1741884844.215473
0.2745,-0.03525,0.033,-0.002472,-0.03158575,-0.0099639995,1741884844.230001
0.276,-0.061,0.017,-0.002472,-0.025543248,-0.0091095,1741884844.244533
0.26825,-0.05175,0.01275,-0.002884,-0.0256805,-0.0077515002,1741884844.259331
0.256,-0.03675,0.006,-0.0032655,-0.028594999,-0.0056609996,1741884844.273532
0.228,-0.01775,-0.001,-0.003296,-0.030426001,-0.0055237496,1741884844.290766
0.21975,-0.025,0.01425,-0.0024414998,-0.03309625,-0.0070037497,1741884844.302752
0.23375,-0.0335,0.0705,-0.00030525,-0.03338625,-0.008499251,1741884844.319225
0.2405,-0.02925,0.078,0.0048065,-0.032470748,-0.009872501,1741884844.3318331
0.221,-0.0315,0.0465,0.00488275,-0.03161625,-0.008667,1741884844.346451
0.20375,-0.0295,0.025,0.00289925,-0.033844,-0.00697325,1741884844.3608692
0.1775,-0.0165,-0.003,0.001892,-0.037552,-0.00697325,1741884844.375495
0.1715,-0.01475,0.003,0.001068,-0.04208375,-0.006836,1741884844.3914702
0.17175,-0.018,0.0255,-0.00035100002,-0.04954525,-0.00570675,1741884844.404462
0.1845,-0.03475,0.0955,-0.001068,-0.051422,-0.005066,1741884844.419874
0.188,-0.039,0.12175,-0.00201425,-0.05122375,-0.0043182503,1741884844.433537
0.18075,-0.036,0.13275,-0.0030975002,-0.0504455,-0.0037385002,1741884844.449601
0.1705,-0.0345,0.12875,-0.007187,-0.050277747,-0.00051875,1741884844.462718
0.151,-0.05375,0.15225,-0.00782775,-0.05116275,0.0018005001,1741884844.479465
0.1535,-0.06575,0.18825,-0.0023497501,-0.053710997,0.0052947504,1741884844.491745
0.15975,-0.043,0.241,0.0011445,-0.05488575,0.0047455,1741884844.5061061
0.155,-0.02825,0.241,0.00231925,-0.05537425,0.0031585,1741884844.5205271
0.155,-0.00675,0.23175,-0.00372325,-0.0522765,0.0015565,1741884844.5349498
0.14775,-0.00325,0.23,-0.00811775,-0.0497895,0.0026245,1741884844.549603
0.1295,-0.00525,0.2235,-0.010757499,-0.0488435,0.003662,1741884844.5639539
0.09175,-0.02975,0.21825,-0.008072,-0.051437248,0.0020295,1741884844.579155
0.08825,-0.04275,0.2275,0.00036625,-0.057876498,-0.0016632499,1741884844.592952
0.07875,-0.0295,0.24525,0.002884,-0.05874625,-0.0029907501,1741884844.60941
0.05975,-0.01,0.244,0.00157175,-0.057449248,-0.0045012496,1741884844.6218848
0.02075,0.00025,0.24875,-0.0011445,-0.05853275,-0.00437925,1741884844.6364002
0.01725,-0.014,0.2545,-0.003952,-0.061554,-0.0036010002,1741884844.6509912
0.01025,-0.03975,0.26025,-0.0052795,-0.0677185,-0.0030669998,1741884844.665537
-0.007,-0.0395,0.26275,-0.00276175,-0.06871025,-0.00402825,1741884844.680143
-0.02775,-0.03775,0.264,0.00402825,-0.06877125,-0.0058899997,1741884844.694742
-0.04875,-0.0385,0.27975,0.0060577504,-0.06935125,-0.0064850003,1741884844.7093482
-0.05675,-0.03475,0.30225,0.00767525,-0.06918325,-0.0081025,1741884844.723903
-0.07475,-0.018,0.34275,0.0068512503,-0.06764225,-0.008850001,1741884844.740541
-0.082,-0.008,0.35375,0.0009765,-0.061782748,-0.01091,1741884844.7530391
-0.0815,-0.01725,0.3925,-0.0026245,-0.056808498,-0.01171875,1741884844.769017
-0.07325,-0.03725,0.428,-0.0077667497,-0.040802,-0.00975025,1741884844.782372
-0.03525,-0.081,0.569,-0.008941749,-0.027984502,-0.00488275,1741884844.797003
-0.00275,-0.09325,0.66625,-0.0059205,0.01266475,0.01133725,1741884844.8114738
0.03225,-0.105,0.8195,-0.00067150005,0.04093925,0.0184785,1741884844.8258612
-0.0095,-0.104,0.84425,0.006073,0.07362375,0.02224725,1741884844.840369
-0.067,-0.0855,0.82925,0.018020751,0.14636225,0.011825499,1741884844.854649
-0.16575,-0.027,0.81875,0.02171325,0.183197,0.00190725,1741884844.869088
-0.226,0.0025,0.84325,0.02180475,0.24317925,-0.008407501,1741884844.883498
-0.408,0.0115,0.837,0.02124025,0.259323,-0.0068207504,1741884844.898746
-0.4785,-0.04125,0.711,0.0250245,0.25823975,0.0072632497,1741884844.912374
-0.5255,-0.11075,0.278,0.02870175,0.24723825,0.014724749,1741884844.92674
-0.517,-0.0835,0.008,0.033370998,0.23020925,0.02091975,1741884844.941094
-0.486,-0.0435,-0.263,0.0338745,0.1729735,0.032287497,1741884844.955633
-0.39525,0.07275,-0.58175,0.02622975,0.1360625,0.035019003,1741884844.97009
-0.32825,0.113,-0.58475,0.01560975,0.0624695,0.024047751,1741884844.984555
-0.1625,0.153,-0.42325,0.010147001,0.032943748,0.016296498,1741884844.9994261
-0.07575,0.14575,-0.31775,-0.0007325,-0.0073395,0.00251775,1741884845.0136828
0.0775,0.08475,-0.1535,-0.00225825,-0.020218,-0.002655,1741884845.0295858
0.14,0.0435,-0.09125,-0.0022735,-0.034973253,-0.009521499,1741884845.042798
0.239,-0.0185,-0.01075,-0.0018615,-0.03627025,-0.0122985,1741884845.058887
0.2685,-0.042,0.00875,-0.0043639997,-0.0314635,-0.01358025,1741884845.072012
0.3,-0.07975,0.0445,-0.00555425,-0.028564502,-0.0128175,1741884845.086549
0.302,-0.09,0.04975,-0.0054475004,-0.02581775,-0.01193225,1741884845.101136
0.296,-0.0925,0.0425,-0.0028074998,-0.021331752,-0.00935375,1741884845.115684
0.27125,-0.07275,0.01625,-0.002243,-0.020049999,-0.0070952503,1741884845.1302679
0.2555,-0.0525,0.005,-0.00437925,-0.0198365,-0.00177,1741884845.144763
0.216,-0.0155,-0.0225,-0.00665275,-0.020996,0.00013725001,1741884845.159662
0.19375,-0.00825,-0.03625,-0.0080872495,-0.027679501,0.00042725,1741884845.1738272
0.15725,-0.008,-0.0485,-0.006302,-0.03385925,-0.0008545,1741884845.1905012
0.14425,-0.014,-0.04775,-0.00331125,-0.047989,-0.0036162501,1741884845.20311
0.13625,-0.0345,-0.0215,-0.00296025,-0.054809503,-0.00514225,1741884845.219195
0.14725,-0.042,0.01075,-0.00355525,-0.06051625,-0.006668,1741884845.232212
0.17325,-0.04275,0.096,-0.0068207504,-0.06365975,-0.0060425,1741884845.2468328
0.1775,-0.041,0.12175,-0.0076142503,-0.061203,-0.00494375,1741884845.261527
0.1735,-0.04525,0.127,-0.00570675,-0.056381248,-0.00485225,1741884845.276117
0.144,-0.0555,0.11675,-0.0047455,-0.056579497,-0.0043639997,1741884845.290742
0.13075,-0.06275,0.1205,-0.0033570002,-0.06378175,-0.001892,1741884845.3053749
0.13125,-0.08,0.14975,-0.0023345,-0.068924,-0.00157175,1741884845.3199549
0.13675,-0.07675,0.17275,0.0013427499,-0.07254025,-0.0037079998,1741884845.334402
0.13375,-0.0425,0.237,0.0026245,-0.070282,-0.0045012496,1741884845.349516
0.134,-0.02175,0.2655,-0.00057975,-0.06440725,-0.005249,1741884845.363455
0.1125,-0.00975,0.26275,-0.0034637498,-0.06169125,-0.005249,1741884845.3794649
0.087,-0.02675,0.2415,-0.005539,-0.05998225,-0.00434875,1741884845.392639
0.046,-0.07825,0.2215,-0.00688175,-0.06269825,-0.0022277501,1741884845.409454
0.03375,-0.0985,0.2345,-0.0065765,-0.065857,-0.0019225,1741884845.421825
0.02525,-0.1055,0.258,-0.00239575,-0.06938175,-0.0015565,1741884845.436362
0.01675,-0.08325,0.3045,0.00105275,-0.069046,-0.0025940002,1741884845.450838
0.01725,-0.06175,0.3205,0.004242,-0.0652465,-0.0062865,1741884845.465369
0.01375,-0.044,0.33375,0.0022277501,-0.06251525,-0.0068512503,1741884845.4798698
0.00475,-0.04325,0.33325,-0.00440975,-0.058014,-0.003891,1741884845.4944608
-0.02375,-0.05775,0.33075,-0.0054475004,-0.057418752,-0.000824,1741884845.509352
-0.047,-0.0685,0.3325,-0.002655,-0.0579375,0.0042725,1741884845.5235488
-0.071,-0.066,0.342,-0.0015105,-0.05802925,0.0048979996,1741884845.540318
-0.0705,-0.04325,0.34675,-0.00154125,-0.057327252,0.003662,1741884845.552762
-0.06625,-0.00725,0.354,-0.00381475,-0.050231997,-0.0031889998,1741884845.569039
-0.06875,-0.00475,0.3575,-0.006012,-0.0449525,-0.0064239996,1741884845.582056
-0.07725,-0.012,0.365,-0.01083375,-0.03598025,-0.00767525,1741884845.596747
-0.08775,-0.04175,0.43275,-0.01194775,-0.030914249,-0.00596625,1741884845.611377
-0.07275,-0.0595,0.5105,-0.01092525,-0.009506251,0.001175,1741884845.6259441
0.0075,-0.07325,0.73,-0.009582501,0.01042175,0.00614925,1741884845.640359
0.035,-0.053,0.823,-0.005005,0.0706635,0.01525875,1741884845.654718
-0.03775,-0.03225,0.90875,-0.00279225,0.10920725,0.0157165,1741884845.669159
-0.111,-0.0115,0.90675,0.0,0.1896515,-0.00057975,1741884845.683657
-0.26475,0.026,0.91975,0.0013427499,0.2219695,-0.01351925,1741884845.698616
-0.318,-0.00175,0.9135,0.00331125,0.2434845,-0.02253725,1741884845.712576
-0.36375,-0.027,0.86425,0.015976,0.25785825,-0.016235251,1741884845.7293031
-0.4555,-0.03425,0.593,0.0246125,0.2543335,-0.0089875,1741884845.7415879
-0.462,-0.04425,0.4125,0.030487,0.23309325,0.0018005001,1741884845.755949
-0.4995,-0.10275,0.02275,0.03230275,0.21922301,0.0109709995,1741884845.7703848
-0.55875,-0.127,-0.2245,0.031356752,0.1836395,0.035736,1741884845.784847
-0.62075,-0.0445,-0.64425,0.027481,0.1532135,0.040664747,1741884845.799419
-0.5555,0.03725,-0.68925,0.01564025,0.06767275,0.0272065,1741884845.8137941
-0.33075,0.15025,-0.50925,0.008346501,0.02769475,0.0166625,1741884845.82947
-0.2165,0.159,-0.39275,0.00314325,-0.003006,0.006363,1741884845.842664
-0.10525,0.1315,-0.29775,0.0001525,-0.0405425,-0.012024,1741884845.8586931
0.11625,0.0535,-0.12125,-0.00131225,-0.0526275,-0.017685,1741884845.8717282
0.21275,0.0235,-0.04075,-0.0024872501,-0.061996497,-0.02153025,1741884845.886252
0.31925,-0.0305,0.05475,-0.00137325,-0.05859375,-0.021041749,1741884845.900785
0.32825,-0.0805,0.06,-0.00175475,-0.04293825,-0.01911925,1741884845.915352
0.34,-0.12375,0.06375,-0.0020752498,-0.035553,-0.01826475,1741884845.929919
0.339,-0.11325,0.05075,-0.00251775,-0.0298615,-0.0115815,1741884845.944533
0.3155,-0.0675,0.023,-0.0029449998,-0.02923575,-0.00715625,1741884845.959646
0.29725,-0.04575,0.01875,-0.0029755002,-0.028015248,-0.0035704998,1741884845.973623
0.27525,-0.03375,0.011,-0.0044555003,-0.023407,0.00080875,1741884845.991124
0.22275,-0.03275,-0.01825,-0.0064239996,-0.02224725,0.00267025,1741884846.002711
0.2045,-0.03475,-0.0155,-0.0064545004,-0.027404752,0.00517275,1741884846.019163
0.1835,-0.021,-0.00675,-0.0053252503,-0.031433,0.00416575,1741884846.0318332
0.171,-0.01475,-0.01425,-0.00372325,-0.03964225,-0.00061025,1741884846.046541
0.14675,-0.0125,-0.03075,-0.0044250004,-0.044967752,-0.00231925,1741884846.0613241
0.142,-0.01325,-0.02725,-0.00665275,-0.056244,-0.0045625,1741884846.075913
0.137,-0.012,0.0045,-0.00715625,-0.06045525,-0.0057677496,1741884846.09055
0.13175,-0.024,0.02775,-0.0070647504,-0.066146754,-0.0068512503,1741884846.1050198
0.14225,-0.06325,0.105,-0.0062865,-0.06796275,-0.00662225,1741884846.1196392
0.14825,-0.061,0.131,-0.00555425,-0.06906125,-0.006256,1741884846.13423
0.1365,-0.03775,0.1345,-0.0068665,-0.07051075,-0.0033875,1741884846.1494
0.1225,-0.02725,0.135,-0.009231499,-0.07194525,-0.00146475,1741884846.163472
0.106,-0.02525,0.143,-0.012207,-0.076934755,0.00080875,1741884846.179104
0.0895,-0.053,0.1975,-0.011550999,-0.079193,0.0013580001,1741884846.192439
0.087,-0.0625,0.236,-0.00665275,-0.077652,0.000229,1741884846.206836
0.07125,-0.06975,0.287,-0.0038299998,-0.07463075,-0.00163275,1741884846.221442
0.05825,-0.063,0.28975,-0.0021057501,-0.07095325,-0.0047150003,1741884846.235958
0.03325,-0.04225,0.27175,-0.002365,-0.071029745,-0.00505075,1741884846.250509
0.0165,-0.03375,0.268,-0.0012055,-0.07374575,-0.00593575,1741884846.265093
-0.018,-0.0495,0.2925,0.00061025,-0.07576,-0.0065307496,1741884846.2796512
-0.01825,-0.0805,0.3215,0.0025634998,-0.07716375,-0.00672925,1741884846.294241
-0.00675,-0.104,0.35725,0.00305175,-0.07418825,-0.00590525,1741884846.30965
0.01925,-0.078,0.40225,0.0025025,-0.0692445,-0.005783,1741884846.3232598
0.01925,-0.05275,0.39925,0.0023497501,-0.056778,-0.0060577504,1741884846.340418
-0.0175,-0.031,0.35925,0.0012207499,-0.05148325,-0.0049895,1741884846.352347
-0.04275,-0.03075,0.331,-0.00428775,-0.0450135,-0.00187675,1741884846.369202
-0.08,-0.012,0.2995,-0.00643925,-0.044128504,-0.00163275,1741884846.381739
-0.098,-0.0005,0.29675,-0.008072,-0.045410253,-0.0041044997,1741884846.396354
-0.11775,-0.00625,0.3115,-0.009903,-0.045700002,-0.006012,1741884846.410995
-0.11375,-0.01725,0.33175,-0.01513675,-0.0433655,-0.009017999,1741884846.425654
-0.0765,-0.065,0.44025,-0.0166625,-0.03913875,-0.009017999,1741884846.4406269
-0.02825,-0.102,0.561,-0.016983,-0.03005975,-0.0056915004,1741884846.454987
0.109,-0.11325,0.8845,-0.0123595,0.014160249,0.0154725,1741884846.4694421
0.101,-0.0405,0.98,-0.0059510004,0.05062875,0.026886,1741884846.483868
0.00675,0.038,0.975,0.006302,0.13475025,0.02230825,1741884846.4987159
-0.199,0.0625,0.88875,0.0042267498,0.174591,0.0074004997,1741884846.5123599
-0.2505,0.03775,0.911,-0.003769,0.23922725,-0.01643375,1741884846.526828
-0.38075,-0.0145,0.9205,0.00125125,0.256668,-0.0206605,1741884846.541358
-0.42175,-0.04975,0.83875,0.01794425,0.258316,-0.01469425,1741884846.555826
-0.47425,-0.06175,0.50575,0.02500925,0.25231925,-0.007782,1741884846.570344
-0.52625,-0.07925,0.25325,0.030639749,0.24418649,0.00062550005,1741884846.584773
-0.5505,-0.1135,-0.02375,0.035034247,0.20755,0.02664175,1741884846.599473
-0.534,-0.073,-0.49225,0.030899,0.17752075,0.039184503,1741884846.6136582
-0.50625,-0.00575,-0.60925,0.0161895,0.096664496,0.04087825,1741884846.6294668
-0.34225,0.0955,-0.52475,0.0110015,0.058075,0.030334499,1741884846.642454
-0.24,0.1215,-0.42525,0.006012,0.00466925,0.0052795,1741884846.658795
-0.033,0.12425,-0.2535,0.00352475,-0.012436,-0.0038605002,1741884846.671425
0.0585,0.11675,-0.17975,-0.00099175,-0.0375825,-0.011886501,1741884846.68592
0.19925,0.04625,-0.041,-0.00317375,-0.0448455,-0.013641249,1741884846.700518
0.25325,-0.00525,0.0125,-0.002533,-0.0472565,-0.01634225,1741884846.7151098
0.29375,-0.05125,0.04075,0.000534,-0.038971,-0.02009575,1741884846.729771
0.3295,-0.115,0.0575,0.00068675,-0.032516498,-0.01852425,1741884846.744092
0.33425,-0.1225,0.066,0.00059500005,-0.023773251,-0.012252751,1741884846.759574
0.32975,-0.08125,0.07275,0.0008545,-0.0206145,-0.00930775,1741884846.7730508
0.31475,-0.06125,0.05825,0.0017852499,-0.013488751,-0.0043182503,1741884846.7875671
0.26925,-0.03425,0.002,0.0025940002,-0.01091,-0.002472,1741884846.8020868
0.246,-0.0245,-0.0255,0.0018005001,-0.011016751,0.000229,1741884846.8166
0.204,0.00025,-0.0575,0.00013725001,-0.013931249,3.0500001e-05,1741884846.831008
0.18575,0.00275,-0.06075,0.00042725,-0.01924125,-0.0018615,1741884846.845448
0.169,0.002,-0.05375,0.00408925,-0.033141997,-0.0069580004,1741884846.8598962
0.151,-0.00525,-0.028,0.00308225,-0.039215,-0.00883475,1741884846.8744361
0.152,-0.01875,-0.0155,-0.0016785001,-0.047607496,-0.00991825,1741884846.890549
0.159,-0.03575,0.0035,-0.0029449998,-0.05039975,-0.0093385,1741884846.9036238
0.16275,-0.03525,0.01075,-0.0044555003,-0.05473325,-0.0072480002,1741884846.919283
0.165,-0.02825,0.04075,-0.0060882503,-0.05682375,-0.0061035,1741884846.9327989
0.16075,-0.02875,0.059,-0.008667,-0.061355498,-0.0051880004,1741884846.949321
0.143,-0.0445,0.0835,-0.00891125,-0.06393425,-0.0050355,1741884846.96193
0.1365,-0.05725,0.09975,-0.00788875,-0.0691375,-0.0036162501,1741884846.976501
0.138,-0.06625,0.15075,-0.0059815003,-0.07032775,-0.0027312501,1741884846.9926
0.1365,-0.05775,0.174,-0.00276175,-0.069809,-0.002243,1741884847.005793
0.132,-0.0495,0.18725,0.0033570002,-0.065887496,-0.0023497501,1741884847.020174
0.11,-0.04225,0.19525,0.003296,-0.06451425,-0.00242625,1741884847.034661
0.0995,-0.052,0.215,-0.0029907501,-0.064941496,-0.00042725,1741884847.049912
0.113,-0.0735,0.278,-0.006775,-0.0657195,0.00105275,1741884847.063692
0.121,-0.067,0.2935,-0.008484,-0.06513975,0.00112925,1741884847.079544
0.10125,-0.042,0.26625,-0.0058287503,-0.06346125,0.0,1741884847.09259
0.07625,-0.043,0.24725,0.000122000005,-0.059097253,-0.001709,1741884847.1094131
0.032,-0.057,0.23775,0.000946,-0.0586395,-0.00177,1741884847.121591
0.0175,-0.05975,0.2425,0.00077825,-0.05982975,-0.001648,1741884847.1360378
0.005,-0.0665,0.25725,-0.0002595,-0.06280525,-0.00102225,1741884847.150555
0.00425,-0.0835,0.31975,-0.001068,-0.062729,-0.00048825,1741884847.165151
0.0085,-0.07475,0.3455,0.0002135,-0.05799875,-0.001068,1741884847.179806
-0.0145,-0.0365,0.338,0.00198375,-0.05517575,-0.001831,1741884847.1943932
-0.0365,-0.029,0.3135,0.00413525,-0.054809503,-0.0024414998,1741884847.209505
-0.07775,-0.0205,0.2805,0.0047302498,-0.0572815,-0.002655,1741884847.223609
-0.09175,-0.01375,0.277,0.0024414998,-0.06501775,-0.00579825,1741884847.240442
-0.102,-0.005,0.29575,-0.0009155,-0.0677185,-0.00874325,1741884847.252786
-0.10125,-0.01125,0.32225,-0.006546,-0.065979,-0.013854999,1741884847.269175
-0.10025,-0.02875,0.38625,-0.0075835,-0.061325002,-0.015747,1741884847.282153
-0.097,-0.029,0.41975,-0.008361749,-0.054183997,-0.016632,1741884847.298501
-0.05325,-0.05775,0.5495,-0.012115501,-0.03176875,-0.012054499,1741884847.311527
-0.015,-0.06175,0.6305,-0.014053251,-0.013992251,-0.0057525,1741884847.3262248
0.0195,-0.0595,0.71325,-0.010559,0.036728002,0.010879501,1741884847.340642
0.005,-0.02325,0.854,-0.0080415,0.0683135,0.016632,1741884847.3550038
-0.05575,-0.0065,0.87375,-0.00811775,0.13716125,0.00991825,1741884847.369633
-0.151,-0.0005,0.873,-0.0073395,0.173233,0.00010675,1741884847.384066
-0.1985,-0.01,0.91175,-0.00074775,0.241333,-0.012924249,1741884847.3994272
-0.34075,-0.023,0.9825,0.0056,0.261673,-0.0160675,1741884847.413219
-0.41975,-0.01825,0.92375,0.01908875,0.26838675,-0.01855475,1741884847.429493
-0.5045,-0.04875,0.604,0.021789499,0.2631225,-0.0158845,1741884847.442166
-0.5345,-0.08325,0.379,0.024947999,0.25640875,-0.009430001,1741884847.456649
-0.57425,-0.11275,0.1205,0.03392025,0.231018,0.01133725,1741884847.4710379
-0.63275,-0.0965,-0.40325,0.032470748,0.2062835,0.021698,1741884847.4855292
-0.63025,-0.0435,-0.5765,0.025085501,0.1273955,0.03468325,1741884847.500018
-0.53375,0.059,-0.62375,0.0182495,0.080719,0.03424075,1741884847.51443
-0.4235,0.09575,-0.5255,0.003662,0.00463875,0.01890575,1741884847.5296268
-0.15,0.14575,-0.31075,-0.00061025,-0.020401,0.0068969997,1741884847.543534
-0.017,0.13375,-0.22525,-0.0058287503,-0.05159,-0.0113525,1741884847.559413
0.237,0.06125,-0.016,-0.007553,-0.0611115,-0.012207,1741884847.572916
0.3225,0.0155,0.0665,-0.0076905,-0.06410225,-0.01036075,1741884847.587411
0.40625,-0.054,0.09525,-0.0062865,-0.04385375,-0.013412501,1741884847.601977
0.4085,-0.0745,0.06575,-0.00511175,-0.0308685,-0.014679,1741884847.6166131
0.38675,-0.0835,0.02575,-0.00355525,-0.018585252,-0.01142875,1741884847.631188
0.307,-0.0615,-0.043,-0.00292975,-0.018859752,-0.0093385,1741884847.6458309
0.2675,-0.04525,-0.05675,-0.00160225,-0.02563475,-0.00773625,1741884847.660502
0.23125,-0.04025,-0.01925,-0.00102225,-0.028839001,-0.0070647504,1741884847.675103
0.23575,-0.03875,0.01175,-0.00115975,-0.0290375,-0.004303,1741884847.69053
0.23975,-0.034,0.03675,-0.0028535,-0.02633675,-0.0025787498,1741884847.704203
0.2325,-0.027,0.027,-0.0021057501,-0.024414,-0.00064075,1741884847.719388
0.19775,-0.0135,-0.01925,-0.00057975,-0.025879,-0.00071725,1741884847.7336252
0.17575,-0.0055,-0.04125,-0.00048825,-0.032287497,-0.00201425,1741884847.749452
0.14025,-0.0025,-0.05925,-0.0025634998,-0.037475497,-0.0020599999,1741884847.762913
0.132,0.004,-0.051,-0.0058287503,-0.043578997,-0.001419,1741884847.779135
0.131,0.00325,-0.0365,-0.00842275,-0.053222753,-0.0025634998,1741884847.792206
0.13275,-0.036,0.00325,-0.007309,-0.055786252,-0.0039215,1741884847.8068402
0.13325,-0.04925,0.0275,-0.0070037497,-0.06172175,-0.0042115003,1741884847.8213902
0.13275,-0.056,0.07325,-0.008194,-0.066070504,-0.00334175,1741884847.835914
0.13325,-0.05575,0.097,-0.01077275,-0.074462995,-0.00019825,1741884847.8504891
0.13,-0.0415,0.14775,-0.01121525,-0.07696525,0.00093075,1741884847.865008
0.126,-0.041,0.1755,-0.00930775,-0.07917775,0.00184625,1741884847.8798568
0.143,-0.04625,0.24575,-0.0068055,-0.07849125,0.0016785001,1741884847.894123
0.1555,-0.03825,0.276,0.00035100002,-0.07109075,-0.00115975,1741884847.9096372
0.1405,-0.018,0.2955,0.0027312501,-0.06587225,-0.00328075,1741884847.923121
0.12125,-0.014,0.28575,0.00270075,-0.06172175,-0.0047150003,1741884847.937598
0.1045,-0.013,0.2665,-0.0017852499,-0.059021,-0.0052795,1741884847.952192
0.07325,-0.02,0.236,-0.0038605002,-0.06027225,-0.0048217503,1741884847.966819
0.06525,-0.04675,0.25075,-0.004486,-0.06404125,-0.0033264998,1741884847.981339
0.08325,-0.0945,0.33275,-0.0021515,-0.06327825,-0.002121,1741884847.995913
0.081,-0.0785,0.34975,0.00485225,-0.054367002,-0.0033570002,1741884848.0104032
0.04525,-0.03325,0.32175,0.0047912505,-0.049591,-0.0055695,1741884848.024823
0.028,-0.02525,0.3,-0.0032195,-0.04623425,-0.006073,1741884848.040416
-0.00375,-0.0215,0.269,-0.0057525,-0.048049998,-0.004074,1741884848.0541172
-0.01925,-0.02575,0.2595,-0.0035704998,-0.056076,-0.001709,1741884848.06921
-0.0485,-0.04025,0.2635,-0.0016632499,-0.059860248,-0.0032347501,1741884848.0835142
-0.05425,-0.04475,0.2715,-9.15e-05,-0.062530495,-0.0055847503,1741884848.0987341
-0.05275,-0.04175,0.281,-6.1000002e-05,-0.06324775,-0.010101249,1741884848.112808
-0.059,-0.0235,0.30975,-0.00320425,-0.061493002,-0.0118407495,1741884848.129389
-0.07425,-0.01925,0.3285,-0.01322925,-0.0564575,-0.011627249,1741884848.142198
-0.106,-0.0445,0.40225,-0.016570998,-0.05284125,-0.01033025,1741884848.1569312
-0.0765,-0.0775,0.5065,-0.01988225,-0.034958,-0.004303,1741884848.171521
0.123,-0.104,0.898,-0.019714251,-0.0135955,0.0043639997,1741884848.186114
0.186,-0.03725,1.0,-0.00437925,0.06617726,0.02415475,1741884848.2005298
0.00025,0.09175,1.0,0.008316,0.115921,0.024002,1741884848.214824
-0.14625,0.10125,0.94025,0.012771499,0.20715325,-0.0059967497,1741884848.229187
-0.3305,0.002,0.91125,0.00830075,0.24429324,-0.0231475,1741884848.2435908
-0.39775,-0.0325,0.9165,0.0072632497,0.26979074,-0.03149425,1741884848.258935
-0.49875,-0.031,0.825,0.028747499,0.27310175,-0.0318755,1741884848.272796
-0.5775,0.0045,0.37375,0.04025275,0.256958,-0.02873225,1741884848.287159
-0.56225,-0.01025,0.10775,0.04148875,0.21360776,-0.0002135,1741884848.3016682
-0.5455,-0.0365,-0.46075,0.033844,0.184433,0.019622749,1741884848.3161569
-0.511,0.001,-0.63575,0.015533499,0.103958,0.035843,1741884848.330583
-0.32075,0.09125,-0.57575,0.010681249,0.0608825,0.02876275,1741884848.344966
-0.20325,0.11975,-0.4405,0.00396725,0.0020295,0.00791925,1741884848.359675
0.00125,0.081,-0.2065,0.0019685,-0.01260375,0.0005035,1741884848.37373
0.09525,0.04175,-0.1205,6.1000002e-05,-0.02238475,-0.0042115003,1741884848.390906
0.1815,0.002,-0.04175,-0.0012055,-0.034225497,-0.0065917503,1741884848.4027479
0.29625,-0.069,0.06725,-0.000885,-0.034027,-0.00785825,1741884848.419434
0.32625,-0.0915,0.08525,0.0004425,-0.02244575,-0.012130749,1741884848.43177
0.336,-0.099,0.0575,0.0012665,-0.01661675,-0.0113525,1741884848.446302
0.32325,-0.08625,0.03525,-0.00099175,-0.011917,-0.004486,1741884848.4608781
0.2975,-0.04875,0.0175,-0.0022735,-0.0114744995,-0.0021057501,1741884848.475452
0.28775,-0.03625,0.01925,-0.00119025,-0.009719751,-0.00157175,1741884848.490775
0.26325,-0.03425,0.008,-0.000229,-0.008346501,-0.00157175,1741884848.5046542
0.24625,-0.03725,-0.00425,-6.1000002e-05,-0.00747675,-0.0009765,1741884848.519464
0.206,-0.03375,-0.027,0.00019825,-0.010086001,0.000183,1741884848.5337548
0.187,-0.028,-0.037,0.00057975,-0.01307675,0.00016775,1741884848.549577
0.173,-0.018,-0.04525,-0.000946,-0.02091975,-0.0012665,1741884848.562977
0.16375,-0.00675,-0.04525,-0.00228875,-0.0255585,-0.0018615,1741884848.579137
0.157,-0.01175,-0.0355,-0.0050965,-0.033722,-0.000473,1741884848.59232
0.158,-0.04475,0.008,-0.0049742498,-0.0370025,-0.00039675,1741884848.609333
0.16675,-0.06225,0.028,-0.0012207499,-0.042251498,-0.0023345,1741884848.62144
0.17575,-0.071,0.05575,-0.00016775,-0.04467775,-0.0029449998,1741884848.6360478
0.17625,-0.061,0.0655,-0.0028535,-0.04922475,-0.00198375,1741884848.650663
0.177,-0.03675,0.0725,-0.0059815003,-0.0505675,-0.00074775,1741884848.665306
0.17375,-0.04025,0.07875,-0.00842275,-0.05116275,0.000534,1741884848.679751
0.17125,-0.06325,0.1195,-0.006668,-0.05189525,0.0018005001,1741884848.694408
0.17075,-0.05875,0.14825,-0.0029907501,-0.05230725,0.00105275,1741884848.7096791
0.16975,-0.044,0.172,0.0047607496,-0.0550995,-0.00331125,1741884848.723379
0.173,-0.0235,0.19125,0.00643925,-0.057586752,-0.0062407497,1741884848.740492
0.171,-0.02375,0.185,0.001419,-0.06073,-0.008941749,1741884848.752712
0.13875,-0.036,0.1675,-0.0030975002,-0.060165502,-0.00737,1741884848.7692502
0.12,-0.052,0.17475,-0.0070495,-0.05773925,-0.0017242499,1741884848.781914
0.10175,-0.07725,0.2185,-0.0052185003,-0.057433996,9.15e-05,1741884848.7963572
0.093,-0.07025,0.2335,0.0025940002,-0.05865475,-0.001648,1741884848.8108869
0.06825,-0.059,0.241,0.00617975,-0.059021,-0.0036162501,1741884848.825386
0.05625,-0.06225,0.247,0.0086975,-0.059570253,-0.0051880004,1741884848.840684
0.04475,-0.0665,0.25075,0.010391249,-0.0638885,-0.0077210004,1741884848.854315
0.03125,-0.068,0.25075,0.010162249,-0.066574,-0.00924675,1741884848.869699
0.02225,-0.073,0.251,0.009887749,-0.06965625,-0.01071175,1741884848.883303
-0.01025,-0.09625,0.25525,0.010452249,-0.07020575,-0.010024999,1741884848.899082
-0.028,-0.09725,0.26375,0.011856,-0.0703125,-0.0075377496,1741884848.9124138
-0.0485,-0.073,0.281,0.012207,-0.07011425,-0.0077210004,1741884848.929585
-0.05525,-0.055,0.29325,0.0059815003,-0.06796275,-0.01142875,1741884848.941779
-0.06675,-0.04925,0.3255,-0.00090025004,-0.06564325,-0.012909001,1741884848.9564831
-0.06575,-0.06675,0.33475,-0.0144805005,-0.0603485,-0.012130749,1741884848.9711459
-0.07375,-0.098,0.355,-0.01744075,-0.0573425,-0.01048275,1741884848.985894
-0.07975,-0.1105,0.36725,-0.017578252,-0.05404675,-0.0085602505,1741884849.000515
-0.0915,-0.095,0.39575,-0.016327,-0.049118,-0.00596625,1741884849.015154
-0.0835,-0.07525,0.435,-0.016448999,-0.0453645,-0.00520325,1741884849.0297768
-0.06025,-0.06075,0.49975,-0.0194245,-0.02519225,-0.000412,1741884849.0445042
0.05525,-0.1005,0.72925,-0.02050775,-0.0065002497,0.0052795,1741884849.059361
0.11725,-0.1115,0.85125,-0.01481625,0.055603,0.0247955,1741884849.073369
0.06125,-0.06625,0.9815,-0.0077515002,0.096847504,0.031158501,1741884849.0877209
-0.02075,-0.04725,0.98575,0.00564575,0.18203725,0.01814275,1741884849.102093
-0.21875,0.00975,0.9875,0.0095672505,0.2238465,0.00381475,1741884849.116436
-0.31275,0.03,0.998,0.009277251,0.25927725,-0.00903325,1741884849.1307478
-0.496,-0.03425,0.9175,0.012085,0.28538525,-0.01823425,1741884849.14518
-0.5705,-0.0775,0.7555,0.02224725,0.2792815,-0.0161895,1741884849.159709
-0.622,-0.088,0.52,0.048874002,0.25567624,-0.004547,1741884849.174206
-0.63175,-0.08875,-0.0275,0.053604,0.23669425,0.00903325,1741884849.1904588
-0.6395,-0.08225,-0.31275,0.03848275,0.16873175,0.04768375,1741884849.203191
-0.6415,-0.0145,-0.683,0.028991751,0.123001,0.05708325,1741884849.2191858
-0.53625,0.06575,-0.6555,0.011123749,0.036620997,0.037323,1741884849.232086
-0.236,0.191,-0.401,0.00440975,0.0039215,0.02006525,1741884849.248702
-0.1035,0.1935,-0.28975,0.000763,-0.019134501,0.00541675,1741884849.26123
0.12275,0.11025,-0.1185,-0.00520325,-0.04493725,-0.0116425,1741884849.275763
0.22,0.05475,-0.0325,-0.00662225,-0.052001998,-0.0154115,1741884849.290375
0.2965,-0.0035,0.03925,-0.0042267498,-0.048584,-0.02124025,1741884849.3048398
0.365,-0.11725,0.08625,-0.00231925,-0.038513247,-0.02227775,1741884849.319778
0.363,-0.15225,0.07275,-0.0013275,-0.020446751,-0.014862,1741884849.33405
0.3285,-0.1365,0.026,-0.0023497501,-0.017273001,-0.0088195,1741884849.349665
0.309,-0.101,0.011,-0.00279225,-0.0175935,-0.0015105,1741884849.363318
0.274,-0.03125,-0.0045,-0.00177,-0.018341,-0.0014037499,1741884849.3792472
0.2615,-0.016,-0.006,-0.001831,-0.018035999,-0.00157175,1741884849.392687
0.24925,-0.01525,0.01175,-0.00289925,-0.017028749,-0.00068675,1741884849.409759
0.23425,-0.01925,0.0105,-0.00358575,-0.0166625,0.0003815,1741884849.421671
0.187,-0.0295,-0.02,-0.003128,-0.017852752,0.00010675,1741884849.436368
0.16375,-0.03175,-0.04075,-0.0029145,-0.0201875,-0.0003815,1741884849.4510012
0.14325,-0.031,-0.05975,-0.00535575,-0.0281525,-0.000183,1741884849.465822
0.11825,-0.01275,-0.06775,-0.00723275,-0.034362752,0.000122000005,1741884849.480365
0.12125,-0.00575,-0.0505,-0.0080872495,-0.04837025,-0.0012055,1741884849.494951
0.15075,-0.01175,0.019,-0.00794975,-0.052612253,-0.002777,1741884849.509758
0.1605,-0.0205,0.0465,-0.008316,-0.0559845,-0.0060425,1741884849.524129
0.15925,-0.047,0.069,-0.008484,-0.057235748,-0.007019,1741884849.539979
0.15225,-0.06075,0.071,-0.0100555,-0.061828498,-0.0060272496,1741884849.55334
0.144,-0.075,0.09525,-0.0112915,-0.0650025,-0.003952,1741884849.569244
0.1545,-0.0765,0.13475,-0.0110015,-0.06918325,0.0012207499,1741884849.5824032
0.1915,-0.05675,0.217,-0.009277251,-0.06767275,0.0028074998,1741884849.5969
0.2035,-0.043,0.24275,-0.00741575,-0.06269825,0.0029755002,1741884849.611397
0.20975,-0.036,0.2585,-0.00764475,-0.04714975,0.001236,1741884849.6259048
0.2025,-0.04225,0.253,-0.009002751,-0.040573,0.00045775,1741884849.640397
0.18575,-0.04775,0.23525,-0.0070495,-0.035843,0.0005035,1741884849.654915
0.1435,-0.05325,0.19725,-0.00390625,-0.037414502,0.00054925,1741884849.669398
0.12075,-0.04825,0.18225,0.00033575002,-0.044616748,-0.0005035,1741884849.683841
0.0715,-0.04,0.17825,0.00067150005,-0.049408,-0.00143425,1741884849.698808
0.04825,-0.047,0.19025,-0.00231925,-0.061798,-0.0042267498,1741884849.7129831
0.0285,-0.075,0.24275,-0.0054780003,-0.067977995,-0.0052337497,1741884849.729528
0.03025,-0.0835,0.27825,-0.00782775,-0.072158754,-0.0048979996,1741884849.742165
0.039,-0.0905,0.34275,-0.006302,-0.07339475,-0.0007935,1741884849.756762
0.039,-0.07925,0.3585,-0.002884,-0.07206725,0.001175,1741884849.771302
0.03075,-0.05425,0.35,0.0060577504,-0.07086175,0.00148,1741884849.7857778
-0.01825,0.0125,0.2915,0.0075682504,-0.071701,-0.0004425,1741884849.800322
-0.051,0.036,0.27125,-0.0066985004,-0.07662975,-0.0062712496,1741884849.814833
-0.0995,0.01625,0.27025,-0.01747125,-0.0812835,-0.00694275,1741884849.829432
-0.1125,-0.0135,0.2895,-0.02342225,-0.088913,-0.0048065,1741884849.844172
-0.0915,-0.08175,0.442,-0.0195465,-0.0883485,-0.005005,1741884849.858881
-0.01175,-0.1205,0.64625,-0.015808,-0.06106575,0.00146475,1741884849.8734899
0.24325,-0.06275,1.0,-0.01573175,-0.024826,0.01460275,1741884849.889746
0.22625,0.01825,1.0,-0.00842275,0.027282748,0.02854925,1741884849.902339
0.0755,0.06825,1.0,0.010253999,0.14720151,0.029327499,1741884849.916575
-0.197,0.07375,0.98825,0.006256,0.19839475,0.013412501,1741884849.931008
-0.26575,0.046,0.99425,-0.00064075,0.26838675,-0.026092501,1741884849.9455528
-0.415,-0.00625,0.964,0.0036162501,0.2865295,-0.035949748,1741884849.9601102
-0.4875,-0.01825,0.87275,0.013443,0.2873535,-0.0249635,1741884849.974564
-0.55375,-0.11625,0.5035,0.017105,0.27339175,-0.014938249,1741884849.98982
-0.57325,-0.145,0.23775,0.02919,0.23635875,0.0029907501,1741884850.003579
-0.64275,-0.13825,-0.2815,0.032180753,0.21084599,0.017212,1741884850.0191731
-0.646,-0.07425,-0.47925,0.0298615,0.17713925,0.03070075,1741884850.032685
-0.60475,0.01925,-0.58275,0.016235251,0.09214775,0.037857,1741884850.0470889
-0.41525,0.1335,-0.47925,0.008712751,0.0523225,0.029831,1741884850.0616572
-0.288,0.14325,-0.37675,0.00090025004,-0.0019685,0.0037995,1741884850.0761511
-0.03825,0.12,-0.2455,-0.0002135,-0.01893625,-0.0075225,1741884850.090824
0.0785,0.0905,-0.17325,-0.0046845004,-0.043640252,-0.01766975,1741884850.105375
0.2615,0.00825,-0.035,-0.00587475,-0.050659247,-0.017517,1741884850.12004
0.30575,-0.04,0.00725,-0.0054780003,-0.042861998,-0.01811225,1741884850.13458
0.344,-0.101,0.0215,-0.00416575,-0.03341675,-0.018402,1741884850.149633
0.34275,-0.11275,0.0035,-0.00396725,-0.01968375,-0.0112,1741884850.163669
0.3275,-0.08375,-0.0145,-0.0047912505,-0.0160675,-0.0060272496,1741884850.179281
0.3105,-0.0545,-0.02825,-0.004593,-0.01412975,-0.00302125,1741884850.193147
0.26225,-0.01475,-0.07575,-0.0021057501,-0.01431275,-0.0032655,1741884850.20953
0.24,-0.0085,-0.0915,-0.00201425,-0.016143749,-0.0034942501,1741884850.222667
0.2215,-0.01375,-0.08675,-0.00460825,-0.0213165,-0.001419,1741884850.23731
0.215,-0.03875,-0.029,-0.0058135,-0.0237885,-0.0009155,1741884850.25191
0.2205,-0.05275,0.0005,-0.0048217503,-0.0251465,-0.001953,1741884850.266471
0.22025,-0.065,0.0215,-0.0020599999,-0.024414,-0.0027160002,1741884850.281043
0.20775,-0.0595,0.00275,0.0005645,-0.023178,-0.0033570002,1741884850.2954922
0.18175,-0.03925,-0.03375,-0.000412,-0.02442925,-0.0031585,1741884850.310268
0.1715,-0.02925,-0.04625,-0.00119025,-0.03129575,-0.0048674997,1741884850.324955
0.15675,-0.031,-0.05275,-0.0012817499,-0.035965,-0.005066,1741884850.339589
0.1635,-0.0395,-0.0265,-0.00276175,-0.04420475,-0.00193775,1741884850.354311
0.19925,-0.041,0.0425,-0.00343325,-0.04650875,-0.00071725,1741884850.3695931
0.20375,-0.039,0.0545,-0.0042572496,-0.04800425,-0.00071725,1741884850.383467
0.19625,-0.04175,0.0505,-0.00561525,-0.05131525,-0.0028074998,1741884850.399749
0.16625,-0.048,0.03625,-0.0056304997,-0.0542755,-0.0038757501,1741884850.412759
0.1555,-0.049,0.04425,-0.0052337497,-0.06314075,-0.00367725,1741884850.429587
0.153,-0.03425,0.0915,-0.00538625,-0.06808475,-0.00251775,1741884850.441949
0.1545,-0.023,0.12025,-0.0074004997,-0.075882,-0.00039675,1741884850.4564328
0.149,-0.018,0.15475,-0.0081635,-0.077987745,-0.000229,1741884850.471166
0.13725,-0.0295,0.1615,-0.0072937496,-0.079208255,-0.0020599999,1741884850.485734
0.10275,-0.05175,0.183,-0.0062407497,-0.079589754,-0.0033722501,1741884850.5003169
0.09175,-0.066,0.20725,-0.00541675,-0.082275495,-0.0029449998,1741884850.5149708
0.081,-0.07,0.27225,-0.00671375,-0.08235175,-0.00231925,1741884850.529786
0.07675,-0.0615,0.2825,-0.008545,-0.0811005,-0.00231925,1741884850.544023
0.0665,-0.0555,0.27175,-0.010849,-0.077652,-0.000946,1741884850.56012
0.054,-0.04975,0.27,-0.0100707505,-0.075698756,0.00112925,1741884850.573053
0.0365,-0.0435,0.27075,-0.00328075,-0.072876,0.0024414998,1741884850.590227
-0.00575,-0.02225,0.2845,0.00074775,-0.0732575,0.00024425,1741884850.602048
-0.02025,-0.00975,0.29525,0.00160225,-0.077911496,-0.00668325,1741884850.616668
-0.02825,-0.02425,0.3085,-0.00355525,-0.079773,-0.00868225,1741884850.631406
-0.03625,-0.0485,0.318,-0.015075751,-0.076004,-0.0073242504,1741884850.6461172
-0.063,-0.076,0.3525,-0.01586925,-0.0711975,-0.0054015,1741884850.660844
-0.06225,-0.07425,0.36975,-0.0089569995,-0.0608215,-0.0029907501,1741884850.675473
-0.05375,-0.00625,0.408,-0.0066985004,-0.05682375,-0.00352475,1741884850.690153
-0.04725,0.03125,0.44725,-0.01077275,-0.044570997,-0.0076142503,1741884850.704833
0.0355,-0.0165,0.63575,-0.0161895,-0.03129575,-0.0046539996,1741884850.719439
0.0905,-0.06675,0.78225,-0.019027751,-0.0094604995,0.0044707498,1741884850.733929
0.10775,-0.0915,0.9225,-0.002121,0.061782748,0.026352,1741884850.7493591
-0.06975,-0.056,1.0,0.012802,0.104461744,0.02873225,1741884850.762889
-0.177,-0.00125,0.985,0.020752002,0.18347175,0.0034637498,1741884850.7794921
-0.18825,0.05875,0.96,0.0157165,0.21727,-0.013702501,1741884850.7916071
-0.21375,0.0375,0.9895,0.016876249,0.2680665,-0.02162175,1741884850.806171
-0.447,-0.01375,0.90625,0.02313225,0.27946475,-0.018188499,1741884850.820725
-0.5415,-0.02175,0.73275,0.0376435,0.27578726,-0.008865249,1741884850.835158
-0.69525,-0.03475,0.1705,0.042724498,0.261963,0.000229,1741884850.8497422
-0.72925,-0.05575,-0.17575,0.04353325,0.23680125,0.0125275,1741884850.864377
-0.726,-0.059,-0.4815,0.032135,0.1569825,0.037460253,1741884850.879612
-0.6235,0.04525,-0.716,0.022354,0.10997,0.04039,1741884850.893383
-0.4975,0.101,-0.646,0.0076905,0.02575675,0.0219115,1741884850.909549
-0.18025,0.16125,-0.369,0.00411975,-0.00381475,0.0090485,1741884850.922359
-0.03725,0.17025,-0.25925,-0.002472,-0.03474425,-0.00737,1741884850.9398808
0.17925,0.11125,-0.10575,-0.0065155,-0.04208375,-0.01083375,1741884850.95173
0.25675,0.06125,-0.04775,-0.0097045,-0.049682498,-0.011901749,1741884850.966395
0.342,-0.084,0.05725,-0.00897225,-0.045654252,-0.0127105,1741884850.9809458
0.37725,-0.1245,0.10375,-0.003006,-0.027771,-0.0157165,1741884850.995473
0.3755,-0.126,0.08175,-0.00035100002,-0.01905825,-0.01345825,1741884851.0100229
0.344,-0.104,0.038,0.00039675,-0.01210025,-0.008865249,1741884851.0245602
0.30725,-0.07,-0.004,0.00067150005,-0.0070342496,-0.0016632499,1741884851.039936
0.241,-0.0115,-0.0585,0.0012665,-0.0077515002,-0.0009155,1741884851.053619
0.21425,-0.003,-0.0725,-1.5250001e-05,-0.011825499,-0.00036625,1741884851.069373
0.1765,-0.005,-0.07375,-0.002243,-0.014938249,0.00051875,1741884851.083039
0.1665,-0.01125,-0.068,-0.00434875,-0.023819,0.00131225,1741884851.0995789
0.16,-0.024,-0.04275,-0.0044250004,-0.027847249,0.001007,1741884851.112258
0.16175,-0.0225,-0.028,-0.0040435,-0.033996496,-0.00093075,1741884851.129662
0.1515,-0.0185,-0.022,-0.00428775,-0.036422748,-0.001648,1741884851.1414962
0.13875,-0.01675,-0.02875,-0.00411975,-0.040619,-0.0031585,1741884851.1562638
0.10725,-0.03125,-0.05,-0.00231925,-0.043075502,-0.0043335,1741884851.170809
0.0925,-0.02575,-0.05025,-0.00115975,-0.04714975,-0.00541675,1741884851.185515
0.10025,-0.02025,-0.007,-0.00460825,-0.0608215,-0.00694275,1741884851.200256
0.11475,-0.03475,0.03425,-0.0065765,-0.068344004,-0.0070342496,1741884851.214856
0.129,-0.04925,0.07425,-0.0065307496,-0.079986505,-0.00788875,1741884851.229813
0.145,-0.05725,0.12875,-0.00640875,-0.08300775,-0.008499251,1741884851.244071
0.1395,-0.05175,0.144,-0.0049895,-0.08412175,-0.00912475,1741884851.2597928
0.10575,-0.0405,0.17725,-0.00402825,-0.085022,-0.010086001,1741884851.273272
0.10475,-0.043,0.20675,-0.00852975,-0.08721925,-0.008606,1741884851.290283
0.11975,-0.0325,0.26825,-0.01272575,-0.0855865,-0.005005,1741884851.302451
0.107,-0.032,0.2805,-0.016128499,-0.0819245,0.0025025,1741884851.316894
0.05825,-0.0545,0.27175,-0.015579251,-0.082306,0.0034790002,1741884851.331341
0.0335,-0.073,0.28,-0.014068499,-0.08392325,0.001587,1741884851.345855
0.0155,-0.08875,0.32825,-0.0085755,-0.08866875,-0.00631725,1741884851.3604548
0.017,-0.07475,0.351,-0.00631725,-0.0889435,-0.009719751,1741884851.375017
0.0095,-0.05025,0.36,-0.0070647504,-0.08403025,-0.011749251,1741884851.389973
-0.02,-0.02225,0.34275,-0.008773751,-0.08117675,-0.011123749,1741884851.4042501
-0.037,-0.03175,0.3325,-0.010437001,-0.078079246,-0.0095672505,1741884851.41929
-0.07275,-0.059,0.33325,-0.0103455,-0.078064,-0.008255,1741884851.433581
-0.08925,-0.0605,0.3425,-0.01121525,-0.077942,-0.006775,1741884851.4495301
-0.098,-0.04,0.3675,-0.01248175,-0.0764465,-0.00842275,1741884851.462945
-0.09875,-0.02925,0.3825,-0.016113251,-0.06852725,-0.0116425,1741884851.479408
-0.09925,-0.03075,0.4485,-0.018097,-0.061096247,-0.010253999,1741884851.49213
-0.08225,-0.044,0.525,-0.018737748,-0.03462225,-0.0021515,1741884851.506763
0.00625,-0.03525,0.7285,-0.016327,-0.0126495,0.002655,1741884851.5212429
0.0315,-0.01925,0.83475,-0.011550999,0.0161895,0.007904,1741884851.5357509
0.00525,-0.007,0.925,0.00027475,0.09220875,0.016845752,1741884851.55005
-0.12825,0.00625,0.944,0.00444025,0.1346435,0.014434749,1741884851.564385
-0.1905,0.03175,0.94875,0.008148249,0.21582025,-0.0033570002,1741884851.579614
-0.30475,-0.0105,0.99725,0.0046539996,0.24884026,-0.014145001,1741884851.593479
-0.3665,-0.062,0.9965,0.0153807495,0.2794495,-0.0247955,1741884851.609368
-0.54975,-0.04225,0.774,0.02769475,0.27648926,-0.024887,1741884851.6224508
-0.60725,0.02925,0.52625,0.03591925,0.25083926,-0.013717749,1741884851.636841
-0.66025,-0.02175,-0.00675,0.03550725,0.23188776,0.000946,1741884851.6514509
-0.67625,-0.052,-0.25475,0.033264253,0.20639025,0.015747,1741884851.665945
-0.671,-0.024,-0.4875,0.0288085,0.1359405,0.028473,1741884851.6803808
-0.51625,0.10025,-0.69325,0.0250245,0.09375,0.027679501,1741884851.694955
-0.384,0.167,-0.61175,0.0125275,0.018859752,0.016723748,1741884851.709764
-0.04,0.19175,-0.26625,0.00747675,-0.0033722501,0.008209251,1741884851.724173
0.1255,0.16025,-0.133,0.0072175004,-0.021927001,-0.011078,1741884851.740044
0.34125,0.03425,-0.041,0.00640875,-0.024475,-0.016296498,1741884851.7533708
0.38575,-0.0295,-0.02375,-0.0002135,-0.019622749,-0.01460275,1741884851.769254
0.38975,-0.08275,0.0155,-0.00137325,-0.013443,-0.01148975,1741884851.7827368
0.35975,-0.0775,0.0045,0.0013885,-0.0025787498,-0.00737,1741884851.799426
0.272,-0.04975,-0.06325,0.0023039998,-0.00090025004,-0.00561525,1741884851.8118908
0.2395,-0.03775,-0.07975,0.00263975,-0.001892,-0.003952,1741884851.8264499
0.224,-0.03075,-0.0725,0.0029145,-0.0052337497,-0.00146475,1741884851.841023
0.21875,-0.025,-0.052,0.00296025,-0.0056609996,-0.00036625,1741884851.855654
0.218,-0.02025,-0.0515,0.0027312501,-0.00720225,-0.00064075,1741884851.8701692
0.2285,-0.00825,-0.04125,0.00364675,-0.008941749,-0.0022125002,1741884851.884734
0.22625,-0.005,-0.038,0.0065612504,-0.01345825,-0.0052337497,1741884851.8995829
0.22425,-0.00125,-0.02875,0.0057525,-0.014938249,-0.006012,1741884851.913755
0.22525,-0.0065,-0.02425,0.0021972498,-0.012847999,-0.00587475,1741884851.9296691
0.2125,-0.03375,-0.025,0.00187675,-0.01165775,-0.0060425,1741884851.94303
0.21325,-0.04225,-0.02175,0.0019225,-0.0116425,-0.0052642496,1741884851.9595351
0.21325,-0.05175,-0.0255,0.00177,-0.01210025,-0.0042115003,1741884851.972244
0.21275,-0.0515,-0.031,0.001892,-0.0129700005,-0.00352475,1741884851.986732
0.219,-0.04825,-0.03025,0.0016175,-0.01640325,-0.003296,1741884852.0012538
0.23725,-0.0455,-0.01475,0.00083925005,-0.018219,-0.003296,1741884852.015856
0.23675,-0.0465,-0.0045,-0.00024425,-0.02149975,-0.00358575,1741884852.030575
0.25475,-0.05725,0.037,-0.0001525,-0.02244575,-0.0034484998,1741884852.045171
0.27175,-0.05925,0.0585,0.00198375,-0.01826475,-0.00279225,1741884852.059832
0.2745,-0.055,0.06425,0.00292975,-0.0149995005,-0.0024872501,1741884852.074247
0.27025,-0.049,0.054,0.002533,-0.011764499,-0.00198375,1741884852.090114
0.25825,-0.03275,0.0315,0.00190725,-0.01142875,-0.0020599999,1741884852.103248
0.25075,-0.02625,0.026,0.00033575002,-0.012085,-0.00343325,1741884852.119199
0.2525,-0.03125,0.03525,-0.00086975005,-0.012436,-0.00369275,1741884852.132313
