acc_x,acc_y,acc_z,gyro_x,gyro_y,gyro_z,timestamp
-0.03425,-0.24925,0.02125,-0.0002135,0.00013725001,0.00080875,1741884921.409347
-0.0355,-0.2475,0.02025,-0.00024425,0.0,0.0007935,1741884921.420846
-0.03525,-0.24775,0.02075,-0.00039675,-0.000229,0.00061025,1741884921.4362051
-0.0355,-0.25075,0.02125,-0.00030525,-0.00042725,0.00039675,1741884921.450103
-0.03425,-0.25025,0.02275,-0.0001525,-0.0007935,0.00036625,1741884921.464629
-0.03225,-0.24875,0.023,-0.000122000005,-0.000763,0.00045775,1741884921.479179
-0.0325,-0.24725,0.02225,-0.0002135,-0.0005035,0.00068675,1741884921.493649
-0.034,-0.24675,0.022,-0.00024425,-0.000534,0.00068675,1741884921.5088909
-0.03425,-0.2475,0.02275,-0.00016775,-0.00067150005,0.00051875,1741884921.522798
-0.03175,-0.249,0.02575,3.0500001e-05,-0.0007325,6.1000002e-05,1741884921.537197
-0.0315,-0.24925,0.02525,0.000122000005,-0.00051875,0.0,1741884921.55164
-0.03175,-0.24875,0.0245,4.575e-05,-0.0001525,0.00029,1741884921.566143
-0.03175,-0.24725,0.02325,-1.5250001e-05,-1.5250001e-05,0.00042725,1741884921.5807538
-0.03275,-0.2475,0.02175,-3.0500001e-05,6.1000002e-05,0.00051875,1741884921.595366
-0.03375,-0.24625,0.02,-9.15e-05,-3.0500001e-05,0.00057975,1741884921.609948
-0.0335,-0.246,0.0205,3.0500001e-05,-0.00061025,0.000534,1741884921.6244
-0.0305,-0.2475,0.02375,9.15e-05,-0.000824,0.000412,1741884921.639725
-0.03,-0.24925,0.024,0.00016775,-0.00065625,0.00016775,1741884921.653364
-0.03075,-0.251,0.02475,0.00019825,-0.000412,9.15e-05,1741884921.668085
-0.03175,-0.252,0.0235,0.00027475,-0.000122000005,4.575e-05,1741884921.6822798
-0.03325,-0.2525,0.02175,0.00033575002,9.15e-05,0.00019825,1741884921.6977742
-0.03125,-0.24975,0.0225,0.0002135,4.575e-05,0.0003815,1741884921.711166
-0.03,-0.24825,0.0225,6.1000002e-05,4.575e-05,0.000473,1741884921.725645
-0.02975,-0.2455,0.022,0.0,7.625e-05,0.00042725,1741884921.739914
-0.03075,-0.245,0.022,-0.0002135,0.000229,0.00024425,1741884921.754354
-0.03425,-0.24825,0.02175,-0.0001525,0.00019825,-9.15e-05,1741884921.7689002
-0.0345,-0.251,0.0225,-3.0500001e-05,4.575e-05,-0.0003815,1741884921.783434
-0.03275,-0.2535,0.024,0.0,-0.000183,0.0,1741884921.7986932
-0.03125,-0.2515,0.02525,-4.575e-05,-0.00013725001,0.0003815,1741884921.8126469
-0.03025,-0.2495,0.025,-0.00010675,0.0002595,0.0008545,1741884921.828683
-0.03225,-0.248,0.02125,-0.00013725001,0.0003205,0.0010375,1741884921.841559
-0.03325,-0.2485,0.0205,-0.000229,-0.0003815,0.0019225,1741884921.856174
-0.03225,-0.2485,0.0215,-0.00033575002,-0.00074775,0.00239575,1741884921.8707452
-0.03175,-0.24825,0.02175,-0.00029,-0.00125125,0.00245675,1741884921.8853152
-0.0295,-0.24725,0.02325,-0.00024425,-0.0014495,0.0022125002,1741884921.899913
-0.02825,-0.24675,0.0235,-0.0003205,-0.0016632499,0.0014495,1741884921.914495
-0.026,-0.249,0.023,-0.0004425,-0.0016785001,0.00112925,1741884921.9291961
-0.02525,-0.25,0.022,-0.00057975,-0.0016785001,0.00102225,1741884921.94376
-0.02525,-0.2505,0.02275,-0.00099175,-0.00177,0.0012055,1741884921.958787
-0.027,-0.25175,0.02375,-0.00108325,-0.0016632499,0.0012817499,1741884921.973119
-0.029,-0.25275,0.02375,-0.000534,-0.00137325,0.000885,1741884921.989321
-0.0295,-0.2515,0.0235,-0.00029,-0.001236,0.00071725,1741884922.002186
-0.02875,-0.2515,0.0225,-0.00024425,-0.0013885,0.00096125,1741884922.0182898
-0.02675,-0.24875,0.0245,-0.00035100002,-0.001526,0.001114,1741884922.031273
-0.02625,-0.24775,0.02525,-0.00019825,-0.00115975,0.000885,1741884922.04611
-0.02925,-0.248,0.02125,0.00010675,-0.00099175,0.000473,1741884922.0605671
-0.0305,-0.248,0.01875,0.00035100002,-0.00149525,-0.00019825,1741884922.075045
-0.02875,-0.24925,0.0205,0.0002595,-0.0020752498,-0.0003205,1741884922.089911
-0.02825,-0.24975,0.02225,0.000183,-0.0026245,-0.0003205,1741884922.104295
-0.02825,-0.251,0.022,0.000183,-0.00334175,0.0002595,1741884922.118939
-0.0285,-0.25075,0.02125,0.0003205,-0.0037079998,0.00061025,1741884922.133609
-0.0285,-0.25,0.02075,0.00059500005,-0.0046539996,0.00093075,1741884922.148737
-0.02825,-0.2485,0.0205,0.00059500005,-0.0050355,0.001068,1741884922.162601
-0.02725,-0.24775,0.02225,0.00042725,-0.00546275,0.0015565,1741884922.178029
-0.02675,-0.25025,0.0245,0.000122000005,-0.0052185003,0.0021057501,1741884922.191791
-0.026,-0.251,0.0265,-0.00059500005,-0.00390625,0.00340275,1741884922.206252
-0.022,-0.252,0.03275,-0.00086975005,-0.0027160002,0.0039215,1741884922.221004
-0.02125,-0.25525,0.0325,-0.0008545,-0.00016775,0.00428775,1741884922.235479
-0.02275,-0.26,0.026,-0.00077825,0.000534,0.0047150003,1741884922.2499561
-0.02175,-0.25975,0.02475,-0.00090025004,0.000885,0.005539,1741884922.264639
-0.01775,-0.2565,0.02425,-0.0014037499,0.00154125,0.0068512503,1741884922.279233
-0.016,-0.25325,0.024,-0.00148,0.00190725,0.00688175,1741884922.2953448
-0.01425,-0.24875,0.0245,-0.0012055,0.00228875,0.0058287503,1741884922.310646
-0.0135,-0.24825,0.02275,-0.001068,0.00238025,0.005066,1741884922.3227131
-0.01325,-0.2485,0.0225,-0.00067150005,0.0020752498,0.0038299998,1741884922.336951
-0.01075,-0.24925,0.02525,-0.00064075,0.00190725,0.0036315,1741884922.351438
-0.0095,-0.25125,0.0265,-0.00093075,0.00193775,0.0040587503,1741884922.365794
-0.0095,-0.253,0.0265,-0.00115975,0.002121,0.004547,1741884922.380238
-0.01,-0.251,0.026,-0.0012970001,0.00225825,0.0048979996,1741884922.394856
-0.0095,-0.24725,0.0245,-0.001068,0.00201425,0.00453175,1741884922.4093509
-0.009,-0.24725,0.024,-0.0008545,0.00177,0.004074,1741884922.4238489
-0.0085,-0.24725,0.02425,-0.00051875,0.0012665,0.0032347501,1741884922.4383402
-0.0065,-0.2485,0.02625,-0.00036625,0.00109875,0.00292975,1741884922.4528189
-0.005,-0.252,0.0285,-0.00039675,0.0010375,0.0032195,1741884922.4687092
-0.00375,-0.26125,0.0325,-0.000885,0.0014037499,0.0043182503,1741884922.4818501
-0.0045,-0.26275,0.03275,-0.0021057501,0.0025787498,0.0077515002,1741884922.4981298
-0.00325,-0.25575,0.0325,-0.00231925,0.0028535,0.0089875,1741884922.510796
-0.001,-0.25075,0.0315,-0.00245675,0.00267025,0.009719751,1741884922.525259
0.003,-0.249,0.025,-0.0024872501,0.0023497501,0.009384249,1741884922.5401442
0.0055,-0.2495,0.02325,-0.0021972498,0.001892,0.008590749,1741884922.55416
0.00825,-0.248,0.024,-0.00093075,0.00099175,0.00621025,1741884922.5693471
0.01275,-0.24725,0.027,-0.00033575002,0.00077825,0.005249,1741884922.583084
0.0145,-0.24675,0.02925,0.00065625,0.00086975005,0.00367725,1741884922.598855
0.0155,-0.246,0.03075,0.0012970001,0.0010375,0.00263975,1741884922.611625
0.01475,-0.24625,0.03,0.00228875,0.0008545,0.0011445,1741884922.626539
0.01425,-0.24925,0.0295,0.0022277501,0.00061025,0.0013885,1741884922.640341
0.0145,-0.2495,0.02975,0.00184625,0.00057975,0.002121,1741884922.654454
0.0145,-0.2485,0.03,0.0008545,0.00115975,0.00369275,1741884922.669238
0.01325,-0.25125,0.02875,0.0005035,0.00131225,0.004547,1741884922.6830862
0.01225,-0.251,0.02875,0.00061025,0.00030525,0.00672925,1741884922.698874
0.016,-0.24725,0.027,0.001068,-0.00019825,0.0075377496,1741884922.711728
0.0195,-0.24425,0.028,0.00228875,4.575e-05,0.00596625,1741884922.726207
0.02075,-0.242,0.02275,0.0029449998,-0.00010675,0.0044250004,1741884922.740323
0.02025,-0.24325,0.01925,0.00320425,-0.00048825,0.0032347501,1741884922.7547488
0.0205,-0.2445,0.01775,0.00201425,-0.00108325,0.0028687501,1741884922.7691321
0.02675,-0.2475,0.024,0.0009765,-0.000824,0.0032347501,1741884922.783433
0.0285,-0.2515,0.0255,-0.0007935,0.000412,0.0039215,1741884922.798631
0.02625,-0.25275,0.0225,-0.00105275,0.00071725,0.0039215,1741884922.8123672
0.02525,-0.2485,0.02175,-0.000946,0.0003205,0.0033722501,1741884922.828098
0.02625,-0.24275,0.022,-0.00077825,-0.000122000005,0.00296025,1741884922.8411489
0.02775,-0.24,0.0235,-0.00065625,-0.00051875,0.00238025,1741884922.8557818
0.0275,-0.24325,0.0225,-0.000824,-0.0008545,0.00115975,1741884922.8702521
0.02675,-0.2465,0.0225,-0.00080875,-0.00108325,0.00070200005,1741884922.884813
0.02675,-0.24775,0.02425,-0.00080875,-0.0015565,0.00064075,1741884922.899352
0.0285,-0.2475,0.02825,-0.00102225,-0.00175475,0.001068,1741884922.9138508
0.02875,-0.249,0.02975,-0.0017852499,-0.0021972498,0.00225825,1741884922.928746
0.02975,-0.25325,0.0335,-0.00190725,-0.0021972498,0.00245675,1741884922.942825
0.03125,-0.252,0.0355,-0.00057975,-0.0018005001,0.0012665,1741884922.9589372
0.03125,-0.2515,0.0315,6.1000002e-05,-0.0015105,0.00059500005,1741884922.971756
0.03075,-0.2525,0.02775,0.00010675,-0.00137325,0.000763,1741884922.986152
0.03125,-0.25175,0.02575,-0.00027475,-0.00154125,0.0013580001,1741884923.000603
0.0315,-0.2505,0.0265,-0.00064075,-0.0018615,0.0018615,1741884923.0153458
0.03125,-0.25025,0.0275,-0.00125125,-0.00267025,0.0026092501,1741884923.029855
0.032,-0.24925,0.028,-0.00143425,-0.0028535,0.0029145,1741884923.04436
0.03275,-0.24625,0.02975,-0.0013275,-0.0025787498,0.00292975,1741884923.0588212
0.0335,-0.2405,0.03525,-0.00131225,-0.00190725,0.00263975,1741884923.0732758
0.03225,-0.24225,0.033,-0.00039675,-0.00077825,0.00149525,1741884923.089501
0.0305,-0.24725,0.0265,6.1000002e-05,-0.0009155,0.00102225,1741884923.1022358
0.03125,-0.24975,0.0265,-0.00061025,-0.0017395001,0.0015565,1741884923.118678
0.034,-0.25125,0.0325,-0.00163275,-0.00184625,0.0025787498,1741884923.131229
0.0355,-0.2515,0.03525,-0.0026245,-0.0015105,0.0036010002,1741884923.145817
0.0365,-0.25025,0.0355,-0.002655,-0.00033575002,0.0042572496,1741884923.160327
0.03725,-0.2465,0.03525,-0.00239575,4.575e-05,0.0042267498,1741884923.174764
0.03825,-0.248,0.0355,-0.0024872501,0.00036625,0.004547,1741884923.189195
0.03975,-0.2475,0.03675,-0.0024872501,0.00048825,0.0047455,1741884923.203718
0.041,-0.245,0.03675,-0.0018005001,0.00080875,0.0039825,1741884923.21843
0.04025,-0.242,0.032,-0.0010375,0.00061025,0.00289925,1741884923.2324538
0.04025,-0.24175,0.03075,-4.575e-05,-0.0003815,0.001068,1741884923.246918
0.04425,-0.2415,0.03525,4.575e-05,-0.00083925005,0.00064075,1741884923.2613492
0.04675,-0.24225,0.03875,-6.1000002e-05,-0.00099175,0.0005035,1741884923.275808
0.048,-0.2445,0.041,-0.00036625,-0.0003205,0.00062550005,1741884923.290443
0.04525,-0.247,0.039,-0.00035100002,4.575e-05,0.00071725,1741884923.30479
0.04425,-0.24725,0.038,-0.00035100002,0.00035100002,0.0008545,1741884923.3191428
0.0425,-0.24525,0.03575,-0.0001525,0.0003815,0.0005645,1741884923.333764
0.04125,-0.2435,0.034,0.00029,7.625e-05,-9.15e-05,1741884923.3491268
0.0415,-0.24275,0.03425,0.00016775,-0.00016775,1.5250001e-05,1741884923.362566
0.0425,-0.24325,0.03525,-0.00024425,-0.0005035,0.00070200005,1741884923.3788002
0.04325,-0.242,0.03575,-0.00036625,-0.00054925,0.0009155,1741884923.391551
0.04275,-0.2425,0.03525,-0.00045775,-0.0005645,0.00090025004,1741884923.406097
0.04275,-0.24425,0.035,-0.0002595,-0.00070200005,0.0005035,1741884923.420703
0.04275,-0.24775,0.0355,-6.1000002e-05,-0.00080875,0.00036625,1741884923.4351301
0.0425,-0.24875,0.0345,-4.575e-05,-0.00102225,0.00080875,1741884923.449643
0.042,-0.2465,0.03375,-1.5250001e-05,-0.0012817499,0.00125125,1741884923.464054
0.04225,-0.24475,0.03375,0.000473,-0.00238025,0.001892,1741884923.478518
0.0435,-0.2455,0.03525,0.000534,-0.0029449998,0.0019685,1741884923.49297
0.044,-0.246,0.035,0.00065625,-0.00340275,0.00148,1741884923.508988
0.04475,-0.24575,0.03525,0.00045775,-0.00331125,0.0015565,1741884923.5217762
0.04575,-0.24525,0.03575,4.575e-05,-0.0032655,0.00193775,1741884923.536255
0.0465,-0.24425,0.037,-0.00030525,-0.003128,0.00225825,1741884923.5508428
0.0475,-0.24125,0.03925,-0.00010675,-0.003006,0.00184625,1741884923.565356
0.0485,-0.24075,0.039,0.0003205,-0.0029907501,0.00090025004,1741884923.579741
0.04825,-0.24425,0.03675,0.000412,-0.0029145,0.00083925005,1741884923.594154
0.0475,-0.24525,0.0365,-0.000183,-0.0028229998,0.0015105,1741884923.608953
0.04775,-0.243,0.03925,-0.00042725,-0.0027465,0.0018005001,1741884923.623164
0.0485,-0.24125,0.041,-0.000412,-0.0025634998,0.0017395001,1741884923.637642
0.04825,-0.2425,0.04025,-0.00029,-0.0019989999,0.0009155,1741884923.653408
0.04725,-0.244,0.039,-0.00036625,-0.001831,0.00062550005,1741884923.666661
0.04725,-0.2445,0.03825,-0.00062550005,-0.0017852499,0.00059500005,1741884923.68114
0.04775,-0.2445,0.03925,-0.00062550005,-0.00160225,0.00068675,1741884923.695643
0.048,-0.24425,0.039,-0.0002135,-0.0013427499,0.0005645,1741884923.710142
0.0485,-0.24375,0.03925,-0.00024425,-0.00119025,0.00057975,1741884923.724624
0.04825,-0.244,0.0395,-0.00048825,-0.0009765,0.00064075,1741884923.739176
0.049,-0.24225,0.042,-0.00042725,-0.00096125,0.00051875,1741884923.753758
0.04975,-0.242,0.04275,-0.00019825,-0.00070200005,0.00030525,1741884923.7687092
0.04925,-0.24225,0.041,-0.0001525,-0.0004425,0.00035100002,1741884923.7828329
0.04825,-0.24275,0.0395,-0.00030525,-0.000229,0.00051875,1741884923.798902
0.047,-0.24425,0.038,-0.00070200005,-0.000229,0.0009765,1741884923.81182
0.045,-0.246,0.03525,-0.0005645,-0.000473,0.0009765,1741884923.826336
0.0445,-0.245,0.0345,0.000183,-0.00143425,0.0003815,1741884923.840755
0.04725,-0.2425,0.03825,0.00061025,-0.00187675,-7.625e-05,1741884923.8552508
0.04975,-0.242,0.043,0.00059500005,-0.00190725,-0.0003815,1741884923.86984
0.0535,-0.24425,0.04975,0.000122000005,-0.0013580001,-9.15e-05,1741884923.884351
0.053,-0.24575,0.0485,-0.00068675,0.00016775,0.00099175,1741884923.89918
0.0495,-0.24375,0.04125,-0.00090025004,0.00068675,0.00146475,1741884923.913049
0.0485,-0.24175,0.03925,-0.00109875,0.00093075,0.001709,1741884923.928788
0.048,-0.2395,0.03875,-0.00102225,0.00077825,0.000885,1741884923.941847
0.05025,-0.239,0.042,-0.0007935,0.00059500005,7.625e-05,1741884923.956268
0.05125,-0.24325,0.043,-0.00077825,0.00059500005,-0.00061025,1741884923.970761
0.05025,-0.2475,0.0415,-0.001007,0.00067150005,-0.000183,1741884923.985368
0.0505,-0.24625,0.04175,-0.0016632499,0.0007325,0.0010375,1741884923.999747
0.05225,-0.24225,0.0445,-0.0018005001,0.000824,0.001175,1741884924.0141509
0.05225,-0.242,0.04425,-0.00184625,0.00109875,0.000824,1741884924.028873
0.05,-0.242,0.04075,-0.00163275,0.00105275,0.000534,1741884924.042955
0.04925,-0.241,0.03975,-0.001175,0.0008545,6.1000002e-05,1741884924.05885
0.0495,-0.24075,0.04,-0.00027475,0.00029,-0.00112925,1741884924.07183
0.05175,-0.2415,0.04425,-0.00030525,0.00016775,-0.001175,1741884924.086335
0.05225,-0.24275,0.04625,-0.00080875,0.0005035,-0.00019825,1741884924.1007822
0.05025,-0.24125,0.04725,-0.00102225,0.000763,0.00027475,1741884924.115262
0.05,-0.24,0.047,-0.00115975,0.0009765,0.000534,1741884924.129623
0.04975,-0.241,0.045,-0.0009765,0.000824,0.000412,1741884924.1439328
0.0495,-0.243,0.04325,-0.00071725,0.0005645,0.0003205,1741884924.1589608
0.04925,-0.24475,0.0425,-0.000412,0.00016775,0.00042725,1741884924.1727328
0.0505,-0.2425,0.04325,-0.00035100002,6.1000002e-05,0.000473,1741884924.1871219
0.05125,-0.24075,0.044,-0.00033575002,-7.625e-05,0.000412,1741884924.201516
0.0525,-0.2395,0.047,-0.000412,-1.5250001e-05,0.00033575002,1741884924.216054
0.0525,-0.24075,0.048,-0.00045775,0.000534,6.1000002e-05,1741884924.230461
0.05075,-0.24375,0.04625,-0.00039675,0.00077825,-3.0500001e-05,1741884924.24491
0.0505,-0.243,0.0455,-0.0002595,0.00096125,-0.0001525,1741884924.259398
0.0505,-0.2425,0.04325,-0.00019825,0.00093075,-0.0002595,1741884924.2738008
0.05025,-0.2435,0.042,-0.00019825,0.0007935,-0.00029,1741884924.289995
0.0505,-0.2435,0.04175,-0.00024425,0.0002135,0.0,1741884924.3027232
0.05075,-0.24225,0.0435,-0.00029,-9.15e-05,0.000183,1741884924.3187368
0.05175,-0.24175,0.046,-0.0003815,-0.00024425,0.00027475,1741884924.3318558
0.053,-0.24175,0.0485,-0.00029,-7.625e-05,6.1000002e-05,1741884924.3463092
0.0525,-0.2425,0.047,9.15e-05,0.000183,-0.000412,1741884924.3607092
0.05175,-0.24075,0.04575,0.00027475,0.0001525,-0.0005645,1741884924.37516
0.05175,-0.2405,0.04525,0.000183,7.625e-05,-0.0004425,1741884924.3899462
0.05025,-0.2415,0.0435,-4.575e-05,7.625e-05,-0.00016775,1741884924.4039118
0.049,-0.23975,0.0415,-0.00016775,4.575e-05,1.5250001e-05,1741884924.418449
0.0485,-0.2375,0.0395,0.0002135,-0.00062550005,-0.00057975,1741884924.4328399
0.05025,-0.23725,0.0405,0.0004425,-0.001175,-0.00115975,1741884924.449014
0.051,-0.23975,0.04325,0.00039675,-0.00175475,-0.0015105,1741884924.461823
0.05175,-0.2455,0.0485,0.000122000005,-0.001526,-0.00109875,1741884924.476317
0.05125,-0.24575,0.04925,-0.00059500005,-0.00054925,0.0002135,1741884924.490759
0.04825,-0.246,0.0475,-0.0009155,-0.000229,0.00080875,1741884924.5052302
0.04725,-0.24625,0.04625,-0.001114,-0.00035100002,0.00149525,1741884924.519781
0.04825,-0.246,0.04575,-0.00108325,-0.00065625,0.0016175,1741884924.534283
0.04925,-0.24575,0.04625,-0.00108325,-0.0009155,0.001709,1741884924.548743
0.05075,-0.2445,0.047,-0.0009765,-0.0008545,0.001526,1741884924.5632992
0.053,-0.24175,0.04975,-0.0008545,-0.00067150005,0.001236,1741884924.5779781
0.05375,-0.24175,0.05075,-0.000885,-9.15e-05,0.0009155,1741884924.592324
0.0545,-0.244,0.05075,-0.000946,0.000229,0.00090025004,1741884924.606713
0.054,-0.246,0.05075,-0.0012055,0.00064075,0.00143425,1741884924.621136
0.05225,-0.2445,0.04875,-0.00131225,0.00080875,0.0017242499,1741884924.635585
0.0515,-0.2425,0.047,-0.00105275,0.00083925005,0.001648,1741884924.649895
0.05275,-0.2385,0.04625,-0.00071725,0.00064075,0.0012207499,1741884924.664309
0.05425,-0.2375,0.0475,-0.0004425,0.000412,0.00070200005,1741884924.6790998
0.05575,-0.23725,0.04875,-0.00029,0.00024425,-1.5250001e-05,1741884924.693254
0.056,-0.23825,0.0495,-0.000412,0.0003205,-1.5250001e-05,1741884924.708683
0.0555,-0.2385,0.04925,-0.0007935,0.00048825,0.00051875,1741884924.722087
0.0535,-0.23875,0.047,-0.00099175,0.00045775,0.00077825,1741884924.736423
0.052,-0.2385,0.045,-0.00119025,0.0001525,0.0008545,1741884924.7508008
0.05275,-0.2365,0.04575,-0.00112925,-0.00016775,0.00054925,1741884924.765328
0.05425,-0.23675,0.048,-0.00093075,-0.000473,4.575e-05,1741884924.7798028
0.0555,-0.238,0.0495,-0.0005645,-0.00080875,-0.00074775,1741884924.7944262
0.05625,-0.24,0.0515,-0.00065625,-0.000885,-0.00080875,1741884924.8089972
0.05575,-0.24025,0.05325,-0.00090025004,-0.00080875,-0.00064075,1741884924.82361
0.05475,-0.243,0.05725,-0.00086975005,-0.0005035,-0.0005645,1741884924.839919
0.05325,-0.24575,0.056,-0.0007935,0.00029,1.5250001e-05,1741884924.8526962
0.04925,-0.2465,0.05,-0.00080875,0.00036625,0.00051875,1741884924.868264
0.04975,-0.243,0.049,-0.00057975,-0.00016775,0.00074775,1741884924.88164
0.05275,-0.2375,0.05025,-0.000229,-0.00051875,0.00027475,1741884924.8961291
0.05425,-0.23975,0.05,-0.00036625,-0.00108325,-0.00010675,1741884924.91071
0.0565,-0.24425,0.05375,-0.00086975005,-0.00119025,0.00033575002,1741884924.925241
0.05775,-0.24325,0.0575,-0.0012207499,-0.001007,0.00080875,1741884924.939706
0.05825,-0.2435,0.059,-0.00148,0.0,0.00143425,1741884924.954199
0.056,-0.24675,0.0545,-0.0017395001,0.00045775,0.0019685,1741884924.968547
0.0545,-0.246,0.05225,-0.00225825,0.0007325,0.0030669998,1741884924.9828968
0.0545,-0.23675,0.05175,-0.001892,0.00061025,0.0028074998,1741884924.9986858
0.0555,-0.233,0.052,-0.00024425,9.15e-05,0.00062550005,1741884925.011639
0.0575,-0.234,0.05125,0.00013725001,-0.00013725001,-0.000122000005,1741884925.026079
0.05775,-0.23525,0.05175,0.00013725001,-0.00029,-0.00030525,1741884925.040492
0.05775,-0.235,0.05625,-0.000183,-0.000229,-0.000122000005,1741884925.055159
0.05775,-0.23575,0.05775,-0.00019825,1.5250001e-05,-0.00019825,1741884925.069529
0.05775,-0.23775,0.0575,-0.00010675,0.00039675,-0.00039675,1741884925.084
0.0565,-0.24,0.05525,-0.00016775,0.00042725,-0.0002595,1741884925.099031
0.05625,-0.2395,0.05425,-0.00030525,0.000412,4.575e-05,1741884925.1129322
0.05575,-0.237,0.0525,-0.000183,0.00035100002,-6.1000002e-05,1741884925.128743
0.0555,-0.237,0.05175,0.000122000005,-3.0500001e-05,-0.0004425,1741884925.1418052
0.055,-0.23925,0.05325,0.00013725001,-0.00024425,-0.00048825,1741884925.156325
0.05525,-0.2405,0.05525,0.0,-0.00027475,-0.00036625,1741884925.170796
0.05625,-0.24325,0.058,-0.00042725,9.15e-05,0.000229,1741884925.1852522
0.056,-0.24475,0.057,-0.00067150005,0.00033575002,0.00071725,1741884925.199519
0.056,-0.245,0.056,-0.00109875,0.00062550005,0.0017395001,1741884925.2139132
0.0575,-0.24325,0.05625,-0.0011445,0.00070200005,0.0020599999,1741884925.2284749
0.05725,-0.242,0.055,-0.000824,0.00071725,0.0020295,1741884925.242719
0.059,-0.23875,0.05425,-0.000473,0.000534,0.001709,1741884925.258762
0.0605,-0.237,0.0555,0.00027475,0.00019825,0.00093075,1741884925.271591
0.06125,-0.23875,0.05675,0.00062550005,0.000183,0.0005645,1741884925.286013
0.0605,-0.241,0.05625,0.00080875,0.0002595,0.000473,1741884925.300432
0.0595,-0.24175,0.05625,0.00062550005,0.0007325,0.0012665,1741884925.314924
0.06,-0.242,0.059,0.00042725,0.00105275,0.00177,1741884925.329219
0.06025,-0.243,0.05825,4.575e-05,0.0016175,0.0026092501,1741884925.343581
0.06025,-0.23825,0.055,-0.00019825,0.001709,0.00292975,1741884925.359074
0.06075,-0.23575,0.05375,-0.00054925,0.00148,0.0028074998,1741884925.372564
0.0615,-0.23275,0.05075,-0.00039675,0.00115975,0.00228875,1741884925.3869
0.062,-0.23225,0.05,-0.0002595,0.00071725,0.00175475,1741884925.401323
0.0645,-0.233,0.05325,-0.00042725,-7.625e-05,0.00119025,1741884925.415787
0.06575,-0.233,0.055,-0.000473,-0.0001525,0.00099175,1741884925.430298
0.06575,-0.23375,0.05525,-0.00051875,0.00013725001,0.00070200005,1741884925.444709
0.0645,-0.23725,0.054,-0.00074775,0.00016775,0.0008545,1741884925.459244
0.064,-0.23725,0.0545,-0.00146475,-1.5250001e-05,0.0015105,1741884925.473601
0.06225,-0.23675,0.056,-0.00169375,-0.00016775,0.00163275,1741884925.489331
0.06275,-0.23725,0.05675,-0.0016175,-0.00024425,0.00160225,1741884925.502667
0.0645,-0.238,0.05825,-0.001648,-0.00029,0.00177,1741884925.518424
0.065,-0.2375,0.059,-0.00187675,-0.00027475,0.002121,1741884925.531596
0.0655,-0.23575,0.059,-0.00239575,6.1000002e-05,0.0027465,1741884925.5460548
0.0665,-0.23475,0.05825,-0.0024414998,0.000183,0.0028074998,1741884925.5604181
0.0675,-0.23375,0.059,-0.0023497501,0.000122000005,0.0026092501,1741884925.57479
0.06925,-0.236,0.05975,-0.0027465,4.575e-05,0.0027312501,1741884925.589202
0.0695,-0.238,0.0595,-0.00325,-0.0002135,0.0029755002,1741884925.603791
0.06975,-0.23475,0.06025,-0.0027465,-0.00033575002,0.00263975,1741884925.618285
0.07,-0.23275,0.06075,-0.001526,-0.0003815,0.0015105,1741884925.6328142
0.07075,-0.2315,0.0615,-0.0011445,-0.00039675,0.00102225,1741884925.6485739
0.071,-0.23175,0.06325,-0.001007,-0.0003815,0.00071725,1741884925.6617742
0.0715,-0.23275,0.06425,-0.00099175,-0.000183,0.00080875,1741884925.676227
0.07225,-0.23225,0.06575,-0.000824,-3.0500001e-05,0.00099175,1741884925.6907861
0.072,-0.23075,0.0655,-0.000412,0.00029,0.0009765,1741884925.705227
0.07125,-0.2305,0.06325,-0.0003815,0.00036625,0.00096125,1741884925.719609
0.071,-0.231,0.062,-0.001068,0.00036625,0.0013580001,1741884925.734039
0.07125,-0.233,0.061,-0.0013275,0.00019825,0.00143425,1741884925.7489111
0.07125,-0.233,0.06125,-0.001175,-0.000473,0.0009765,1741884925.7628438
0.07275,-0.2345,0.064,-0.0009765,-0.00074775,0.00074775,1741884925.778622
0.074,-0.23425,0.06525,-0.00080875,-0.000824,0.00064075,1741884925.791806
0.07475,-0.2335,0.06575,-0.001007,-0.00068675,0.000946,1741884925.806323
0.07325,-0.2325,0.0655,-0.0012817499,-0.0005645,0.0012970001,1741884925.8207622
0.0725,-0.23075,0.0655,-0.0015105,-0.00030525,0.001526,1741884925.835286
0.07225,-0.2305,0.064,-0.001587,-0.00033575002,0.00148,1741884925.849749
0.072,-0.23,0.063,-0.00184625,-0.001175,0.0012970001,1741884925.8642921
0.073,-0.22775,0.06425,-0.00187675,-0.0016175,0.00105275,1741884925.878793
0.07425,-0.22875,0.06625,-0.001526,-0.00184625,0.00039675,1741884925.893294
0.0755,-0.23175,0.0695,-0.0014037499,-0.001709,0.00027475,1741884925.9089448
0.07575,-0.2315,0.06925,-0.0015565,-0.00148,0.00051875,1741884925.9223611
0.076,-0.23125,0.06875,-0.002243,-0.0013275,0.0012207499,1741884925.936786
0.07575,-0.2305,0.07,-0.00239575,-0.00143425,0.0013427499,1741884925.951327
0.07525,-0.23025,0.07075,-0.0017852499,-0.0014037499,0.00080875,1741884925.965812
0.0735,-0.2325,0.069,-0.0013580001,-0.0013427499,0.0005035,1741884925.980294
0.0735,-0.232,0.06825,-0.00115975,-0.00160225,0.0004425,1741884925.994814
0.07425,-0.2275,0.07075,-0.0013275,-0.00177,0.00057975,1741884926.0092921
0.0745,-0.22725,0.072,-0.001587,-0.0016785001,0.0007935,1741884926.023829
0.073,-0.2295,0.07275,-0.0015565,-0.0015565,0.0008545,1741884926.040336
0.07275,-0.22975,0.07225,-0.00154125,-0.00148,0.00090025004,1741884926.052781
0.072,-0.23075,0.06975,-0.00163275,-0.001709,0.0009765,1741884926.068626
0.072,-0.23,0.07,-0.0015105,-0.0020599999,0.000946,1741884926.081774
0.07325,-0.229,0.0725,-0.00105275,-0.00263975,0.00080875,1741884926.0963762
0.07625,-0.22725,0.0775,-0.0009155,-0.0025787498,0.00071725,1741884926.110792
0.07675,-0.22675,0.0775,-0.001236,-0.00201425,0.00090025004,1741884926.1253262
0.0755,-0.229,0.076,-0.00148,-0.001831,0.0012055,1741884926.1397948
0.07475,-0.22775,0.07575,-0.00160225,-0.00187675,0.001648,1741884926.154334
0.074,-0.226,0.076,-0.0016632499,-0.00193775,0.00175475,1741884926.168869
0.07425,-0.2275,0.0765,-0.0016175,-0.00204475,0.00175475,1741884926.183257
0.075,-0.2275,0.0785,-0.00102225,-0.0022277501,0.00154125,1741884926.198565
0.0755,-0.228,0.07825,-0.0008545,-0.00225825,0.001526,1741884926.2123442
0.076,-0.2285,0.0775,-0.001114,-0.002472,0.0020599999,1741884926.228113
0.076,-0.22625,0.07825,-0.001175,-0.002777,0.002365,1741884926.241312
0.07725,-0.22525,0.0795,-0.0009155,-0.00334175,0.0023039998,1741884926.2558458
0.079,-0.224,0.081,-0.0005035,-0.003418,0.0018005001,1741884926.270284
0.07875,-0.22475,0.0805,0.00042725,-0.00334175,0.00090025004,1741884926.2846808
0.078,-0.228,0.08,0.00062550005,-0.00343325,0.0009155,1741884926.299148
0.078,-0.2285,0.08125,0.00054925,-0.0034790002,0.0012970001,1741884926.3135848
0.078,-0.22625,0.0835,0.00061025,-0.00328075,0.0013275,1741884926.329011
0.0775,-0.22575,0.08225,0.00068675,-0.003006,0.0012665,1741884926.342531
0.07725,-0.22575,0.081,0.001007,-0.00270075,0.00096125,1741884926.356937
0.078,-0.222,0.08125,0.00163275,-0.0025787498,0.000412,1741884926.371379
0.07925,-0.22025,0.082,0.002777,-0.0020905002,-0.00105275,1741884926.386024
0.07875,-0.22,0.08025,0.00308225,-0.0016785001,-0.0016785001,1741884926.400488
0.07675,-0.2195,0.0775,0.0040587503,-0.00115975,-0.0030669998,1741884926.415009
0.07425,-0.218,0.07375,0.00517275,-0.00108325,-0.00428775,1741884926.429455
0.073,-0.218,0.07275,0.008316,-0.00149525,-0.007782,1741884926.443985
0.0715,-0.21875,0.07025,0.009079001,-0.0017395001,-0.009292499,1741884926.458866
0.0705,-0.2175,0.06975,0.009140001,-0.00169375,-0.010589501,1741884926.472988
0.06775,-0.21575,0.0705,0.008361749,-0.00054925,-0.013214,1741884926.489474
0.06425,-0.222,0.072,0.007904,0.00036625,-0.014328,1741884926.502027
0.063,-0.22775,0.075,0.0076599997,0.0014495,-0.01531975,1741884926.516364
0.056,-0.237,0.07225,0.00788875,0.0013427499,-0.01513675,1741884926.530831
0.052,-0.2395,0.06875,0.0074615004,0.00228875,-0.014160249,1741884926.545279
0.04775,-0.243,0.066,0.00665275,0.0029755002,-0.013488751,1741884926.559689
0.0465,-0.245,0.06475,0.0050812503,0.0033264998,-0.012039251,1741884926.574096
0.0435,-0.247,0.06025,0.0045777503,0.0034790002,-0.0116425,1741884926.5900521
0.041,-0.24525,0.0565,0.00440975,0.00358575,-0.011627249,1741884926.602926
0.03875,-0.24325,0.0545,0.0043639997,0.0030975002,-0.01171875,1741884926.618403
0.03525,-0.244,0.05225,0.0041504996,0.0025787498,-0.0114744995,1741884926.631894
0.03275,-0.245,0.05,0.003952,0.0014037499,-0.010894749,1741884926.646385
0.0295,-0.2475,0.0475,0.0037385002,0.00083925005,-0.01054375,1741884926.66082
0.028,-0.249,0.04875,0.0034942501,0.00035100002,-0.010024999,1741884926.6751978
0.02475,-0.24725,0.05125,0.0036162501,0.00035100002,-0.00985725,1741884926.689583
0.023,-0.247,0.05125,0.00354,0.00027475,-0.009430001,1741884926.7039082
0.02225,-0.2465,0.0495,0.0028687501,0.00036625,-0.008270251,1741884926.718556
0.0175,-0.2485,0.04825,0.002655,0.00070200005,-0.008026,1741884926.732834
0.01425,-0.253,0.046,0.0026245,0.001068,-0.008148249,1741884926.74852
0.01025,-0.258,0.0435,0.0030975002,0.000824,-0.00833125,1741884926.7615921
0.0115,-0.25525,0.046,0.003662,0.00042725,-0.008072,1741884926.776041
0.013,-0.25,0.0505,0.0036315,0.00067150005,-0.0076905,1741884926.790679
0.01125,-0.25025,0.04925,0.0033264998,0.0013580001,-0.0065917503,1741884926.805027
0.00925,-0.25075,0.04475,0.00283825,0.001709,-0.0059205,1741884926.819381
0.00825,-0.2515,0.04475,0.0023039998,0.001892,-0.0052947504,1741884926.8340962
0.0065,-0.252,0.04375,0.00190725,0.00143425,-0.004074,1741884926.849115
0.0055,-0.24875,0.0425,0.0017395001,0.0012970001,-0.0034790002,1741884926.862933
0.00675,-0.24675,0.0435,0.001007,0.00149525,-0.00254825,1741884926.8787231
0.00825,-0.245,0.045,0.00090025004,0.00181575,-0.00263975,1741884926.8919182
0.00625,-0.245,0.042,0.0017242499,0.00187675,-0.00369275,1741884926.906315
0.00375,-0.24725,0.03775,0.001831,0.001526,-0.00381475,1741884926.92079
0.005,-0.2475,0.04025,0.0012970001,0.0012055,-0.0034484998,1741884926.9351602
0.00625,-0.24875,0.04675,0.0012817499,0.00163275,-0.0034637498,1741884926.949575
0.0045,-0.25025,0.046,0.0015565,0.0022277501,-0.00358575,1741884926.964
0.0015,-0.25275,0.04275,0.0019225,0.0030365,-0.0031889998,1741884926.978406
-0.002,-0.25325,0.03675,0.0019225,0.00296025,-0.0027312501,1741884926.992791
-0.0015,-0.25025,0.03625,0.0016785001,0.0023345,-0.00181575,1741884927.008696
-0.00025,-0.24625,0.0375,0.001526,0.0021057501,-0.001526,1741884927.021891
-0.00025,-0.24525,0.038,0.00169375,0.00187675,-0.0016632499,1741884927.036394
-0.0005,-0.24725,0.0385,0.00177,0.00187675,-0.00190725,1741884927.051017
-0.00125,-0.25,0.0375,0.00181575,0.0019225,-0.00216675,1741884927.065505
-0.00275,-0.2525,0.0355,0.0018005001,0.00187675,-0.00213625,1741884927.080033
-0.003,-0.2525,0.03525,0.00169375,0.00177,-0.00201425,1741884927.094511
-0.003,-0.25225,0.0345,0.00154125,0.0015105,-0.0017242499,1741884927.109045
-0.003,-0.24925,0.0345,0.00160225,0.00125125,-0.001587,1741884927.1236072
-0.0015,-0.24725,0.037,0.00157175,0.0012665,-0.0016175,1741884927.13979
-0.003,-0.2475,0.036,0.00177,0.00146475,-0.001892,1741884927.152534
-0.00475,-0.24775,0.0335,0.00204475,0.0013275,-0.0022277501,1741884927.16833
-0.00625,-0.249,0.0315,0.00181575,0.0012817499,-0.0020905002,1741884927.181588
-0.0055,-0.25,0.03225,0.00143425,0.0012970001,-0.001831,1741884927.196022
-0.00625,-0.25025,0.033,0.0015565,0.00125125,-0.00190725,1741884927.210403
-0.00775,-0.251,0.031,0.0016785001,0.00112925,-0.0020295,1741884927.225018
-0.0085,-0.25125,0.02925,0.001526,0.00074775,-0.00201425,1741884927.2397811
-0.00775,-0.2495,0.02925,0.0013580001,0.000534,-0.00190725,1741884927.2540202
-0.0075,-0.2495,0.0295,0.0013580001,0.000229,-0.0020295,1741884927.268555
-0.00725,-0.2485,0.0305,0.001419,0.0002595,-0.0021515,1741884927.283013
-0.00775,-0.24875,0.03075,0.00149525,0.0005035,-0.0022277501,1741884927.298115
-0.00825,-0.25,0.032,0.00157175,0.00051875,-0.0022125002,1741884927.312098
-0.00875,-0.25,0.03275,0.0016632499,0.00068675,-0.0020599999,1741884927.3266602
-0.00975,-0.25025,0.03025,0.001648,0.0008545,-0.00190725,1741884927.341119
-0.01025,-0.2495,0.0285,0.00163275,0.00099175,-0.00177,1741884927.355708
-0.011,-0.2475,0.028,0.00175475,0.0011445,-0.00201425,1741884927.3701918
-0.011,-0.2485,0.028,0.00193775,0.001114,-0.00239575,1741884927.3846898
-0.01125,-0.25,0.0275,0.002411,0.00077825,-0.00308225,1741884927.3991091
-0.01025,-0.251,0.02975,0.002411,0.0007325,-0.0030365,1741884927.41358
-0.00925,-0.24975,0.03275,0.0023497501,0.00157175,-0.00276175,1741884927.4289122
-0.0115,-0.252,0.0305,0.0026092501,0.0021819999,-0.0028687501,1741884927.442931
-0.01525,-0.2535,0.0255,0.0031889998,0.002365,-0.0028687501,1741884927.458269
-0.0195,-0.25225,0.023,0.0030669998,0.0021972498,-0.002533,1741884927.472045
-0.01975,-0.25225,0.0245,0.0029449998,0.002472,-0.0020295,1741884927.486561
-0.01975,-0.254,0.025,0.00320425,0.00276175,-0.00201425,1741884927.5009868
-0.01825,-0.2535,0.024,0.0034637498,0.0029907501,-0.0020295,1741884927.5156858
-0.017,-0.25325,0.0225,0.003418,0.00328075,-0.0020295,1741884927.530268
-0.0145,-0.25125,0.02375,0.0033722501,0.0034484998,-0.0022125002,1741884927.544788
-0.01375,-0.25,0.0245,0.00384525,0.00413525,-0.0029907501,1741884927.559263
-0.01675,-0.25225,0.0165,0.0040587503,0.0042267498,-0.0032195,1741884927.57373
-0.01825,-0.2535,0.01275,0.003662,0.00328075,-0.00270075,1741884927.5891042
-0.01925,-0.2515,0.0135,0.0031889998,0.0025787498,-0.0023039998,1741884927.602753
-0.019,-0.2495,0.01625,0.002777,0.0018615,-0.0020752498,1741884927.618248
-0.01675,-0.2475,0.022,0.0028535,0.0021819999,-0.0022277501,1741884927.631686
-0.01825,-0.24975,0.02,0.003006,0.0027465,-0.0024414998,1741884927.646204
-0.02175,-0.25275,0.01625,0.00331125,0.0034790002,-0.0023039998,1741884927.6606789
-0.025,-0.254,0.01175,0.0034484998,0.0034637498,-0.00190725,1741884927.675164
-0.02425,-0.253,0.011,0.00390625,0.0030365,-0.00143425,1741884927.689638
-0.02325,-0.24875,0.0085,0.004242,0.00276175,-0.00160225,1741884927.70404
-0.0245,-0.2475,0.007,0.00488275,0.0023345,-0.00238025,1741884927.718598
-0.0245,-0.2475,0.0095,0.00517275,0.0021819999,-0.0028687501,1741884927.733103
-0.02375,-0.25025,0.01125,0.00596625,0.0023497501,-0.00384525,1741884927.74864
-0.026,-0.2575,0.01025,0.0066985004,0.0025787498,-0.0042572496,1741884927.762072
-0.028,-0.259,0.007,0.0073242504,0.0028229998,-0.004303,1741884927.778409
-0.03,-0.2575,0.00225,0.0072937496,0.0029449998,-0.00302125,1741884927.7920508
-0.02925,-0.2545,0.0035,0.0069274995,0.0029145,-0.0021819999,1741884927.8056588
-0.02875,-0.2515,0.0045,0.00723275,0.00325,-0.00204475,1741884927.820051
-0.029,-0.24675,0.00075,0.00782775,0.0034790002,-0.0027312501,1741884927.8347352
-0.03,-0.247,-0.00275,0.0079345,0.0033264998,-0.0035704998,1741884927.849399
-0.03175,-0.24925,-0.0095,0.00741575,0.002884,-0.0034637498,1741884927.8640158
-0.03175,-0.25125,-0.0105,0.00593575,0.00181575,-0.00238025,1741884927.878884
-0.029,-0.25125,-0.0075,0.005249,0.0015105,-0.00169375,1741884927.8931258
-0.028,-0.25,-0.00725,0.00408925,0.0017852499,-0.0005035,1741884927.908869
-0.0255,-0.24925,-0.00425,0.00372325,0.0022277501,-0.000229,1741884927.922528
-0.02575,-0.24975,-0.00425,0.0036162501,0.0028229998,-0.00019825,1741884927.937105
-0.03225,-0.25175,-0.014,0.00354,0.003891,-9.15e-05,1741884927.951713
-0.0345,-0.2515,-0.01675,0.0032347501,0.00390625,0.00033575002,1741884927.9662058
-0.034,-0.25,-0.01475,0.0021972498,0.0036010002,0.001419,1741884927.9806678
-0.032,-0.249,-0.013,0.0016632499,0.00378425,0.00187675,1741884927.995191
-0.03325,-0.2495,-0.0165,0.00090025004,0.0037079998,0.002472,1741884928.009829
-0.03325,-0.245,-0.01825,0.00045775,0.0032347501,0.002533,1741884928.024296
-0.03175,-0.2435,-0.015,-0.00030525,0.0026092501,0.0020295,1741884928.039806
-0.02825,-0.245,-0.01125,-0.0002135,0.0026245,0.00148,1741884928.0534642
-0.02775,-0.247,-0.013,0.00010675,0.002655,0.000763,1741884928.068671
-0.02825,-0.24825,-0.014,-1.5250001e-05,0.0025787498,0.0008545,1741884928.082507
-0.0285,-0.24775,-0.014,-0.00030525,0.0025634998,0.00112925,1741884928.098269
-0.0285,-0.24725,-0.01375,-0.001068,0.00279225,0.001709,1741884928.111598
-0.028,-0.2465,-0.01175,-0.0013427499,0.00302125,0.0018005001,1741884928.1261172
-0.02775,-0.2465,-0.012,-0.00149525,0.00320425,0.001648,1741884928.140778
-0.02575,-0.24975,-0.0095,-0.0012817499,0.00305175,0.00143425,1741884928.155411
-0.02425,-0.24975,-0.0065,-0.0001525,0.00308225,0.00059500005,1741884928.1699898
-0.02825,-0.25,-0.0125,-3.0500001e-05,0.00334175,0.0005035,1741884928.184662
-0.02975,-0.25075,-0.01675,-0.00112925,0.0031889998,0.00115975,1741884928.199275
-0.0285,-0.249,-0.0145,-0.0017852499,0.0028535,0.0015105,1741884928.213919
-0.02725,-0.25,-0.01,-0.0023345,0.002655,0.0017395001,1741884928.228773
-0.026,-0.2515,-0.0065,-0.00201425,0.0027312501,0.00146475,1741884928.242971
-0.02575,-0.25175,-0.0075,-0.001587,0.0027465,0.001114,1741884928.258523
-0.02525,-0.251,-0.00775,-0.001007,0.00270075,0.00070200005,1741884928.2721002
-0.0215,-0.2475,-0.0035,-0.0010375,0.0028687501,0.00064075,1741884928.286718
-0.0215,-0.249,-0.003,-0.0018005001,0.00416575,0.0012665,1741884928.301315
-0.027,-0.25425,-0.01025,-0.0019685,0.00463875,0.00169375,1741884928.315775
-0.03,-0.254,-0.01475,-0.00146475,0.0034637498,0.001831,1741884928.330343
-0.02875,-0.2495,-0.01525,-0.00105275,0.00190725,0.00160225,1741884928.344921
-0.02275,-0.24575,-0.007,-0.0008545,-0.0002595,0.0010375,1741884928.359673
-0.014,-0.2455,0.00575,-0.000763,0.00010675,0.00059500005,1741884928.3741992
-0.01775,-0.2505,0.0005,0.00033575002,0.0013885,-0.00057975,1741884928.389926
-0.0255,-0.254,-0.008,0.00070200005,0.001419,-0.00064075,1741884928.403177
-0.02725,-0.25325,-0.00925,0.0007935,0.00109875,-0.0003205,1741884928.418303
-0.0265,-0.25,-0.008,0.001114,0.0,-3.0500001e-05,1741884928.4323149
-0.0245,-0.24725,-0.0065,0.0013885,-0.0003205,-0.00027475,1741884928.446933
-0.0255,-0.24975,-0.008,0.0022735,-0.00086975005,-0.0016785001,1741884928.461641
-0.0245,-0.2485,-0.00675,0.0028229998,-0.001175,-0.0025787498,1741884928.476276
-0.023,-0.247,-0.0045,0.00340275,-0.00102225,-0.0040435,1741884928.4910002
-0.0245,-0.24925,-0.00875,0.0034790002,-0.00074775,-0.0044250004,1741884928.5055318
-0.027,-0.251,-0.01175,0.0033264998,-0.000885,-0.0044250004,1741884928.520153
-0.031,-0.2545,-0.0125,0.0030975002,-0.0012207499,-0.003891,1741884928.53489
-0.0305,-0.257,-0.008,0.003128,-0.00125125,-0.00267025,1741884928.549566
-0.03,-0.2595,-0.00425,0.0039215,-0.00077825,-0.0027312501,1741884928.5641851
-0.03375,-0.2575,-0.01175,0.00505075,-0.000534,-0.0033264998,1741884928.578861
-0.0365,-0.25175,-0.02325,0.0058135,-0.0009765,-0.0035095,1741884928.593558
-0.03575,-0.24975,-0.0245,0.0050965,-0.001236,-0.0029145,1741884928.609012
-0.03425,-0.24775,-0.02475,0.00372325,-0.001953,-0.0018615,1741884928.6229608
-0.03225,-0.244,-0.0235,0.0031889998,-0.00225825,-0.0016632499,1741884928.637672
-0.03175,-0.24375,-0.02225,0.0021972498,-0.00254825,-0.001953,1741884928.652355
-0.03325,-0.2465,-0.01975,0.0021972498,-0.0025787498,-0.00251775,1741884928.6685262
-0.0365,-0.2475,-0.022,0.0022277501,-0.00276175,-0.0035095,1741884928.6816618
-0.04225,-0.24375,-0.029,0.00181575,-0.00331125,-0.00364675,1741884928.696238
-0.0435,-0.242,-0.03175,0.0007325,-0.0055237496,-0.004013,1741884928.7109041
-0.04475,-0.2435,-0.033,0.00024425,-0.007019,-0.004486,1741884928.725564
-0.047,-0.2435,-0.03375,-0.0001525,-0.010528499,-0.0057220003,1741884928.740278
-0.0455,-0.24175,-0.028,-0.0007325,-0.01197825,-0.00585925,1741884928.7549691
-0.04225,-0.2435,-0.0225,-0.00289925,-0.0122985,-0.0046845004,1741884928.769744
-0.04,-0.25325,-0.01775,-0.0035095,-0.01165775,-0.0041044997,1741884928.784584
-0.04075,-0.2565,-0.01925,-0.0034942501,-0.01098625,-0.0038299998,1741884928.7993228
-0.039,-0.251,-0.01625,-0.003296,-0.010376001,-0.00334175,1741884928.814048
-0.03925,-0.248,-0.014,-0.00378425,-0.00985725,-0.002472,1741884928.828941
-0.047,-0.25125,-0.0225,-0.0046539996,-0.008377,-0.0004425,1741884928.8437052
-0.04975,-0.25125,-0.02725,-0.0045012496,-0.0087585,-0.0001525,1741884928.8588228
-0.04925,-0.249,-0.02625,-0.00381475,-0.0112915,-0.00086975005,1741884928.873285
-0.0435,-0.24525,-0.0125,-0.00343325,-0.011901749,-0.001419,1741884928.890095
-0.03975,-0.24425,-0.00575,-0.0028074998,-0.010147001,-0.001831,1741884928.902754
-0.03775,-0.249,-0.00725,-0.0030365,-0.008255,-0.00125125,1741884928.9184499
-0.03875,-0.25075,-0.01075,-0.0034484998,-0.0056304997,0.00033575002,1741884928.932147
-0.039,-0.252,-0.012,-0.0036010002,-0.00491325,0.001114,1741884928.9468539
-0.0385,-0.2515,-0.01125,-0.0036315,-0.0035095,0.0029907501,1741884928.961565
-0.03825,-0.24775,-0.01025,-0.0037385002,-0.0028074998,0.0040435,1741884928.9762208
-0.0385,-0.24975,-0.0115,-0.004242,-0.0016175,0.006302,1741884928.990945
-0.03725,-0.254,-0.01125,-0.00453175,-0.0014037499,0.00720225,1741884929.0055082
-0.035,-0.254,-0.00825,-0.00517275,-0.00109875,0.00862125,1741884929.020201
-0.02975,-0.25225,-0.001,-0.0049895,-0.000534,0.0089569995,1741884929.034934
-0.02875,-0.251,-0.001,-0.00434875,0.0001525,0.00889575,1741884929.0494761
-0.0295,-0.24825,-0.00625,-0.002777,0.0012055,0.0080872495,1741884929.064044
-0.0295,-0.249,-0.0095,-0.0021819999,0.0012817499,0.00791925,1741884929.078867
-0.02825,-0.25125,-0.0105,-0.0025025,0.00102225,0.0088195,1741884929.093378
-0.02425,-0.25425,-0.00725,-0.0031127501,0.00102225,0.009674,1741884929.109063
-0.021,-0.25425,-0.005,-0.00372325,0.00125125,0.0109709995,1741884929.122547
-0.01575,-0.2515,-0.001,-0.003418,0.001419,0.01083375,1741884929.137354
-0.01425,-0.2485,-0.00075,-0.0020599999,0.00169375,0.00918575,1741884929.151922
-0.01375,-0.24625,-0.004,-0.0016632499,0.0017852499,0.00839225,1741884929.166635
-0.013,-0.247,-0.00625,-0.000946,0.0013580001,0.0072937496,1741884929.18121
-0.009,-0.2465,-0.00625,-0.00086975005,0.001114,0.0069274995,1741884929.195745
-0.00675,-0.24575,-0.0035,-0.00131225,0.0012055,0.0063477503,1741884929.2103791
-0.006,-0.24825,-0.00175,-0.00131225,0.0014037499,0.0059815003,1741884929.224857
-0.0055,-0.24925,-0.00175,-0.0009765,0.001419,0.0054780003,1741884929.239903
-0.00475,-0.24975,-0.00175,-0.0003205,0.001236,0.0045625,1741884929.2539752
-0.0025,-0.25075,-0.00075,-0.00033575002,0.0012055,0.0043182503,1741884929.2685921
-0.00025,-0.25025,0.0005,-0.00065625,0.0014495,0.0039825,1741884929.28295
0.0025,-0.2485,0.0035,-0.00059500005,0.0018005001,0.00378425,1741884929.298128
0.0015,-0.2495,0.00125,0.00024425,0.00231925,0.002777,1741884929.311759
0.001,-0.248,-0.004,0.000473,0.0019989999,0.00231925,1741884929.3261828
0.002,-0.24675,-0.0025,-0.00019825,0.0014037499,0.00204475,1741884929.340681
0.004,-0.24925,0.0035,-0.00030525,0.00160225,0.00193775,1741884929.3550642
0.0035,-0.252,0.004,0.00013725001,0.00201425,0.0016785001,1741884929.369434
0.00275,-0.25475,0.0025,0.0012817499,0.00279225,0.00112925,1741884929.3837519
0.0025,-0.256,0.00075,0.001587,0.0029755002,0.0009155,1741884929.398722
0.00425,-0.254,0.00275,0.0020905002,0.00358575,0.00029,1741884929.412456
0.0045,-0.24975,0.00175,0.0026092501,0.0042115003,-0.0002135,1741884929.4284449
0.002,-0.2485,-0.0015,0.0038299998,0.0047912505,-0.00112925,1741884929.441407
0.00075,-0.249,-0.0055,0.003952,0.00485225,-0.00108325,1741884929.455947
0.00125,-0.2525,-0.00575,0.003952,0.0047912505,-0.00083925005,1741884929.470448
0.0025,-0.25425,-0.0055,0.004303,0.00466925,-0.000946,1741884929.4849339
0.00175,-0.25375,-0.008,0.00437925,0.0047607496,-0.0012055,1741884929.499558
0.00025,-0.25325,-0.0105,0.0042115003,0.00437925,-0.00157175,1741884929.51407
-0.0015,-0.25,-0.0115,0.0040587503,0.00408925,-0.0018005001,1741884929.528845
-0.00175,-0.25,-0.013,0.0037385002,0.00372325,-0.0021819999,1741884929.543365
0.00025,-0.25075,-0.01125,0.0034790002,0.0038605002,-0.00225825,1741884929.55888
0.0005,-0.251,-0.0115,0.00334175,0.0042572496,-0.0025787498,1741884929.5723379
-0.00175,-0.25175,-0.015,0.0033570002,0.0041044997,-0.0026854998,1741884929.586926
-0.003,-0.25175,-0.016,0.00279225,0.00378425,-0.002243,1741884929.601496
-0.004,-0.25175,-0.017,0.00242625,0.00378425,-0.0019989999,1741884929.616048
-0.0045,-0.25,-0.01725,0.0023497501,0.0036010002,-0.00204475,1741884929.63065
-0.00575,-0.24825,-0.019,0.00245675,0.002777,-0.002472,1741884929.6452749
-0.00825,-0.24875,-0.02275,0.0022277501,0.0022277501,-0.0025787498,1741884929.6598752
-0.00675,-0.24825,-0.019,0.00177,0.00157175,-0.003006,1741884929.674457
-0.00625,-0.248,-0.016,0.00190725,0.0017242499,-0.0034942501,1741884929.689505
-0.0085,-0.2495,-0.01875,0.00190725,0.0020599999,-0.00408925,1741884929.7036102
-0.0095,-0.25225,-0.01775,0.0018005001,0.00201425,-0.0039825,1741884929.7181592
-0.01025,-0.254,-0.01775,0.00201425,0.00193775,-0.00364675,1741884929.732717
-0.0135,-0.255,-0.0235,0.0019989999,0.001892,-0.00328075,1741884929.748565
-0.01375,-0.252,-0.02375,0.00160225,0.0017395001,-0.0027312501,1741884929.762089
-0.01675,-0.249,-0.02875,0.0014037499,0.001419,-0.00283825,1741884929.778124
-0.01825,-0.24825,-0.03025,0.00105275,0.0007935,-0.0030365,1741884929.791368
-0.01125,-0.242,-0.01425,0.00010675,-0.000229,-0.00328075,1741884929.806026
-0.0105,-0.24375,-0.0125,0.0003205,0.0,-0.00352475,1741884929.820631
-0.01375,-0.248,-0.018,0.0013580001,0.00064075,-0.00437925,1741884929.835236
-0.017,-0.2495,-0.022,0.00112925,0.000534,-0.0042267498,1741884929.849952
-0.0155,-0.24775,-0.01775,0.00083925005,0.00062550005,-0.0040587503,1741884929.864547
-0.01825,-0.24725,-0.02225,0.00148,0.00074775,-0.00453175,1741884929.879166
-0.02075,-0.248,-0.02625,0.001831,0.00039675,-0.00491325,1741884929.8937569
-0.02225,-0.2495,-0.026,0.00154125,0.00010675,-0.0048674997,1741884929.908712
-0.02225,-0.25,-0.024,0.00109875,-0.000122000005,-0.004776,1741884929.9230368
-0.0235,-0.25025,-0.022,0.001068,-7.625e-05,-0.0047302498,1741884929.9393868
-0.0245,-0.2505,-0.023,0.0012207499,6.1000002e-05,-0.004593,1741884929.952458
-0.026,-0.25,-0.0235,0.00115975,0.000229,-0.0045012496,1741884929.968062
-0.02725,-0.25,-0.024,0.0011445,0.00027475,-0.00440975,1741884929.981526
-0.02875,-0.24975,-0.025,0.00108325,0.00013725001,-0.0041810004,1741884929.9960608
-0.0305,-0.24925,-0.02375,0.00093075,0.00024425,-0.0040587503,1741884930.010614
-0.031,-0.25125,-0.02425,0.0010375,0.0003205,-0.0039215,1741884930.025229
-0.03125,-0.2525,-0.025,0.00115975,0.00027475,-0.00384525,1741884930.039736
-0.03125,-0.2505,-0.025,0.0014037499,0.0002135,-0.0038605002,1741884930.054322
-0.033,-0.24475,-0.02775,0.0016785001,0.000122000005,-0.00416575,1741884930.068966
-0.03375,-0.24375,-0.029,0.0019989999,-0.00035100002,-0.00491325,1741884930.0836182
-0.03525,-0.24625,-0.0285,0.00184625,-0.0005035,-0.0049895,1741884930.0982552
-0.03675,-0.248,-0.0275,0.0014495,-0.00051875,-0.0045777503,1741884930.1129239
-0.03975,-0.2505,-0.02675,0.0011445,-0.0003815,-0.0041044997,1741884930.128674
-0.04025,-0.2515,-0.0265,0.000824,-0.00024425,-0.00355525,1741884930.142324
-0.04025,-0.25225,-0.02475,0.00064075,1.5250001e-05,-0.002533,1741884930.1568189
-0.0405,-0.25225,-0.02625,0.00083925005,0.00010675,-0.0020905002,1741884930.171409
-0.0405,-0.251,-0.02775,0.00096125,6.1000002e-05,-0.0014037499,1741884930.185924
-0.0385,-0.248,-0.02725,0.00080875,7.625e-05,-0.0012055,1741884930.2006452
-0.0385,-0.248,-0.02725,0.00068675,0.00039675,-0.00105275,1741884930.215329
-0.04025,-0.24825,-0.0285,0.00074775,0.00059500005,-0.0010375,1741884930.22986
-0.042,-0.24825,-0.0305,0.00099175,0.00048825,-0.00119025,1741884930.2444348
-0.04375,-0.24575,-0.03275,0.0010375,0.000229,-0.0013580001,1741884930.258941
-0.043,-0.245,-0.0315,0.0007935,-0.00013725001,-0.0017242499,1741884930.27365
-0.0425,-0.24575,-0.031,0.00065625,-0.00027475,-0.0017852499,1741884930.289509
-0.0425,-0.24575,-0.03125,9.15e-05,-0.00054925,-0.00148,1741884930.302924
-0.042,-0.2455,-0.03,-0.00019825,-0.00062550005,-0.0012055,1741884930.318082
-0.04175,-0.245,-0.029,-0.00027475,-0.00067150005,-0.00102225,1741884930.332546
-0.04275,-0.2445,-0.02925,-0.00048825,-0.000534,-0.00109875,1741884930.348397
-0.044,-0.246,-0.0305,-0.00065625,-0.000412,-0.001175,1741884930.362166
-0.045,-0.2465,-0.031,-0.00045775,-0.000534,-0.00154125,1741884930.376873
-0.04625,-0.24575,-0.03,-0.0003815,-0.00067150005,-0.0016632499,1741884930.391629
-0.04675,-0.24675,-0.0295,-0.00027475,-0.00090025004,-0.00148,1741884930.406303
-0.0465,-0.24775,-0.02925,-0.000183,-0.00093075,-0.00137325,1741884930.421139
-0.046,-0.24725,-0.0295,-0.00036625,-0.0007935,-0.0012055,1741884930.43582
-0.04575,-0.247,-0.03075,-0.00045775,-0.0007935,-0.001236,1741884930.450638
-0.0455,-0.24625,-0.03075,-0.000412,-0.0010375,-0.00148,1741884930.465568
-0.04625,-0.24625,-0.0305,-0.00048825,-0.00112925,-0.0015105,1741884930.48034
-0.046,-0.2455,-0.0285,-0.0005035,-0.00143425,-0.00154125,1741884930.495158
-0.04525,-0.245,-0.02575,-0.00057975,-0.001419,-0.00148,1741884930.509811
-0.04525,-0.24575,-0.025,-0.00067150005,-0.0009765,-0.00105275,1741884930.52475
-0.04675,-0.2465,-0.02675,-0.00064075,-0.000763,-0.0007935,1741884930.5395079
-0.04675,-0.24675,-0.0275,-0.00035100002,-0.00062550005,-0.0005645,1741884930.5542898
-0.04625,-0.24675,-0.028,-0.00016775,-0.000534,-0.00062550005,1741884930.5691452
-0.0475,-0.247,-0.03025,0.0,-0.0004425,-0.00061025,1741884930.583848
-0.04775,-0.2455,-0.0295,-9.15e-05,-0.00057975,-0.000534,1741884930.598707
-0.04725,-0.24475,-0.0285,-0.0002135,-0.00067150005,-0.00048825,1741884930.613323
-0.049,-0.24475,-0.02975,-0.0005035,-0.00071725,-0.000412,1741884930.628553
-0.0495,-0.2455,-0.0295,-0.0007935,-0.00080875,-0.0002595,1741884930.642933
-0.0485,-0.24675,-0.0275,-0.001068,-0.001007,3.0500001e-05,1741884930.6584
-0.048,-0.2465,-0.02725,-0.001007,-0.0010375,0.00010675,1741884930.67232
-0.04925,-0.246,-0.03,-0.0009155,-0.0013275,0.00029,1741884930.6870022
-0.054,-0.244,-0.03575,-0.00102225,-0.0018005001,0.0003815,1741884930.701716
-0.05775,-0.24475,-0.039,-0.0020905002,-0.0036315,0.0007935,1741884930.7164302
-0.056,-0.2445,-0.033,-0.00279225,-0.0047302498,0.00105275,1741884930.73106
-0.0515,-0.244,-0.02575,-0.0034637498,-0.0051269997,0.00119025,1741884930.745713
-0.0455,-0.247,-0.0205,-0.003296,-0.004593,0.00108325,1741884930.7604392
-0.04375,-0.24775,-0.02075,-0.00270075,-0.003662,0.00102225,1741884930.7750368
-0.04175,-0.2465,-0.022,-0.002411,-0.0033570002,0.00099175,1741884930.7897432
-0.04125,-0.246,-0.0225,-0.00198375,-0.0028535,0.000946,1741884930.804415
-0.04225,-0.24475,-0.02225,-0.001892,-0.002655,0.0009155,1741884930.8190389
-0.043,-0.2445,-0.02275,-0.0019989999,-0.0025634998,0.000946,1741884930.8337212
-0.04225,-0.245,-0.02225,-0.0024414998,-0.0028229998,0.00099175,1741884930.8485398
-0.04075,-0.245,-0.02025,-0.00251775,-0.0030975002,0.0007325,1741884930.863152
-0.04025,-0.24575,-0.01925,-0.0021515,-0.003006,-0.000183,1741884930.878719
-0.04025,-0.249,-0.01925,-0.00193775,-0.0027160002,-0.00048825,1741884930.892614
-0.03875,-0.25,-0.0185,-0.0020295,-0.00254825,-0.000412,1741884930.907974
-0.03775,-0.25075,-0.0175,-0.0024872501,-0.002655,-3.0500001e-05,1741884930.922147
-0.03975,-0.25025,-0.0185,-0.003418,-0.0028074998,0.00093075,1741884930.936726
-0.04375,-0.24775,-0.02025,-0.0036315,-0.0029145,0.001175,1741884930.951444
-0.044,-0.2475,-0.01925,-0.0032655,-0.003006,0.00096125,1741884930.9660401
-0.04375,-0.2495,-0.0175,-0.0028535,-0.0029907501,0.00071725,1741884930.980783
-0.04325,-0.2505,-0.0175,-0.002472,-0.00289925,0.00093075,1741884930.995429
-0.0415,-0.24775,-0.01475,-0.00251775,-0.0027465,0.0012970001,1741884931.0100338
-0.04075,-0.246,-0.0135,-0.00242625,-0.001953,0.0015105,1741884931.024757
-0.04025,-0.24625,-0.01375,-0.0021972498,-0.00163275,0.00125125,1741884931.0394251
-0.03975,-0.247,-0.013,-0.00198375,-0.00143425,0.00096125,1741884931.054122
-0.0405,-0.25025,-0.01375,-0.00160225,-0.0008545,0.00074775,1741884931.068864
-0.04075,-0.251,-0.0145,-0.00148,-0.00064075,0.00093075,1741884931.083512
-0.04025,-0.25025,-0.01325,-0.0015105,-0.0004425,0.00146475,1741884931.098647
-0.03875,-0.248,-0.01075,-0.001419,-0.0002595,0.001526,1741884931.112958
-0.0385,-0.24775,-0.0115,-0.00096125,0.0003205,0.001236,1741884931.1288042
-0.0395,-0.2475,-0.0135,-0.0007935,0.00048825,0.001068,1741884931.142147
-0.0395,-0.2475,-0.01375,-0.00064075,0.000473,0.0009155,1741884931.1567109
-0.03825,-0.24725,-0.01225,-0.00065625,0.000473,0.00090025004,1741884931.171296
-0.037,-0.2475,-0.01075,-0.0009155,0.00068675,0.00108325,1741884931.185914
-0.03725,-0.2495,-0.0115,-0.001007,0.00080875,0.0012055,1741884931.2004979
-0.038,-0.25025,-0.01225,-0.0011445,0.001068,0.0013885,1741884931.2151308
-0.03875,-0.25,-0.01225,-0.0012055,0.001175,0.00148,1741884931.229737
-0.03875,-0.249,-0.0125,-0.0012817499,0.001236,0.001587,1741884931.2443242
-0.038,-0.248,-0.012,-0.00137325,0.0014495,0.00163275,1741884931.258949
-0.0375,-0.24875,-0.0115,-0.0013275,0.0016175,0.00163275,1741884931.2734878
-0.03825,-0.24925,-0.01225,-0.0012817499,0.0016632499,0.00181575,1741884931.289629
-0.0375,-0.24925,-0.012,-0.00131225,0.00157175,0.00187675,1741884931.302658
-0.03675,-0.249,-0.012,-0.001236,0.0012817499,0.0018005001,1741884931.318152
-0.035,-0.249,-0.01025,-0.00119025,0.00105275,0.001709,1741884931.3318532
-0.03375,-0.24875,-0.00775,-0.001114,0.00086975005,0.0013427499,1741884931.346619
-0.03375,-0.251,-0.0065,-0.00105275,0.0010375,0.0012207499,1741884931.3611479
-0.0335,-0.25175,-0.007,-0.001007,0.00131225,0.0013885,1741884931.375861
-0.0325,-0.252,-0.006,-0.00109875,0.00146475,0.0015565,1741884931.390414
-0.03175,-0.2515,-0.00625,-0.001175,0.001648,0.001709,1741884931.4052029
-0.0315,-0.25075,-0.0065,-0.0012055,0.00181575,0.00187675,1741884931.419884
-0.03125,-0.24975,-0.006,-0.0011445,0.0018005001,0.00187675,1741884931.434422
-0.03125,-0.24875,-0.006,-0.000885,0.001709,0.0016785001,1741884931.44903
-0.032,-0.24825,-0.00725,-0.00086975005,0.0016175,0.001587,1741884931.463607
-0.032,-0.24825,-0.00675,-0.00105275,0.0013427499,0.00149525,1741884931.478807
-0.031,-0.2495,-0.00625,-0.001175,0.0012665,0.00143425,1741884931.492842
-0.031,-0.24975,-0.00675,-0.0012970001,0.00102225,0.00143425,1741884931.5084732
-0.03075,-0.24925,-0.0055,-0.0013427499,0.000824,0.001526,1741884931.5221288
-0.0295,-0.24825,-0.004,-0.0014495,0.00059500005,0.00160225,1741884931.536704
-0.02675,-0.24675,-0.00175,-0.0014495,0.00067150005,0.00149525,1741884931.551331
-0.02625,-0.247,-0.0015,-0.00149525,0.0010375,0.0012970001,1741884931.5659058
-0.02775,-0.25,-0.00225,-0.0015565,0.00119025,0.0012665,1741884931.580601
-0.02825,-0.2505,-0.00225,-0.00157175,0.00125125,0.001236,1741884931.595217
-0.02925,-0.252,-0.0035,-0.00181575,0.00125125,0.00149525,1741884931.609844
-0.02925,-0.252,-0.00375,-0.001892,0.00109875,0.001648,1741884931.6243572
-0.0285,-0.251,-0.003,-0.0017852499,0.00057975,0.0015105,1741884931.639539
-0.0255,-0.24925,0.0,-0.001831,0.00042725,0.0013885,1741884931.653475
-0.02475,-0.24975,0.001,-0.001831,0.00065625,0.0013427499,1741884931.6681988
-0.026,-0.2515,-0.0005,-0.0017852499,0.0007935,0.001419,1741884931.682911
-0.02575,-0.251,-0.0005,-0.0020295,0.00077825,0.00177,1741884931.6977868
-0.0235,-0.25025,0.00275,-0.00225825,0.00083925005,0.0019685,1741884931.712248
-0.02275,-0.2505,0.0035,-0.002411,0.001175,0.0021972498,1741884931.726838
-0.0215,-0.24825,0.00525,-0.00242625,0.0013275,0.0022735,1741884931.741316
-0.021,-0.24775,0.00575,-0.0028074998,0.00177,0.0026854998,1741884931.7557828
-0.02325,-0.251,0.0035,-0.003006,0.00201425,0.0029145,1741884931.7703521
-0.0235,-0.2535,0.0025,-0.003006,0.0020599999,0.00292975,1741884931.784857
-0.02275,-0.2545,0.003,-0.0023497501,0.00148,0.00231925,1741884931.799551
-0.0195,-0.25425,0.0065,-0.0021057501,0.00119025,0.0021515,1741884931.8141341
-0.0185,-0.2535,0.008,-0.00181575,0.00108325,0.00204475,1741884931.828759
-0.0175,-0.25125,0.00925,-0.00157175,0.00119025,0.001953,1741884931.8432362
-0.01675,-0.251,0.0105,-0.0014037499,0.001709,0.0020752498,1741884931.8583739
-0.017,-0.2515,0.01175,-0.00131225,0.0020752498,0.0022125002,1741884931.8721862
-0.0185,-0.25075,0.00875,-0.00112925,0.0025025,0.0023345,1741884931.8866491
-0.0205,-0.25025,0.004,-0.001068,0.0022735,0.0022125002,1741884931.901128
-0.01875,-0.2485,0.0055,-0.0009765,0.0017852499,0.00193775,1741884931.915533
-0.0165,-0.24725,0.008,-0.00070200005,0.00119025,0.00096125,1741884931.930012
-0.01475,-0.24975,0.00925,-0.00048825,0.0012055,0.0005035,1741884931.94451
-0.0145,-0.25125,0.00925,-0.000183,0.0012970001,0.000122000005,1741884931.959008
-0.01475,-0.25275,0.009,-0.00016775,0.0013885,0.0001525,1741884931.9735098
-0.01525,-0.25225,0.0085,-9.15e-05,0.00148,0.000122000005,1741884931.989255
-0.0155,-0.25075,0.00825,-9.15e-05,0.00148,3.0500001e-05,1741884932.0027719
-0.01575,-0.2505,0.009,-0.00036625,0.0016175,-9.15e-05,1741884932.018028
-0.01575,-0.251,0.0095,-0.00039675,0.001709,-0.000122000005,1741884932.031907
-0.01575,-0.24925,0.0105,-0.0003205,0.0018005001,-0.00016775,1741884932.04648
-0.01625,-0.24875,0.01075,-0.00013725001,0.0020295,-0.000229,1741884932.061037
-0.017,-0.24925,0.00975,-6.1000002e-05,0.0020599999,-0.00033575002,1741884932.07559
-0.01625,-0.25,0.00975,-0.00013725001,0.00193775,-0.000534,1741884932.090122
-0.01325,-0.25125,0.01225,-0.000183,0.0020752498,-0.0005645,1741884932.104724
-0.01325,-0.25125,0.01225,-0.0001525,0.0027465,-0.00051875,1741884932.11951
-0.016,-0.2535,0.007,-9.15e-05,0.0028229998,-0.00051875,1741884932.134131
-0.0165,-0.25275,0.00625,0.00016775,0.0020599999,-0.00112925,1741884932.148684
-0.01575,-0.2505,0.0115,0.00027475,0.0018615,-0.00148,1741884932.163137
-0.0155,-0.2505,0.01375,0.00057975,0.0023345,-0.001587,1741884932.178116
-0.01925,-0.25175,0.01075,0.00054925,0.0027312501,-0.0012970001,1741884932.192207
-0.0205,-0.2525,0.00775,0.0004425,0.0028535,-0.00093075,1741884932.206571
-0.0175,-0.25,0.00825,0.0004425,0.0020905002,-0.00071725,1741884932.221022
-0.0155,-0.24875,0.01,0.000412,0.00184625,-0.0008545,1741884932.23551
-0.015,-0.249,0.01125,0.00039675,0.00225825,-0.0015565,1741884932.250123
-0.01825,-0.25175,0.0095,0.00048825,0.0024872501,-0.00187675,1741884932.2646458
-0.01975,-0.25275,0.009,0.0005035,0.0023039998,-0.001648,1741884932.279129
-0.021,-0.253,0.0075,0.0004425,0.00198375,-0.00125125,1741884932.2935941
-0.02075,-0.25225,0.00775,0.0002595,0.0011445,-0.00074775,1741884932.3085299
-0.01825,-0.25,0.00925,0.00019825,0.00086975005,-0.00059500005,1741884932.322586
-0.0165,-0.24875,0.012,0.0001525,0.00096125,-0.00061025,1741884932.337117
-0.018,-0.2495,0.012,0.00054925,0.00148,-0.00102225,1741884932.35163
-0.02025,-0.2515,0.0095,0.00083925005,0.0016175,-0.0012665,1741884932.3661408
-0.0215,-0.25225,0.00875,0.0011445,0.0013275,-0.00143425,1741884932.3806279
-0.022,-0.252,0.00675,0.001114,0.00115975,-0.0012055,1741884932.395045
-0.0215,-0.25125,0.008,0.0011445,0.00125125,-0.00102225,1741884932.40951
-0.02225,-0.24875,0.008,0.0013427499,0.00119025,-0.0012207499,1741884932.4241228
-0.0235,-0.24925,0.0065,0.001419,0.00099175,-0.00131225,1741884932.439626
-0.023,-0.25125,0.00725,0.001175,0.001114,-0.0010375,1741884932.453115
-0.02275,-0.2515,0.008,0.0008545,0.0013580001,-0.00051875,1741884932.468108
-0.0235,-0.2505,0.00725,0.00083925005,0.0012970001,-0.00036625,1741884932.482205
-0.02375,-0.25075,0.0065,0.00083925005,0.00125125,-0.00027475,1741884932.4977238
-0.0245,-0.25125,0.00525,0.00083925005,0.00119025,-0.0002595,1741884932.511412
-0.02375,-0.25325,0.0055,0.00074775,0.00109875,-0.0001525,1741884932.5259058
-0.02325,-0.25325,0.0065,0.00054925,0.0010375,9.15e-05,1741884932.540415
-0.02225,-0.253,0.00775,0.00048825,0.00108325,0.0002135,1741884932.5547168
-0.022,-0.253,0.00675,0.000473,0.00115975,0.00045775,1741884932.5692108
-0.02225,-0.25025,0.005,0.0005035,0.00109875,0.0005035,1741884932.583628
-0.0225,-0.24875,0.00425,0.0003815,0.000763,0.00039675,1741884932.598596
-0.024,-0.25,0.00275,0.00033575002,0.00051875,0.00035100002,1741884932.61247
-0.023,-0.2505,0.004,0.00030525,0.0002135,0.0003815,1741884932.628181
-0.0205,-0.25075,0.007,0.0004425,9.15e-05,0.00057975,1741884932.641279
-0.018,-0.25075,0.009,0.00068675,0.00042725,0.0005645,1741884932.655705
-0.01825,-0.25,0.0085,0.00112925,0.001236,0.00051875,1741884932.670191
-0.0215,-0.249,0.0045,0.00112925,0.0013580001,0.00045775,1741884932.684746
-0.02425,-0.249,0.002,0.00115975,0.001068,0.0,1741884932.69913
-0.02725,-0.25225,0.001,0.001068,0.00062550005,-0.000122000005,1741884932.713614
-0.02575,-0.254,0.00325,0.00093075,-0.00027475,-0.0002595,1741884932.728711
-0.019,-0.2555,0.00875,0.00099175,-0.00036625,-0.00027475,1741884932.7428741
-0.017,-0.25475,0.009,0.00108325,-0.000183,-0.00016775,1741884932.758534
-0.0165,-0.253,0.00725,0.0012055,0.000534,7.625e-05,1741884932.771979
-0.01925,-0.249,0.0025,0.0012665,0.00074775,4.575e-05,1741884932.7863429
-0.021,-0.248,0.001,0.0012817499,0.000473,-0.0003815,1741884932.800829
-0.0205,-0.24675,0.0025,0.0012055,0.000183,-0.00059500005,1741884932.8153138
-0.02075,-0.2475,0.00375,0.0009155,0.00013725001,-0.00071725,1741884932.8298292
-0.02425,-0.25025,0.0025,0.00086975005,0.00019825,-0.00070200005,1741884932.844214
-0.025,-0.25125,0.002,0.000824,1.5250001e-05,-0.0005645,1741884932.858689
-0.02275,-0.251,0.003,0.000885,-0.00010675,-0.00061025,1741884932.873316
-0.02125,-0.25075,0.00325,0.0009765,-0.00013725001,-0.00077825,1741884932.889398
-0.02025,-0.251,0.0025,0.00112925,4.575e-05,-0.00099175,1741884932.902526
-0.02175,-0.252,0.0005,0.00119025,0.00013725001,-0.001007,1741884932.918062
-0.023,-0.252,0.0,0.0012665,1.5250001e-05,-0.001068,1741884932.931486
-0.0235,-0.25125,0.00125,0.0012970001,-7.625e-05,-0.00112925,1741884932.945997
-0.024,-0.2505,0.0005,0.0015565,-0.0002135,-0.001419,1741884932.960567
-0.02525,-0.24575,-0.00075,0.001709,-0.00039675,-0.001831,1741884932.9752278
-0.02475,-0.24675,0.00025,0.00175475,-0.00062550005,-0.0026092501,1741884932.989821
-0.02625,-0.25125,-0.00025,0.0017395001,-0.00061025,-0.0027160002,1741884933.0043561
-0.027,-0.25275,-0.00125,0.0017395001,-0.00062550005,-0.00254825,1741884933.018975
-0.02675,-0.25375,-0.0025,0.0016632499,-0.00064075,-0.0023039998,1741884933.033622
-0.027,-0.2525,-0.003,0.0015565,-0.00067150005,-0.00198375,1741884933.04849
-0.02725,-0.25175,-0.0035,0.0014037499,-0.00068675,-0.0014495,1741884933.063124
-0.02775,-0.25125,-0.00375,0.001526,-0.00071725,-0.0013275,1741884933.078582
-0.02775,-0.25175,-0.00375,0.00177,-0.000824,-0.0012207499,1741884933.092414
-0.027,-0.2505,-0.00225,0.00175475,-0.000763,-0.00108325,1741884933.1081338
-0.028,-0.25,-0.0025,0.00143425,-0.000534,-0.00093075,1741884933.121739
-0.03025,-0.249,-0.005,0.00143425,-0.00051875,-0.001007,1741884933.136387
-0.03025,-0.2485,-0.0055,0.0014495,-0.000534,-0.0012207499,1741884933.1509912
-0.03075,-0.25075,-0.00525,0.00146475,-0.000534,-0.0012817499,1741884933.165736
-0.03,-0.25175,-0.00575,0.001587,-0.00070200005,-0.0013580001,1741884933.180421
-0.02725,-0.2505,-0.00525,0.00154125,-0.00067150005,-0.0013580001,1741884933.194956
-0.027,-0.25,-0.0055,0.0014037499,-0.00036625,-0.00125125,1741884933.2096379
-0.028,-0.2495,-0.00575,0.0013427499,-0.00027475,-0.001175,1741884933.224277
-0.029,-0.24875,-0.006,0.00131225,-0.000229,-0.00119025,1741884933.238954
-0.03025,-0.24675,-0.0065,0.0013427499,-0.00016775,-0.00137325,1741884933.253632
-0.0315,-0.24775,-0.0065,0.0012207499,-0.000122000005,-0.0014037499,1741884933.2682838
-0.03225,-0.24925,-0.00675,0.001114,-0.00010675,-0.00149525,1741884933.283006
-0.03375,-0.2495,-0.009,0.0011445,-0.00013725001,-0.00160225,1741884933.2981288
-0.03375,-0.24925,-0.00975,0.001068,-0.00036625,-0.00163275,1741884933.312404
-0.0335,-0.2485,-0.00975,0.00096125,-0.0004425,-0.0015565,1741884933.328125
-0.034,-0.24875,-0.0095,0.0008545,-0.000412,-0.00157175,1741884933.3416378
-0.0345,-0.24875,-0.01,0.00090025004,-0.0003815,-0.00163275,1741884933.356278
-0.0345,-0.2495,-0.0105,0.0009765,-0.0004425,-0.00187675,1741884933.370968
-0.0345,-0.2505,-0.01025,0.00099175,-0.00054925,-0.0020752498,1741884933.3856719
-0.0345,-0.25075,-0.01025,0.00099175,-0.00067150005,-0.00213625,1741884933.400338
-0.03425,-0.24925,-0.01,0.00096125,-0.00064075,-0.00201425,1741884933.414968
-0.0345,-0.24825,-0.0095,0.00096125,-0.00051875,-0.00193775,1741884933.4295979
-0.03825,-0.24975,-0.01275,0.00108325,-0.0003205,-0.0021819999,1741884933.444258
-0.03975,-0.25,-0.01325,0.00131225,-0.00042725,-0.0025634998,1741884933.458935
-0.04,-0.24975,-0.0125,0.00157175,-0.00077825,-0.00289925,1741884933.4736562
-0.03775,-0.249,-0.011,0.00143425,-0.000824,-0.0026092501,1741884933.489365
-0.0375,-0.24875,-0.011,0.0010375,-0.00051875,-0.00181575,1741884933.503065
-0.0385,-0.24725,-0.01225,0.00093075,-0.000412,-0.0016785001,1741884933.518173
-0.03825,-0.24575,-0.01175,0.001007,-0.00045775,-0.0022125002,1741884933.532344
-0.0395,-0.245,-0.0125,0.00102225,-0.000473,-0.0024872501,1741884933.5484202
-0.04125,-0.24625,-0.014,0.00080875,-0.00059500005,-0.00242625,1741884933.561714
-0.0425,-0.24725,-0.01375,0.00062550005,-0.00070200005,-0.00216675,1741884933.576385
-0.043,-0.248,-0.013,0.00048825,-0.00071725,-0.0017852499,1741884933.5909781
-0.0435,-0.25,-0.013,0.00045775,-0.000763,-0.00157175,1741884933.6056561
-0.043,-0.25,-0.0125,0.00033575002,-0.00080875,-0.00115975,1741884933.620356
-0.04275,-0.2485,-0.01325,0.00030525,-0.0007325,-0.00102225,1741884933.635078
-0.04325,-0.2485,-0.01425,0.00024425,-0.00070200005,-0.0009155,1741884933.649695
-0.0435,-0.24825,-0.0145,1.5250001e-05,-0.0007935,-0.00062550005,1741884933.664348
-0.043,-0.2475,-0.01325,-9.15e-05,-0.0007935,-0.00042725,1741884933.6791081
-0.0425,-0.247,-0.0125,-0.0002135,-0.00074775,-4.575e-05,1741884933.6939242
-0.043,-0.24625,-0.01275,-0.00024425,-0.00071725,4.575e-05,1741884933.708689
-0.044,-0.247,-0.0135,-0.00027475,-0.00074775,9.15e-05,1741884933.723358
-0.0465,-0.25,-0.01575,-0.00030525,-0.000885,0.00013725001,1741884933.73911
-0.04675,-0.25125,-0.01625,-0.00036625,-0.0012665,0.0002595,1741884933.752684
-0.04375,-0.25125,-0.01375,-0.000412,-0.001419,0.00033575002,1741884933.768081
-0.042,-0.25025,-0.0125,-0.00039675,-0.0013427499,0.00048825,1741884933.782069
-0.04225,-0.247,-0.014,-0.00030525,-0.0012207499,0.000534,1741884933.796724
-0.04225,-0.2455,-0.014,-9.15e-05,-0.00109875,0.00027475,1741884933.811362
-0.04225,-0.2445,-0.014,-3.0500001e-05,-0.001068,0.000122000005,1741884933.826015
-0.043,-0.24525,-0.01425,-0.000183,-0.001114,0.00016775,1741884933.840707
-0.043,-0.247,-0.0125,-0.00029,-0.00109875,0.00027475,1741884933.855353
-0.04225,-0.24825,-0.01175,-0.000412,-0.0009765,0.00035100002,1741884933.8699698
-0.04125,-0.24875,-0.011,-0.0005035,-0.000885,0.00042725,1741884933.884593
-0.04025,-0.249,-0.0125,-0.000534,-0.000824,0.00061025,1741884933.899306
-0.041,-0.24875,-0.01375,-0.00051875,-0.00074775,0.000885,1741884933.913954
-0.042,-0.248,-0.01425,-0.0005035,-0.00083925005,0.00086975005,1741884933.928983
-0.04175,-0.2485,-0.01375,-0.00036625,-0.00090025004,0.00070200005,1741884933.9432719
-0.0425,-0.251,-0.01475,-0.0001525,-0.00093075,0.00061025,1741884933.958583
-0.0425,-0.2505,-0.014,0.0001525,-0.00119025,0.00064075,1741884933.972558
-0.041,-0.24925,-0.01225,0.00016775,-0.00125125,0.00077825,1741884933.9872189
-0.041,-0.2485,-0.0125,0.00030525,-0.00105275,0.00096125,1741884934.00176
-0.04125,-0.246,-0.01325,0.0003815,-0.0009155,0.000885,1741884934.0163069
-0.04075,-0.24575,-0.01325,0.0003815,-0.000763,0.00074775,1741884934.0307999
-0.04125,-0.2475,-0.01475,0.00016775,-0.0005645,0.0003815,1741884934.0453298
-0.042,-0.24825,-0.016,7.625e-05,-0.00061025,0.00027475,1741884934.059911
-0.04125,-0.248,-0.0155,9.15e-05,-0.0009155,0.00024425,1741884934.074539
-0.039,-0.24725,-0.01325,6.1000002e-05,-0.0008545,0.00029,1741884934.089281
-0.03975,-0.24725,-0.01425,6.1000002e-05,-0.000534,0.00036625,1741884934.103603
-0.0395,-0.246,-0.01325,0.00010675,-0.00054925,0.000229,1741884934.1181839
-0.0395,-0.2465,-0.013,6.1000002e-05,-0.00065625,9.15e-05,1741884934.132778
-0.0395,-0.2495,-0.0135,-4.575e-05,-0.000534,0.000122000005,1741884934.14858
-0.0395,-0.2495,-0.0135,-0.0002595,-0.00035100002,0.00027475,1741884934.161995
-0.0395,-0.24875,-0.0145,-0.00030525,-0.00030525,0.00033575002,1741884934.1783302
-0.03975,-0.248,-0.0145,-0.00027475,-0.00033575002,0.00024425,1741884934.191385
-0.0395,-0.24825,-0.01525,-6.1000002e-05,-0.000763,3.0500001e-05,1741884934.206074
-0.03925,-0.2495,-0.0145,-9.15e-05,-0.00077825,9.15e-05,1741884934.220763
-0.03875,-0.25,-0.01325,-0.00024425,-0.00059500005,0.00030525,1741884934.235373
-0.039,-0.24975,-0.0125,-0.00030525,-0.0005035,0.0003815,1741884934.2499819
-0.03975,-0.2495,-0.01325,-0.00027475,-0.0004425,0.000229,1741884934.264671
-0.0415,-0.2485,-0.016,-0.00013725001,-0.00071725,0.00010675,1741884934.279404
-0.04025,-0.24875,-0.0155,-0.000183,-0.001175,0.000183,1741884934.293992
-0.038,-0.24775,-0.0135,-0.00033575002,-0.001068,0.0003205,1741884934.3086772
-0.038,-0.248,-0.01325,-0.0005035,-0.00077825,0.0003205,1741884934.323339
-0.039,-0.24675,-0.01375,-0.00039675,-0.000946,0.000122000005,1741884934.339338
-0.0385,-0.24675,-0.01375,-0.000473,-0.0012970001,1.5250001e-05,1741884934.352659
-0.04,-0.24725,-0.014,-0.00061025,-0.001236,0.000183,1741884934.368166
-0.04175,-0.248,-0.01475,-0.000885,-0.00146475,0.00035100002,1741884934.38195
-0.041,-0.24575,-0.01275,-0.00096125,-0.00190725,0.00024425,1741884934.396699
-0.0395,-0.24675,-0.01175,-0.0012665,-0.0021057501,0.00029,1741884934.4113731
-0.03825,-0.249,-0.01025,-0.00163275,-0.001587,0.00051875,1741884934.426081
-0.03775,-0.25075,-0.0095,-0.00137325,-0.001419,0.0005035,1741884934.440695
-0.038,-0.25025,-0.01075,-0.00083925005,-0.00131225,0.0005035,1741884934.4553201
-0.039,-0.24825,-0.014,-0.00064075,-0.0013885,0.00027475,1741884934.4699461
-0.039,-0.24775,-0.01375,-0.00042725,-0.0017242499,-0.00027475,1741884934.4847791
-0.03825,-0.24675,-0.0115,-0.00048825,-0.0018615,-0.00039675,1741884934.4994571
-0.03775,-0.24725,-0.01025,-0.00093075,-0.00184625,-0.00013725001,1741884934.5142112
-0.03725,-0.24975,-0.009,-0.00115975,-0.00177,7.625e-05,1741884934.528939
-0.03575,-0.25025,-0.008,-0.001236,-0.001526,0.00024425,1741884934.5435321
-0.03375,-0.24925,-0.007,-0.001175,-0.00131225,0.000229,1741884934.558617
-0.03225,-0.24875,-0.00525,-0.001068,-0.00074775,0.00016775,1741884934.572854
-0.03125,-0.25,-0.0045,-0.0010375,-0.00027475,0.000183,1741884934.587559
-0.0335,-0.251,-0.007,-0.00102225,0.00019825,0.00033575002,1741884934.602132
-0.03725,-0.24825,-0.01,-0.00125125,0.00062550005,0.00093075,1741884934.618005
-0.0385,-0.24675,-0.0105,-0.001648,0.0005035,0.001419,1741884934.631534
-0.039,-0.24475,-0.0105,-0.0030365,-0.000183,0.00254825,1741884934.646292
-0.03775,-0.24725,-0.0095,-0.0037537501,-0.00036625,0.00296025,1741884934.660971
-0.037,-0.25025,-0.00875,-0.0033722501,-0.00042725,0.002365,1741884934.675536
-0.03575,-0.251,-0.007,-0.00263975,-0.00036625,0.0018005001,1741884934.690259
-0.036,-0.2495,-0.00775,-0.001953,-0.00064075,0.0013580001,1741884934.7049851
-0.03625,-0.24725,-0.0065,-0.00198375,-0.0008545,0.0013427499,1741884934.719639
-0.03525,-0.248,-0.005,-0.0021819999,-0.0010375,0.00143425,1741884934.734365
-0.033,-0.2525,-0.00125,-0.0022277501,-0.00083925005,0.0015565,1741884934.7491891
-0.03275,-0.2535,-0.00125,-0.00160225,-0.00054925,0.001587,1741884934.763867
-0.03125,-0.25225,-0.00175,-0.0011445,-0.0005035,0.00149525,1741884934.778687
-0.0305,-0.25125,-0.00125,-0.0007325,-0.0002595,0.00131225,1741884934.793344
-0.031,-0.25125,-0.00225,-0.00071725,-6.1000002e-05,0.0012207499,1741884934.8086138
-0.0315,-0.25075,-0.00225,-0.00071725,9.15e-05,0.00109875,1741884934.822602
-0.03125,-0.24975,-0.0015,-0.00080875,0.00010675,0.0009765,1741884934.8371892
-0.0305,-0.2495,-0.001,-0.0007935,4.575e-05,0.00093075,1741884934.851768
-0.03,-0.2495,-0.001,-0.00071725,3.0500001e-05,0.000824,1741884934.8663082
-0.02875,-0.24875,-0.00075,-0.00071725,3.0500001e-05,0.00074775,1741884934.880883
-0.028,-0.24875,-0.00025,-0.00071725,0.00013725001,0.000534,1741884934.895553
-0.02875,-0.25,-0.001,-0.00064075,0.000229,0.00045775,1741884934.910284
-0.02975,-0.2505,-0.00225,-0.00057975,0.0002595,0.000534,1741884934.924809
-0.03025,-0.25075,-0.00175,-0.00061025,0.0002135,0.00061025,1741884934.939348
-0.03075,-0.25075,-0.0015,-0.0004425,0.0001525,0.0004425,1741884934.9538639
-0.03025,-0.25075,-0.00075,-0.00029,7.625e-05,0.00027475,1741884934.968586
-0.0285,-0.2505,0.0005,-9.15e-05,0.00016775,0.000122000005,1741884934.9831061
-0.029,-0.249,-0.00125,-4.575e-05,0.00033575002,0.00013725001,1741884934.998234
-0.03025,-0.24825,-0.00225,-6.1000002e-05,0.00039675,0.0002135,1741884935.012376
-0.03125,-0.2485,-0.00225,-0.000122000005,0.0002135,7.625e-05,1741884935.028069
-0.0315,-0.24975,-0.001,-6.1000002e-05,3.0500001e-05,-9.15e-05,1741884935.041663
-0.03025,-0.25125,0.0,-0.000122000005,-0.00010675,-1.5250001e-05,1741884935.057826
-0.02925,-0.2525,0.0005,-9.15e-05,0.0,0.000122000005,1741884935.070872
-0.0295,-0.2515,-0.0,-3.0500001e-05,7.625e-05,0.00029,1741884935.085448
-0.028,-0.24975,0.00125,-4.575e-05,0.00010675,0.000229,1741884935.099888
-0.02775,-0.24925,0.00125,0.000183,0.00024425,-0.0001525,1741884935.114557
-0.02875,-0.24975,0.00075,0.000229,0.00033575002,-0.00016775,1741884935.129104
-0.02975,-0.2505,-0.0,0.00029,0.00035100002,-6.1000002e-05,1741884935.143575
-0.03175,-0.24925,-0.00225,0.00030525,0.0002135,-4.575e-05,1741884935.158526
-0.03175,-0.249,-0.00225,0.00024425,-1.5250001e-05,-1.5250001e-05,1741884935.172875
-0.03075,-0.249,-0.001,4.575e-05,-0.00033575002,3.0500001e-05,1741884935.189218
-0.0285,-0.2505,0.0025,-1.5250001e-05,-0.00019825,7.625e-05,1741884935.202147
-0.02875,-0.25175,0.0015,0.0,0.0003205,0.0003205,1741884935.216505
-0.029,-0.25025,-0.00125,0.0,0.00039675,0.0004425,1741884935.230922
-0.02875,-0.25025,-0.001,-6.1000002e-05,0.00039675,0.000473,1741884935.245557
-0.02875,-0.2525,-0.0,1.5250001e-05,0.00042725,0.00033575002,1741884935.260164
-0.0295,-0.2525,-0.0005,3.0500001e-05,0.000412,0.000473,1741884935.274637
-0.03025,-0.25175,-0.001,-6.1000002e-05,0.0003205,0.00070200005,1741884935.28932
-0.03025,-0.25175,-0.00075,-0.00010675,4.575e-05,0.00093075,1741884935.3037949
-0.02875,-0.25225,-0.0,-1.5250001e-05,-7.625e-05,0.000885,1741884935.31836
-0.02725,-0.252,-0.0,6.1000002e-05,-0.00013725001,0.000824,1741884935.332983
-0.02625,-0.25175,0.0,9.15e-05,-3.0500001e-05,0.0007935,1741884935.34851
-0.0245,-0.25025,0.001,0.00010675,6.1000002e-05,0.000763,1741884935.3618271
-0.0235,-0.2495,0.0015,9.15e-05,0.00039675,0.00062550005,1741884935.37618
-0.02575,-0.24975,-0.00125,9.15e-05,0.000534,0.00057975,1741884935.39068
-0.02725,-0.24925,-0.00225,7.625e-05,0.00036625,0.00048825,1741884935.405157
-0.02725,-0.24775,-0.0005,0.0,0.000229,0.000473,1741884935.41959
-0.02675,-0.248,0.00025,-4.575e-05,0.0001525,0.0005035,1741884935.4341629
-0.02675,-0.2485,0.0005,-4.575e-05,0.000183,0.000534,1741884935.448684
-0.02725,-0.249,-0.00025,-3.0500001e-05,0.000229,0.00048825,1741884935.463284
-0.02725,-0.249,-0.0005,3.0500001e-05,0.00027475,0.00024425,1741884935.478118
-0.028,-0.24925,-0.00125,0.0,0.00030525,0.0001525,1741884935.4921951
-0.02875,-0.24925,-0.003,-0.00016775,0.00010675,0.00019825,1741884935.506774
-0.02875,-0.249,-0.0035,-0.0002595,-0.00013725001,0.0002135,1741884935.521334
-0.02725,-0.2485,-0.0015,-0.00042725,-0.00039675,9.15e-05,1741884935.5360682
-0.02475,-0.25075,0.00225,-0.00057975,-0.000183,9.15e-05,1741884935.5505579
-0.0245,-0.2525,0.00225,-0.001007,0.00077825,0.00029,1741884935.5650828
-0.02775,-0.25425,-0.00025,-0.00115975,0.001114,0.000412,1741884935.579543
-0.028,-0.25325,-0.00125,-0.0012817499,0.00112925,0.000473,1741884935.594079
-0.026,-0.25,0.00025,-0.00157175,0.00071725,0.00062550005,1741884935.6087239
-0.0255,-0.24975,0.001,-0.00181575,0.00062550005,0.00077825,1741884935.62297
-0.0255,-0.24975,0.00175,-0.0020599999,0.00051875,0.00119025,1741884935.6374478
-0.024,-0.24875,0.0045,-0.0020295,0.00033575002,0.00143425,1741884935.65199
-0.0225,-0.2475,0.0065,-0.0023345,0.0004425,0.0019225,1741884935.666555
-0.022,-0.248,0.00675,-0.00279225,0.00065625,0.002365,1741884935.681083
-0.02125,-0.2495,0.00725,-0.0042725,0.00143425,0.0038605002,1741884935.695683
-0.02225,-0.252,0.0075,-0.00453175,0.00184625,0.00434875,1741884935.710169
-0.02375,-0.25175,0.0055,-0.00416575,0.0016632499,0.0044707498,1741884935.724666
-0.02325,-0.25125,0.00525,-0.004242,0.00125125,0.00469975,1741884935.7392
-0.019,-0.2515,0.01025,-0.0044250004,0.00099175,0.0049895,1741884935.75367
-0.01525,-0.25325,0.01325,-0.0038299998,0.001236,0.0045777503,1741884935.768172
-0.0135,-0.25475,0.0135,-0.0028535,0.00157175,0.00364675,1741884935.782685
-0.01375,-0.25325,0.012,-0.001526,0.00201425,0.0025940002,1741884935.7980459
-0.01475,-0.25275,0.01175,-0.00148,0.0020752498,0.0028535,1741884935.811696
-0.0155,-0.25375,0.012,-0.00177,0.0022125002,0.0037995,1741884935.826169
-0.01525,-0.254,0.0115,-0.0019685,0.0021819999,0.0043182503,1741884935.840684
-0.014,-0.2535,0.01225,-0.00228875,0.0018005001,0.0052642496,1741884935.8551738
-0.00925,-0.2495,0.01775,-0.002243,0.001648,0.00531,1741884935.869693
-0.00625,-0.24725,0.02125,-0.00216675,0.00184625,0.00517275,1741884935.8841941
-0.00375,-0.24725,0.022,-0.00177,0.00334175,0.00494375,1741884935.898699
-0.00275,-0.2495,0.01625,-0.0012817499,0.004013,0.00514225,1741884935.913173
-0.0025,-0.2515,0.01425,-0.00096125,0.0049285004,0.0069274995,1741884935.928617
-0.00175,-0.258,0.01575,-0.00090025004,0.00541675,0.00791925,1741884935.942185
0.0005,-0.25975,0.021,0.00105275,0.00646975,0.0076599997,1741884935.95808
0.002,-0.26,0.02375,0.003006,0.00697325,0.00596625,1741884935.970944
-0.0,-0.25975,0.01725,0.0073395,0.00617975,0.00112925,1741884935.985347
0.0005,-0.252,0.0125,0.00935375,0.00514225,-0.00105275,1741884935.999882
0.003,-0.247,0.0155,0.010727,0.00463875,-0.00263975,1741884936.014385
0.00425,-0.24525,0.015,0.01156625,0.0055847503,-0.0042572496,1741884936.0289102
-0.0005,-0.249,0.001,0.0114440005,0.00614925,-0.00463875,1741884936.043453
-0.00325,-0.25125,-0.005,0.0102845,0.00564575,-0.00453175,1741884936.058497
-0.00225,-0.2495,-0.0015,0.009506251,0.00505075,-0.00413525,1741884936.072531
0.0,-0.24675,0.00225,0.008346501,0.00538625,-0.00402825,1741884936.086955
-0.00375,-0.2495,-0.008,0.0080567505,0.0057220003,-0.0044555003,1741884936.101598
-0.009,-0.25125,-0.01525,0.0076599997,0.004074,-0.00531,1741884936.116162
-0.014,-0.24725,-0.017,0.0070647504,0.0027160002,-0.00514225,1741884936.1307788
-0.01475,-0.24575,-0.016,0.0061035,0.001648,-0.004593,1741884936.1452641
-0.0155,-0.2455,-0.01625,0.0041810004,0.00036625,-0.0036010002,1741884936.159864
-0.015,-0.2455,-0.016,0.00354,-3.0500001e-05,-0.00355525,1741884936.174695
-0.01525,-0.24625,-0.01625,0.00283825,-0.00070200005,-0.0042115003,1741884936.189454
-0.01525,-0.24675,-0.017,0.00263975,-0.00102225,-0.0048217503,1741884936.204059
-0.01525,-0.2455,-0.017,0.0023497501,-0.00112925,-0.0062407497,1741884936.2189481
-0.0165,-0.247,-0.01825,0.00245675,-0.00108325,-0.0070495,1741884936.23369
-0.018,-0.24875,-0.019,0.00254825,-0.00131225,-0.0079345,1741884936.2487009
-0.02225,-0.249,-0.0195,0.00254825,-0.00154125,-0.00811775,1741884936.2630742
-0.0235,-0.24925,-0.01925,0.002777,-0.0021972498,-0.008545,1741884936.2784991
-0.02275,-0.25075,-0.0155,0.002655,-0.0023497501,-0.00846875,1741884936.292555
-0.02225,-0.25225,-0.01425,0.00228875,-0.00198375,-0.00801075,1741884936.308469
-0.02375,-0.254,-0.015,0.0020752498,-0.001526,-0.0077210004,1741884936.3221052
-0.02775,-0.25475,-0.01875,0.0018005001,-0.000824,-0.0072175004,1741884936.3366468
-0.03575,-0.2495,-0.0255,0.00190725,-0.0010375,-0.0074004997,1741884936.35135
-0.03675,-0.24475,-0.02475,0.00204475,-0.00149525,-0.0079345,1741884936.3660989
-0.0345,-0.2405,-0.01925,0.0022125002,-0.001953,-0.00976575,1741884936.3807528
-0.0365,-0.24125,-0.0205,0.0024414998,-0.00169375,-0.010757499,1741884936.39537
-0.04,-0.24325,-0.02375,0.0031889998,-0.0014495,-0.01206975,1741884936.4100611
-0.0455,-0.24425,-0.0255,0.003296,-0.0017852499,-0.01206975,1741884936.424852
-0.046,-0.2435,-0.02475,0.0029449998,-0.00251775,-0.0114440005,1741884936.439517
-0.0485,-0.24325,-0.0245,0.0026245,-0.0027160002,-0.011031999,1741884936.4542358
-0.0505,-0.24275,-0.02575,0.00193775,-0.002472,-0.0099639995,1741884936.468947
-0.05525,-0.237,-0.03075,0.001831,-0.002411,-0.009903,1741884936.483686
-0.056,-0.232,-0.031,0.00187675,-0.00302125,-0.011749251,1741884936.498359
-0.05775,-0.23325,-0.0295,0.00163275,-0.00325,-0.01278675,1741884936.5130749
-0.0615,-0.23825,-0.0305,0.0009155,-0.00364675,-0.013122501,1741884936.5286982
-0.067,-0.2435,-0.02975,0.00045775,-0.00396725,-0.01245125,1741884936.5426922
-0.0675,-0.24475,-0.02625,-0.00070200005,-0.00369275,-0.010086001,1741884936.558066
-0.068,-0.24525,-0.0205,-0.0012055,-0.002777,-0.00862125,1741884936.572219
-0.06975,-0.24625,-0.02125,-0.00154125,-0.00071725,-0.00614925,1741884936.586913
-0.07475,-0.24575,-0.02625,-0.00143425,-0.0002595,-0.0053709997,1741884936.601753
-0.077,-0.24425,-0.02875,-0.00149525,-0.00016775,-0.0047302498,1741884936.6164842
-0.0775,-0.242,-0.03,-0.00201425,-0.00024425,-0.003662,1741884936.631268
-0.0775,-0.241,-0.029,-0.0021819999,-0.0002595,-0.00343325,1741884936.646077
-0.078,-0.24175,-0.02675,-0.0026245,-0.0002135,-0.0032195,1741884936.660861
-0.07925,-0.24575,-0.02325,-0.00267025,-0.000122000005,-0.00308225,1741884936.67578
-0.08,-0.2445,-0.02375,-0.00225825,0.00016775,-0.00305175,1741884936.690366
-0.07575,-0.2345,-0.02,-0.00225825,0.00039675,-0.00343325,1741884936.7051141
-0.07625,-0.23575,-0.02125,-0.002655,0.0012207499,-0.003952,1741884936.719848
-0.0835,-0.24375,-0.02875,-0.0023345,0.0011445,-0.0039825,1741884936.7345548
-0.08475,-0.24225,-0.0285,-0.001831,0.00024425,-0.00343325,1741884936.749352
-0.08575,-0.24025,-0.0225,-0.0022277501,0.00016775,-0.0025634998,1741884936.7640681
-0.08375,-0.239,-0.01675,-0.0032195,0.00062550005,-0.00054925,1741884936.7787561
-0.08025,-0.23575,-0.01275,-0.00372325,0.00131225,0.00027475,1741884936.793271
-0.08175,-0.23625,-0.0155,-0.003769,0.00254825,0.00071725,1741884936.80851
-0.08475,-0.237,-0.022,-0.0034637498,0.0024872501,0.00024425,1741884936.82243
-0.0845,-0.23675,-0.02125,-0.0033875,0.00225825,-0.0001525,1741884936.837059
-0.08425,-0.23675,-0.02,-0.0035704998,0.0016175,-0.00033575002,1741884936.8517509
-0.0845,-0.23875,-0.01825,-0.0038605002,0.00125125,-0.00019825,1741884936.866345
-0.084,-0.23975,-0.01525,-0.00367725,0.00057975,-0.00010675,1741884936.881077
-0.08375,-0.2405,-0.0135,-0.0033570002,0.0003205,-6.1000002e-05,1741884936.895843
-0.0805,-0.238,-0.01025,-0.00302125,0.0005035,0.00048825,1741884936.910429
-0.07875,-0.23325,-0.00675,-0.00317375,0.00119025,0.00080875,1741884936.925062
-0.083,-0.23525,-0.01,-0.004074,0.00201425,0.00175475,1741884936.9396899
-0.08275,-0.2335,-0.0085,-0.0045625,0.001709,0.0024414998,1741884936.954217
-0.08125,-0.234,-0.0065,-0.0062865,0.00157175,0.00440975,1741884936.968883
-0.07925,-0.241,-0.0065,-0.006775,0.00160225,0.0052185003,1741884936.983577
-0.077,-0.2425,-0.00425,-0.0062255003,0.001419,0.00494375,1741884936.9986858
-0.07325,-0.244,0.0,-0.0058287503,0.00149525,0.0046234997,1741884937.0126898
-0.0735,-0.24475,0.001,-0.0055847503,0.0016175,0.004547,1741884937.028724
-0.07475,-0.245,0.00025,-0.00564575,0.0016175,0.0049742498,1741884937.041773
-0.0735,-0.244,0.0,-0.0058135,0.0016175,0.0051880004,1741884937.0562692
-0.07175,-0.243,0.0025,-0.006012,0.00228875,0.005249,1741884937.070705
-0.0695,-0.24125,0.0055,-0.00590525,0.00270075,0.0050202496,1741884937.0851488
-0.06925,-0.23875,0.007,-0.00546275,0.00317375,0.004013,1741884937.0997472
-0.074,-0.2415,0.00475,-0.0052642496,0.0031585,0.0035704998,1741884937.1142778
-0.074,-0.2405,0.00475,-0.0047607496,0.00228875,0.00292975,1741884937.128974
-0.0675,-0.243,0.014,-0.005066,0.0020905002,0.0031889998,1741884937.14314
-0.0625,-0.245,0.0205,-0.0052642496,0.002411,0.00364675,1741884937.15863
-0.062,-0.24925,0.0205,-0.0047912505,0.0043335,0.0038299998,1741884937.172126
-0.066,-0.25025,0.013,-0.00444025,0.00511175,0.0038299998,1741884937.1866791
-0.06825,-0.2465,0.00925,-0.003769,0.0043639997,0.00372325,1741884937.201143
-0.06775,-0.24075,0.01,-0.00372325,0.00354,0.0036010002,1741884937.215679
-0.0655,-0.23975,0.013,-0.00331125,0.0023039998,0.00289925,1741884937.23013
-0.0565,-0.23575,0.029,-0.00334175,0.0027312501,0.00228875,1741884937.2447019
-0.058,-0.24025,0.02825,-0.00320425,0.00505075,0.00119025,1741884937.259131
-0.0615,-0.24625,0.023,-0.0029907501,0.0058135,0.001068,1741884937.273652
-0.06025,-0.24475,0.02425,-0.002884,0.0063934997,0.00184625,1741884937.2893639
-0.06025,-0.24425,0.02475,-0.003006,0.0067902496,0.0021057501,1741884937.302891
-0.06275,-0.2465,0.02025,-0.0028535,0.0070342496,0.00204475,1741884937.3181021
-0.06275,-0.24575,0.01975,-0.0023345,0.0063477503,0.00131225,1741884937.331861
-0.0635,-0.2425,0.02175,-0.00204475,0.0060882503,0.00074775,1741884937.3463502
-0.064,-0.24125,0.0195,-0.00083925005,0.00494375,-0.00105275,1741884937.360949
-0.057,-0.2375,0.02775,-0.0005645,0.00419625,-0.00175475,1741884937.375565
-0.05525,-0.24075,0.03075,6.1000002e-05,0.00444025,-0.0029755002,1741884937.390134
-0.0575,-0.246,0.028,0.00068675,0.00466925,-0.0037537501,1741884937.404643
-0.05875,-0.24625,0.02675,0.0013275,0.00413525,-0.00428775,1741884937.4192169
-0.059,-0.246,0.024,0.0015105,0.0035704998,-0.0042725,1741884937.433753
-0.0615,-0.248,0.02,0.00163275,0.0027312501,-0.00413525,1741884937.4488451
-0.06075,-0.24275,0.0235,0.0013580001,0.00039675,-0.0031889998,1741884937.462838
-0.05825,-0.2395,0.02925,0.00096125,-3.0500001e-05,-0.00270075,1741884937.478801
-0.0595,-0.24075,0.02975,0.0007935,0.00048825,-0.0024872501,1741884937.4921222
-0.06425,-0.24375,0.0285,0.00083925005,0.00051875,-0.00245675,1741884937.5066712
-0.0635,-0.24625,0.03125,0.00036625,0.000763,-0.00149525,1741884937.5211022
-0.0665,-0.2495,0.029,0.00030525,0.00119025,-0.00077825,1741884937.535745
-0.07125,-0.25,0.02225,1.5250001e-05,0.001175,0.0014037499,1741884937.550153
-0.06675,-0.24325,0.026,-0.000534,0.00068675,0.00263975,1741884937.564636
-0.0635,-0.24325,0.0295,-0.001419,0.00051875,0.00416575,1741884937.579155
-0.06625,-0.248,0.02575,-0.001236,0.00065625,0.0043335,1741884937.593757
-0.0665,-0.24625,0.02525,-0.00090025004,0.00054925,0.00444025,1741884937.608782
-0.064,-0.244,0.027,-0.00109875,0.0002595,0.00538625,1741884937.6226702
-0.0585,-0.2465,0.02975,-0.00149525,0.00048825,0.0061645,1741884937.637134
-0.0565,-0.24725,0.0305,-0.001953,0.00146475,0.00737,1741884937.651645
-0.0555,-0.2495,0.029,-0.0019685,0.00181575,0.00764475,1741884937.666137
-0.05475,-0.25025,0.02825,-0.0016175,0.0018005001,0.0076142503,1741884937.680656
-0.05175,-0.24575,0.0315,-0.0014037499,0.001709,0.00747675,1741884937.6951392
-0.05175,-0.245,0.03075,-0.0012665,0.0017852499,0.0073242504,1741884937.70975
-0.05075,-0.24475,0.02775,-0.0013885,0.0018005001,0.0073395,1741884937.7242298
-0.05,-0.24375,0.0265,-0.001526,0.001648,0.0072785,1741884937.73891
-0.04925,-0.2425,0.02575,-0.0016175,0.00074775,0.00671375,1741884937.753147
-0.043,-0.24,0.03,-0.00177,0.00030525,0.0065002497,1741884937.768061
-0.04,-0.24125,0.0325,-0.0020599999,0.0002595,0.0062407497,1741884937.782155
-0.04025,-0.24625,0.03325,-0.0020752498,0.00039675,0.0062407497,1741884937.7966778
-0.0385,-0.2465,0.03675,-0.0020752498,0.000824,0.00662225,1741884937.811166
-0.036,-0.24625,0.0395,-0.0018005001,0.00115975,0.0064545004,1741884937.8257558
-0.0355,-0.2475,0.038,-0.00149525,0.00125125,0.0061950004,1741884937.8401248
-0.031,-0.253,0.038,-0.0018005001,0.0012970001,0.006775,1741884937.854722
-0.03,-0.255,0.03725,-0.0019989999,0.0015105,0.00741575,1741884937.869165
-0.02875,-0.249,0.03575,-0.0017242499,0.0018615,0.0077972496,1741884937.883639
-0.02725,-0.24475,0.03625,-0.0017242499,0.00190725,0.0077972496,1741884937.898698
-0.02475,-0.24225,0.0375,-0.0022125002,0.00201425,0.0076905,1741884937.912765
-0.02075,-0.245,0.0385,-0.00254825,0.0020752498,0.0076295,1741884937.9287019
-0.02025,-0.24775,0.0385,-0.0029449998,0.00193775,0.0076905,1741884937.9416718
-0.02025,-0.2465,0.0375,-0.0027465,0.00160225,0.0072785,1741884937.95613
-0.02025,-0.2445,0.036,-0.00204475,0.00048825,0.00570675,1741884937.970659
-0.01575,-0.2375,0.039,-0.00187675,-3.0500001e-05,0.0048979996,1741884937.985226
-0.0125,-0.2355,0.0415,-0.0019225,-0.00027475,0.00408925,1741884937.999744
-0.013,-0.244,0.04,-0.002243,7.625e-05,0.0029145,1741884938.014335
-0.01475,-0.2485,0.03925,-0.002472,6.1000002e-05,0.0028229998,1741884938.028838
-0.01475,-0.25025,0.041,-0.00331125,-0.0003205,0.00384525,1741884938.0502772
-0.012,-0.2485,0.04725,-0.00354,-0.0002595,0.0043639997,1741884938.0588741
-0.01175,-0.24725,0.0475,-0.0031585,-7.625e-05,0.00408925,1741884938.072692
-0.012,-0.24675,0.045,-0.0029449998,-0.00019825,0.0038299998,1741884938.0874739
-0.01225,-0.24775,0.044,-0.00292975,-0.00057975,0.0038605002,1741884938.10183
-0.012,-0.2455,0.0445,-0.00289925,-0.0009155,0.003891,1741884938.116457
-0.011,-0.24575,0.046,-0.0030669998,-0.0015565,0.003952,1741884938.131051
-0.0085,-0.249,0.047,-0.0030669998,-0.0018005001,0.0037537501,1741884938.1456032
-0.00775,-0.24975,0.04775,-0.0028229998,-0.002411,0.0033570002,1741884938.160209
-0.00475,-0.251,0.0495,-0.0027465,-0.0027312501,0.0033570002,1741884938.174753
-0.0035,-0.25075,0.05075,-0.00270075,-0.00305175,0.0034637498,1741884938.189228
-0.0035,-0.25125,0.051,-0.0024414998,-0.0034484998,0.00352475,1741884938.203701
-0.00475,-0.2465,0.053,-0.0020599999,-0.0035704998,0.00331125,1741884938.218247
-0.00525,-0.24275,0.054,-0.00125125,-0.0042725,0.00355525,1741884938.232832
-0.00625,-0.248,0.04975,-0.0012207499,-0.0047912505,0.00434875,1741884938.2487261
-0.00575,-0.24825,0.04925,-0.0011445,-0.00596625,0.0054932497,1741884938.262049
-0.001,-0.2455,0.053,-0.0012207499,-0.0062255003,0.005783,1741884938.2783208
0.0,-0.246,0.05275,-0.0014495,-0.0057220003,0.00587475,1741884938.2911181
0.00175,-0.24675,0.05325,-0.001419,-0.0056304997,0.00567625,1741884938.305616
0.00525,-0.2445,0.05825,-0.0014495,-0.0055695,0.0052947504,1741884938.3201358
0.00925,-0.242,0.064,-0.00143425,-0.00402825,0.0037385002,1741884938.334625
0.01075,-0.24625,0.06175,-0.001175,-0.0029145,0.0031127501,1741884938.349119
0.0085,-0.2505,0.05775,-0.0013275,-0.00177,0.0038299998,1741884938.3636749
0.006,-0.2485,0.05675,-0.0014495,-0.00157175,0.0043944996,1741884938.3786821
0.00525,-0.24525,0.056,-0.00119025,-0.00160225,0.0042115003,1741884938.3926342
0.00675,-0.24325,0.055,-0.00112925,-0.00187675,0.0038605002,1741884938.4084852
0.00925,-0.24225,0.05825,-0.00099175,-0.0018615,0.002777,1741884938.421612
0.0115,-0.2425,0.05975,-0.00065625,-0.00146475,0.0019225,1741884938.436088
0.01225,-0.2425,0.0595,-0.0004425,-0.00102225,0.0012665,1741884938.450624
0.01125,-0.2455,0.059,-0.00062550005,-0.00024425,0.0010375,1741884938.4651022
0.01,-0.24675,0.0575,-0.00051875,-6.1000002e-05,0.001114,1741884938.479657
0.009,-0.24625,0.0565,-0.0003815,-0.00010675,0.0013580001,1741884938.494126
0.00875,-0.244,0.05625,-0.00039675,-0.00013725001,0.0013275,1741884938.5086222
0.00875,-0.2425,0.0565,-0.0002135,-0.00019825,0.00064075,1741884938.523144
0.01,-0.24375,0.0585,-0.00019825,-0.0002135,0.00029,1741884938.5388741
0.01075,-0.24475,0.0595,-7.625e-05,-0.0002135,-9.15e-05,1741884938.5522401
0.011,-0.24675,0.05975,-0.00024425,-0.00010675,0.000183,1741884938.5679948
0.0105,-0.247,0.0585,-0.000534,0.0001525,0.00093075,1741884938.581258
0.0105,-0.244,0.05775,-0.00042725,0.00013725001,0.000885,1741884938.5956569
0.01025,-0.244,0.05725,-0.00027475,3.0500001e-05,0.00064075,1741884938.610035
0.01,-0.24425,0.05725,-0.000229,-0.00024425,0.0004425,1741884938.6245608
0.012,-0.245,0.0595,-0.00027475,-0.00027475,0.0005035,1741884938.639261
0.01275,-0.2455,0.05975,-0.00024425,-9.15e-05,0.00064075,1741884938.653653
0.012,-0.24575,0.0585,-0.00027475,1.5250001e-05,0.00077825,1741884938.6680598
0.011,-0.24525,0.05775,-0.00051875,-7.625e-05,0.001068,1741884938.682482
0.01025,-0.2465,0.0565,-0.0007325,-0.00029,0.0013275,1741884938.6969368
0.01125,-0.246,0.05675,-0.0012207499,-0.0009155,0.001892,1741884938.711498
0.01475,-0.24525,0.058,-0.0015565,-0.0012970001,0.00216675,1741884938.726122
0.01425,-0.2445,0.05825,-0.0017395001,-0.00187675,0.00228875,1741884938.740659
0.01375,-0.24175,0.05875,-0.0015105,-0.0025634998,0.00204475,1741884938.755127
0.01525,-0.2395,0.0615,-0.0012970001,-0.002411,0.001587,1741884938.7696562
0.0155,-0.24075,0.061,-0.00080875,-0.001892,0.0004425,1741884938.784128
0.01375,-0.246,0.05925,-0.0008545,-0.00184625,0.000534,1741884938.79869
0.01325,-0.24675,0.06,-0.001419,-0.0023345,0.001648,1741884938.813149
0.01225,-0.246,0.063,-0.00160225,-0.0025025,0.00201425,1741884938.828724
0.012,-0.245,0.06175,-0.00157175,-0.00270075,0.0021057501,1741884938.842161
0.0115,-0.24425,0.05825,-0.0016175,-0.00296025,0.0021972498,1741884938.856621
0.0105,-0.24475,0.05775,-0.00169375,-0.003418,0.0023345,1741884938.8711
0.01025,-0.2445,0.0595,-0.0019225,-0.0045012496,0.00254825,1741884938.885577
0.017,-0.24125,0.0705,-0.0021057501,-0.00453175,0.0025025,1741884938.9001138
0.02075,-0.24275,0.07425,-0.00160225,-0.00292975,0.00154125,1741884938.9145632
0.02,-0.246,0.06925,-0.000946,-0.00213625,0.001007,1741884938.929088
0.01825,-0.2455,0.0665,-0.00051875,-0.001419,0.00119025,1741884938.943628
0.018,-0.2425,0.0665,-0.00051875,-0.0012817499,0.0013580001,1741884938.958601
0.01875,-0.24125,0.06825,-0.00045775,-0.00096125,0.0011445,1741884938.972641
0.01925,-0.23925,0.07,-0.0002135,-0.00070200005,0.00067150005,1741884938.9871318
0.02025,-0.2395,0.0705,0.00013725001,-0.000412,3.0500001e-05,1741884939.0015
0.02,-0.24075,0.06925,0.00074775,0.0002135,-0.00080875,1741884939.015997
0.01975,-0.242,0.0695,0.00070200005,0.000473,-0.00070200005,1741884939.030365
0.02075,-0.2415,0.071,0.000885,0.00119025,-0.0009155,1741884939.0448499
0.0185,-0.24325,0.067,0.0012055,0.00149525,-0.00131225,1741884939.059231
0.01725,-0.24525,0.06425,0.0012817499,0.0017395001,-0.00125125,1741884939.0736508
0.0165,-0.24325,0.0655,0.001587,0.00187675,-0.00137325,1741884939.089588
0.01625,-0.2435,0.06775,0.0028687501,0.00283825,-0.0023039998,1741884939.1024058
0.015,-0.2465,0.06625,0.00367725,0.00364675,-0.0028535,1741884939.118293
0.01425,-0.24675,0.06375,0.004486,0.004303,-0.0032655,1741884939.1312242
0.01425,-0.2465,0.06175,0.00494375,0.005005,-0.0032195,1741884939.14554
0.01325,-0.24625,0.058,0.005005,0.00514225,-0.0030365,1741884939.1601331
0.0115,-0.244,0.05575,0.0052947504,0.0048217503,-0.00292975,1741884939.17443
0.01025,-0.24125,0.0525,0.00488275,0.00437925,-0.00276175,1741884939.189962
0.0105,-0.2435,0.05225,0.00402825,0.0030975002,-0.002533,1741884939.203232
0.013,-0.245,0.05575,0.00399775,0.00254825,-0.0027160002,1741884939.2183979
0.0135,-0.2475,0.05625,0.00396725,0.0022277501,-0.0028687501,1741884939.232042
0.0135,-0.24925,0.056,0.00444025,0.00228875,-0.0032655,1741884939.246411
0.01175,-0.247,0.053,0.0049895,0.0023039998,-0.0036010002,1741884939.26087
0.0105,-0.2455,0.05075,0.0052642496,0.0019225,-0.00355525,1741884939.275247
0.007,-0.24525,0.04525,0.005066,0.001526,-0.0032347501,1741884939.289732
0.0065,-0.24475,0.045,0.00437925,0.001114,-0.0028074998,1741884939.304188
0.00625,-0.24675,0.044,0.00402825,0.001236,-0.0027312501,1741884939.318753
0.005,-0.24875,0.043,0.0034942501,0.00099175,-0.00242625,1741884939.333183
0.00675,-0.24675,0.047,0.0032195,0.00077825,-0.00225825,1741884939.3478389
0.007,-0.247,0.04675,0.0030669998,0.000763,-0.0021515,1741884939.362029
0.0065,-0.24775,0.04425,0.00328075,0.000824,-0.002243,1741884939.376555
0.0055,-0.2465,0.04225,0.0032655,0.000824,-0.0023497501,1741884939.3910348
0.00575,-0.247,0.04225,0.0028074998,0.001175,-0.0023345,1741884939.405559
0.003,-0.2515,0.0405,0.0025787498,0.00148,-0.002121,1741884939.4200141
0.002,-0.25425,0.03825,0.002365,0.00242625,-0.0015565,1741884939.4344
0.002,-0.251,0.04025,0.002533,0.0025940002,-0.00154125,1741884939.44876
0.00275,-0.25,0.04025,0.0030365,0.0026092501,-0.00201425,1741884939.463179
0.0015,-0.2485,0.037,0.0036010002,0.00225825,-0.00270075,1741884939.478695
0.002,-0.24525,0.038,0.00416575,0.00163275,-0.003296,1741884939.492011
0.0045,-0.24375,0.0415,0.004837,0.0010375,-0.00399775,1741884939.508419
0.0085,-0.24475,0.04475,0.0055237496,0.0016175,-0.0048065,1741884939.520998
0.0055,-0.2465,0.03725,0.0067902496,0.00279225,-0.006546,1741884939.535653
-0.004,-0.25025,0.0235,0.0060577504,0.0026854998,-0.0061339997,1741884939.550136
-0.00525,-0.2515,0.0245,0.0038757501,0.00177,-0.0043944996,1741884939.564645
-0.00425,-0.24775,0.03125,0.0034637498,0.00160225,-0.00440975,1741884939.579097
-0.005,-0.24725,0.031,0.0041044997,0.00177,-0.00668325,1741884939.593726
-0.01075,-0.24475,0.0235,0.0042725,0.0018005001,-0.008361749,1741884939.608696
-0.01225,-0.24625,0.0215,0.0038757501,0.00169375,-0.009201,1741884939.622806
-0.01125,-0.249,0.024,0.002533,0.000885,-0.0074920002,1741884939.639331
-0.01,-0.2555,0.03,0.00181575,0.00105275,-0.0058287503,1741884939.651816
-0.01175,-0.25775,0.0295,0.000824,0.00216675,-0.002884,1741884939.666314
-0.01425,-0.25075,0.02875,0.00061025,0.00239575,-0.0020752498,1741884939.6808262
-0.013,-0.24725,0.0305,0.00068675,0.00289925,-0.00245675,1741884939.6953118
-0.01575,-0.24925,0.025,0.00105275,0.00328075,-0.0032655,1741884939.7098272
-0.01875,-0.25175,0.02025,0.001175,0.00305175,-0.00320425,1741884939.7243211
-0.02025,-0.25125,0.0205,0.0009155,0.00270075,-0.0025940002,1741884939.739011
-0.021,-0.25075,0.01975,0.00062550005,0.00231925,-0.0020295,1741884939.753391
-0.019,-0.2515,0.0235,-0.00019825,0.0012665,-0.0005035,1741884939.76823
-0.01575,-0.2485,0.02925,-0.0004425,0.00105275,-6.1000002e-05,1741884939.782808
-0.01575,-0.24725,0.0295,0.00016775,0.0019225,-0.0007935,1741884939.7981849
-0.021,-0.2505,0.0185,0.00057975,0.001953,-0.00119025,1741884939.811757
-0.021,-0.2495,0.019,9.15e-05,0.00074775,-0.00093075,1741884939.8263092
-0.01825,-0.24925,0.028,-0.00035100002,0.0005035,-0.00064075,1741884939.840868
-0.01825,-0.25225,0.02775,-0.00033575002,0.00108325,-0.00035100002,1741884939.855411
-0.0225,-0.25475,0.02,7.625e-05,0.00090025004,-0.00036625,1741884939.869847
-0.0215,-0.252,0.02175,0.00070200005,-0.00042725,-0.00054925,1741884939.884418
-0.018,-0.2505,0.0265,0.00099175,-0.00064075,-0.00086975005,1741884939.899025
-0.0175,-0.25125,0.02575,0.0014495,-0.00057975,-0.0012817499,1741884939.913723
-0.01475,-0.24775,0.02825,0.0020905002,-0.00016775,-0.0015105,1741884939.9288
-0.01525,-0.2495,0.028,0.0019685,0.00029,-0.0012207499,1741884939.942817
-0.018,-0.25175,0.02525,0.0023345,0.0008545,-0.0013885,1741884939.958501
-0.01975,-0.24775,0.0235,0.0026092501,0.0007935,-0.0017852499,1741884939.9717839
-0.02,-0.24675,0.0235,0.0022125002,0.00096125,-0.0018005001,1741884939.986318
-0.02,-0.24875,0.02275,0.00187675,0.001236,-0.00163275,1741884940.000854
-0.022,-0.2515,0.0195,0.0018615,0.00149525,-0.0017242499,1741884940.015303
-0.02325,-0.24925,0.01575,0.0019225,0.00108325,-0.0017852499,1741884940.0299442
-0.02125,-0.24775,0.01775,0.0014495,0.00067150005,-0.0017852499,1741884940.0443919
-0.023,-0.25,0.018,0.0014495,0.00074775,-0.00213625,1741884940.058933
-0.02525,-0.25225,0.01625,0.00149525,0.00080875,-0.00242625,1741884940.073536
-0.02725,-0.254,0.01425,0.00149525,0.00033575002,-0.0021972498,1741884940.089241
-0.0275,-0.2525,0.01525,0.00146475,-0.00010675,-0.001953,1741884940.102682
-0.02575,-0.2495,0.01825,0.0013275,-0.00059500005,-0.00231925,1741884940.118041
-0.0245,-0.2465,0.0195,0.0012970001,-0.0005645,-0.0028074998,1741884940.131915
-0.02575,-0.2475,0.0175,0.00099175,-0.000473,-0.0031585,1741884940.146511
-0.02875,-0.24975,0.014,0.00071725,-0.00064075,-0.0029755002,1741884940.161201
-0.028,-0.24825,0.01525,0.0002595,-0.001175,-0.002533,1741884940.175644
-0.024,-0.24775,0.02,-7.625e-05,-0.0011445,-0.0022735,1741884940.190287
-0.02425,-0.249,0.0205,-0.000122000005,-0.00051875,-0.00231925,1741884940.204907
-0.03025,-0.25025,0.01575,-1.5250001e-05,-0.00039675,-0.0025787498,1741884940.219506
-0.0335,-0.251,0.014,-0.00013725001,-0.0005035,-0.0026092501,1741884940.234229
-0.03425,-0.2495,0.0155,-0.00033575002,-0.00109875,-0.0026092501,1741884940.248906
-0.03225,-0.24775,0.0195,-0.00036625,-0.0011445,-0.002533,1741884940.263628
-0.0335,-0.25,0.01725,-0.00057975,-0.001114,-0.0020295,1741884940.2784488
-0.03225,-0.24925,0.019,-0.00067150005,-0.00119025,-0.00184625,1741884940.2929091
-0.03175,-0.24925,0.01975,-0.00077825,-0.00102225,-0.00143425,1741884940.308558
-0.033,-0.25025,0.01875,-0.0008545,-0.00099175,-0.001114,1741884940.322293
-0.0325,-0.24925,0.0185,-0.0014495,-0.0010375,-0.00027475,1741884940.336898
-0.03175,-0.2505,0.01975,-0.00169375,-0.0009155,0.0001525,1741884940.351369
-0.032,-0.25025,0.02,-0.0012817499,-0.000534,0.00033575002,1741884940.3659189
-0.03575,-0.25075,0.015,-0.001175,-0.00064075,0.0004425,1741884940.380536
-0.0365,-0.25,0.01425,-0.0013580001,-0.001007,0.00068675,1741884940.395107
-0.03375,-0.24725,0.017,-0.00184625,-0.0020905002,0.00083925005,1741884940.4098198
-0.03325,-0.24775,0.018,-0.00216675,-0.0024872501,0.000946,1741884940.424371
-0.03275,-0.24825,0.0185,-0.00267025,-0.0032347501,0.001419,1741884940.4393559
-0.033,-0.248,0.0185,-0.0026854998,-0.00378425,0.0017242499,1741884940.453494
-0.034,-0.248,0.0195,-0.0025787498,-0.00469975,0.0023345,1741884940.468148
-0.03225,-0.2465,0.0225,-0.0026854998,-0.0046845004,0.002365,1741884940.482816
-0.0315,-0.2465,0.024,-0.0025634998,-0.00440975,0.00190725,1741884940.4978209
-0.0325,-0.24975,0.022,-0.002365,-0.00434875,0.001831,1741884940.511892
-0.03275,-0.25,0.0205,-0.00231925,-0.00437925,0.00231925,1741884940.5263739
-0.03525,-0.249,0.01475,-0.00245675,-0.00488275,0.00270075,1741884940.5408902
-0.03775,-0.24825,0.011,-0.002655,-0.0060425,0.0030975002,1741884940.55548
-0.03775,-0.245,0.01575,-0.00358575,-0.00953675,0.003952,1741884940.570094
-0.0335,-0.24475,0.02525,-0.00408925,-0.010803251,0.0042572496,1741884940.584717
-0.0255,-0.24525,0.03775,-0.0042267498,-0.01004025,0.0041504996,1741884940.599509
-0.016,-0.25,0.04825,-0.00372325,-0.00791925,0.003769,1741884940.614122
-0.01775,-0.254,0.04175,-0.00263975,-0.00369275,0.00364675,1741884940.628897
-0.0175,-0.25075,0.03625,-0.002411,-0.0024872501,0.003891,1741884940.643368
-0.016,-0.25025,0.036,-0.0020599999,-0.000473,0.0037995,1741884940.658358
-0.01875,-0.251,0.02825,-0.0017242499,6.1000002e-05,0.0034790002,1741884940.672291
-0.0185,-0.2485,0.0285,-0.001709,-0.0002595,0.003128,1741884940.686903
-0.0145,-0.248,0.03625,-0.00181575,-0.00027475,0.002884,1741884940.701542
-0.01475,-0.2495,0.0375,-0.0013885,0.000412,0.00204475,1741884940.715997
-0.01775,-0.25175,0.035,-0.0012970001,0.0007935,0.0021057501,1741884940.73055
-0.01775,-0.25225,0.03475,-0.0013427499,0.001114,0.002472,1741884940.7450151
-0.01775,-0.25225,0.03475,-0.00143425,0.001419,0.00325,1741884940.759713
-0.0185,-0.25,0.03325,-0.0015105,0.0014495,0.00364675,1741884940.774535
-0.018,-0.2495,0.03225,-0.002121,0.0012665,0.00466925,1741884940.789452
-0.0145,-0.24575,0.0345,-0.0025025,0.001236,0.0049742498,1741884940.803516
-0.01325,-0.2445,0.03525,-0.002472,0.00137325,0.0043335,1741884940.818121
-0.015,-0.247,0.0315,-0.00228875,0.00125125,0.00381475,1741884940.8325398
-0.0155,-0.24925,0.03075,-0.0025634998,0.00042725,0.0035095,1741884940.848174
-0.01225,-0.25225,0.034,-0.0025634998,-3.0500001e-05,0.0034637498,1741884940.861606
-0.01025,-0.25225,0.0365,-0.0023039998,-0.000229,0.003296,1741884940.876218
-0.008,-0.2495,0.0395,-0.001709,7.625e-05,0.00276175,1741884940.8907049
-0.00725,-0.24975,0.0405,-0.0016632499,0.0003815,0.0026854998,1741884940.905299
-0.0075,-0.25025,0.0405,-0.0016175,0.00099175,0.0025634998,1741884940.919829
-0.007,-0.249,0.04125,-0.0013275,0.0012055,0.0022125002,1741884940.934241
-0.0075,-0.2495,0.0405,-0.00039675,0.00131225,0.0012055,1741884940.94879
-0.009,-0.24875,0.0365,-0.00013725001,0.001068,0.00096125,1741884940.963524
-0.0065,-0.246,0.039,-0.00059500005,0.00070200005,0.00119025,1741884940.978251
-0.00425,-0.24875,0.0405,-0.00068675,0.000885,0.0010375,1741884940.9925299
-0.007,-0.25125,0.037,-0.00029,0.000824,0.00051875,1741884941.008508
-0.00625,-0.24975,0.0385,-0.00027475,0.0005035,0.000534,1741884941.021471
-0.003,-0.24875,0.04175,-0.0003205,0.00035100002,0.0005645,1741884941.035879
-0.00125,-0.24875,0.04375,-0.000122000005,0.00096125,0.00016775,1741884941.050396
0.00075,-0.24775,0.04775,9.15e-05,0.0015565,-7.625e-05,1741884941.064814
0.0005,-0.24825,0.04775,0.00102225,0.0029449998,-0.0005035,1741884941.079194
-0.00425,-0.2495,0.04175,0.00149525,0.003418,-0.00070200005,1741884941.0936909
-0.00825,-0.24825,0.03525,0.0016785001,0.0033264998,-0.000473,1741884941.10879
-0.00825,-0.245,0.0345,0.00148,0.0033264998,-0.00051875,1741884941.122792
-0.00725,-0.2445,0.0375,0.001892,0.002884,-0.001892,1741884941.13923
-0.007,-0.249,0.04025,0.0021515,0.00267025,-0.00242625,1741884941.151794
-0.0075,-0.2525,0.03925,0.00239575,0.0028074998,-0.0026092501,1741884941.166275
-0.00825,-0.2535,0.038,0.002884,0.00355525,-0.0026092501,1741884941.180796
-0.0075,-0.24925,0.0355,0.00292975,0.0034484998,-0.00251775,1741884941.1952739
-0.00675,-0.24775,0.0355,0.002655,0.0031127501,-0.00213625,1741884941.2097979
-0.009,-0.24725,0.0325,0.0025787498,0.0031585,-0.0021819999,1741884941.2244291
-0.00975,-0.2475,0.032,0.00245675,0.0027312501,-0.002533,1741884941.239352
-0.012,-0.24875,0.03,0.002411,0.002472,-0.0025634998,1741884941.2534132
-0.013,-0.2505,0.03025,0.0021819999,0.0021972498,-0.00263975,1741884941.26805
-0.01275,-0.25,0.0335,0.0022125002,0.00198375,-0.0027312501,1741884941.2824059
-0.01325,-0.252,0.03175,0.0022125002,0.0018615,-0.0027160002,1741884941.2977521
-0.01325,-0.2515,0.03,0.00216675,0.0016175,-0.0023039998,1741884941.3113952
-0.01325,-0.251,0.02975,0.0020752498,0.0016632499,-0.0019685,1741884941.3259048
-0.01275,-0.25075,0.029,0.0019225,0.00184625,-0.001648,1741884941.340405
-0.01475,-0.24925,0.0265,0.001892,0.00163275,-0.00163275,1741884941.354861
-0.017,-0.24975,0.024,0.0018615,0.00090025004,-0.00184625,1741884941.369269
-0.01675,-0.24925,0.02575,0.0017242499,0.0005035,-0.00181575,1741884941.3838131
-0.01425,-0.2485,0.02925,0.00149525,0.00039675,-0.00163275,1741884941.398669
-0.015,-0.25075,0.02775,0.001587,0.0004425,-0.00177,1741884941.412904
-0.0155,-0.2505,0.02675,0.00160225,0.00033575002,-0.00177,1741884941.428656
-0.0165,-0.25075,0.025,0.0012055,-3.0500001e-05,-0.0012817499,1741884941.441847
-0.0165,-0.2505,0.0255,0.00096125,-0.00024425,-0.00096125,1741884941.458265
-0.016,-0.25025,0.02625,0.000412,-0.0004425,-0.00027475,1741884941.470977
-0.015,-0.2485,0.02775,0.0002135,-0.00048825,-4.575e-05,1741884941.485574
-0.0135,-0.24775,0.02975,-0.000122000005,-0.00039675,0.000122000005,1741884941.5001512
-0.014,-0.25,0.02925,-0.0001525,-0.00019825,7.625e-05,1741884941.514673
-0.01475,-0.2505,0.02775,-0.00016775,-0.00013725001,0.0002135,1741884941.529244
-0.014,-0.24975,0.029,-0.000183,-0.00010675,0.0002595,1741884941.543804
-0.01525,-0.25025,0.02725,3.0500001e-05,-0.00013725001,0.0,1741884941.55876
-0.01475,-0.249,0.02775,-3.0500001e-05,-0.0002595,7.625e-05,1741884941.572893
-0.01375,-0.249,0.02975,-0.00013725001,-0.000229,0.00016775,1741884941.589356
-0.01575,-0.25025,0.02775,-0.00019825,4.575e-05,0.000229,1741884941.601992
-0.01475,-0.249,0.02925,-0.00035100002,9.15e-05,0.0004425,1741884941.616492
-0.014,-0.249,0.03,-0.00030525,0.00027475,0.0003815,1741884941.630992
-0.01825,-0.251,0.02475,-0.0001525,0.00024425,0.00019825,1741884941.645508
-0.018,-0.2505,0.025,-0.0002595,-0.0002135,0.00036625,1741884941.6600919
-0.014,-0.24975,0.029,-0.000229,-0.0002135,0.00029,1741884941.6746821
-0.01375,-0.25075,0.0285,-6.1000002e-05,0.00010675,0.0001525,1741884941.6893172
-0.01425,-0.251,0.02625,-9.15e-05,0.0001525,0.0003205,1741884941.703653
-0.01425,-0.2495,0.0255,-0.000183,4.575e-05,0.000534,1741884941.7181928
-0.016,-0.24875,0.02475,-0.00030525,-0.00010675,0.0007325,1741884941.7327979
-0.01575,-0.24925,0.02625,-0.00045775,-0.00035100002,0.0009155,1741884941.748218
-0.014,-0.2485,0.029,-0.00059500005,-0.00057975,0.0007935,1741884941.762197
-0.0115,-0.2485,0.03175,-0.00061025,-0.00042725,0.000763,1741884941.7780259
-0.0115,-0.24875,0.0315,-0.0005645,0.0001525,0.0008545,1741884941.7912939
-0.01325,-0.248,0.02875,-0.000534,0.00036625,0.00074775,1741884941.805681
-0.01475,-0.24875,0.0265,-0.000534,0.00029,0.000534,1741884941.820174
-0.01775,-0.25075,0.025,-0.00062550005,-4.575e-05,0.0005035,1741884941.83476
-0.01775,-0.25225,0.02575,-0.00099175,-0.0007935,0.0008545,1741884941.849499
-0.01425,-0.254,0.0305,-0.0011445,-0.0010375,0.0011445,1741884941.8640552
-0.01075,-0.253,0.034,-0.00115975,-0.00074775,0.00160225,1741884941.8789172
-0.0085,-0.2505,0.0335,-0.00096125,-0.00039675,0.00160225,1741884941.893291
-0.00975,-0.2495,0.03025,-0.00067150005,-0.0001525,0.001419,1741884941.908245
-0.01125,-0.248,0.02825,-0.00035100002,-0.00016775,0.000946,1741884941.9223812
-0.012,-0.247,0.02825,-0.00035100002,-0.00033575002,0.00077825,1741884941.936888
-0.0125,-0.24775,0.02875,-0.0007935,-0.00070200005,0.001007,1741884941.95157
-0.0105,-0.2485,0.03275,-0.00109875,-0.000824,0.0013275,1741884941.966131
-0.009,-0.249,0.03525,-0.0012970001,-0.00059500005,0.001526,1741884941.980663
-0.0085,-0.2505,0.03425,-0.0012055,-0.00039675,0.0013580001,1741884941.995248
-0.0095,-0.25075,0.03225,-0.00109875,-0.00027475,0.001236,1741884942.009835
-0.0105,-0.25025,0.02925,-0.00112925,-0.00045775,0.0013427499,1741884942.024352
-0.01,-0.25,0.02925,-0.001236,-0.000946,0.0016175,1741884942.039099
-0.0085,-0.2505,0.03075,-0.0012207499,-0.00105275,0.00154125,1741884942.053558
-0.00825,-0.25075,0.03225,-0.00112925,-0.001068,0.0012665,1741884942.068182
-0.008,-0.251,0.0345,-0.00090025004,-0.00090025004,0.000824,1741884942.082746
-0.00825,-0.2525,0.035,-0.000824,-0.0007325,0.00086975005,1741884942.098003
-0.0085,-0.25175,0.034,-0.000763,-0.00059500005,0.00119025,1741884942.111874
-0.00925,-0.248,0.0325,-0.00071725,-0.00065625,0.00119025,1741884942.128198
-0.009,-0.24725,0.032,-0.00054925,-0.001007,0.000824,1741884942.141081
-0.0075,-0.249,0.03375,-0.0005035,-0.00119025,0.00067150005,1741884942.155752
-0.007,-0.25025,0.03525,-0.00051875,-0.00105275,0.000534,1741884942.170479
-0.0065,-0.25075,0.0355,-0.000473,-0.000824,0.00054925,1741884942.185036
-0.007,-0.25,0.03475,-0.00035100002,-0.00057975,0.00064075,1741884942.199764
-0.006,-0.2475,0.0355,-0.00035100002,-0.000534,0.00068675,1741884942.214624
-0.00625,-0.24725,0.03525,-0.00033575002,-0.00042725,0.00061025,1741884942.2290611
-0.007,-0.2475,0.03425,-0.00027475,-0.0003205,0.0003205,1741884942.2438788
-0.00625,-0.24875,0.03525,-0.00039675,-0.00033575002,0.00036625,1741884942.258364
-0.00625,-0.25,0.03575,-0.00045775,-0.00019825,0.00036625,1741884942.272869
-0.00575,-0.25075,0.036,-0.0003815,-0.000122000005,0.00030525,1741884942.287446
-0.0045,-0.25075,0.03675,-0.0002135,3.0500001e-05,0.000183,1741884942.301789
-0.00475,-0.25075,0.03575,-0.00010675,9.15e-05,6.1000002e-05,1741884942.316756
-0.00475,-0.24925,0.03625,-1.5250001e-05,0.00016775,3.0500001e-05,1741884942.330998
-0.00625,-0.2505,0.03475,0.0,0.00027475,-4.575e-05,1741884942.3454661
-0.00825,-0.25125,0.03275,6.1000002e-05,0.00016775,-6.1000002e-05,1741884942.3599958
-0.0075,-0.251,0.03425,-1.5250001e-05,4.575e-05,0.000122000005,1741884942.374478
-0.007,-0.25075,0.035,-3.0500001e-05,1.5250001e-05,0.000183,1741884942.389326
-0.0075,-0.2505,0.0345,0.00010675,0.0,0.00013725001,1741884942.403344
-0.0055,-0.24775,0.03625,9.15e-05,-4.575e-05,0.000183,1741884942.418271
-0.0045,-0.24725,0.0365,7.625e-05,0.00010675,0.00010675,1741884942.432214
-0.006,-0.248,0.034,4.575e-05,0.0001525,0.00010675,1741884942.446625
-0.0055,-0.247,0.0345,0.0,6.1000002e-05,4.575e-05,1741884942.460995
-0.00475,-0.24675,0.03475,3.0500001e-05,4.575e-05,-9.15e-05,1741884942.475511
-0.0055,-0.2475,0.03425,-4.575e-05,-4.575e-05,-0.0001525,1741884942.490178
-0.0065,-0.2495,0.03525,-9.15e-05,-0.00010675,-0.0001525,1741884942.5048902
-0.007,-0.2505,0.036,-3.0500001e-05,-0.0001525,-0.000229,1741884942.519564
-0.0055,-0.25125,0.03825,3.0500001e-05,-0.00013725001,-7.625e-05,1741884942.534025
-0.00525,-0.2515,0.038,6.1000002e-05,1.5250001e-05,3.0500001e-05,1741884942.548853
-0.00625,-0.2515,0.0355,0.00030525,0.00029,-1.5250001e-05,1741884942.5629911
-0.00725,-0.249,0.033,0.00035100002,0.00019825,1.5250001e-05,1741884942.578062
-0.00625,-0.24775,0.03375,0.00033575002,-6.1000002e-05,-4.575e-05,1741884942.591994
-0.00575,-0.2475,0.034,0.00030525,-0.00010675,-0.000122000005,1741884942.606554
-0.006,-0.248,0.0345,0.0002595,-0.0001525,-0.00019825,1741884942.621095
-0.00575,-0.24975,0.03675,0.00027475,-9.15e-05,-0.000183,1741884942.6357398
-0.0065,-0.25125,0.03625,0.00035100002,4.575e-05,-0.00013725001,1741884942.6502411
-0.007,-0.25175,0.03425,0.000412,1.5250001e-05,-7.625e-05,1741884942.664757
-0.0055,-0.2505,0.03525,0.000473,-4.575e-05,-3.0500001e-05,1741884942.679352
-0.0045,-0.24975,0.03575,0.00062550005,-1.5250001e-05,-0.00019825,1741884942.693824
-0.00525,-0.2495,0.03375,0.00068675,3.0500001e-05,-0.0003205,1741884942.708807
-0.00525,-0.24925,0.03325,0.00061025,6.1000002e-05,-0.00035100002,1741884942.7227688
-0.0065,-0.24925,0.03375,0.000534,9.15e-05,-0.00029,1741884942.737259
-0.00775,-0.2495,0.033,0.0003815,0.00013725001,-0.000229,1741884942.75175
-0.0085,-0.24775,0.03175,0.00035100002,6.1000002e-05,-0.00030525,1741884942.7663648
-0.00725,-0.24875,0.03325,0.0003815,-0.00019825,-0.00061025,1741884942.781087
-0.0055,-0.2505,0.03525,0.000412,-0.0001525,-0.00059500005,1741884942.7956622
-0.0055,-0.24975,0.03575,0.000412,3.0500001e-05,-0.000473,1741884942.8101592
-0.008,-0.24775,0.033,0.00048825,0.00042725,-0.0003205,1741884942.8246772
-0.01,-0.24725,0.03075,0.000534,0.00042725,-0.00030525,1741884942.839308
-0.01075,-0.24725,0.03,0.00030525,-1.5250001e-05,-0.00019825,1741884942.853857
-0.01025,-0.25025,0.03225,0.00019825,-0.000183,-0.0002595,1741884942.8684201
-0.00925,-0.252,0.03325,0.00027475,-0.000412,-0.00035100002,1741884942.8830569
-0.005,-0.2525,0.0365,0.0003815,-0.000412,-0.00027475,1741884942.8978019
-0.0045,-0.252,0.036,0.0009155,-0.000183,-0.00035100002,1741884942.912362
-0.0065,-0.25025,0.03175,0.0010375,-0.00010675,-0.00030525,1741884942.926901
-0.0075,-0.24925,0.0305,0.000885,-0.00013725001,-7.625e-05,1741884942.9414709
-0.00875,-0.24775,0.03075,0.000824,-0.000229,-0.00010675,1741884942.956165
-0.00875,-0.24825,0.0315,0.00077825,-0.00033575002,-0.000183,1741884942.970811
-0.007,-0.25025,0.0335,0.00064075,-0.00036625,-0.0002135,1741884942.985295
-0.0065,-0.25075,0.0335,0.00062550005,-0.0002595,-0.0002135,1741884942.999855
-0.00625,-0.2505,0.03275,0.00051875,7.625e-05,-0.00010675,1741884943.014482
-0.006,-0.24875,0.032,0.0004425,0.00016775,-7.625e-05,1741884943.029066
-0.0065,-0.249,0.031,0.00030525,0.0002135,-1.5250001e-05,1741884943.043582
-0.008,-0.251,0.02925,0.00029,0.00013725001,3.0500001e-05,1741884943.058453
-0.00825,-0.251,0.03,0.00036625,-1.5250001e-05,0.0,1741884943.072449
-0.00925,-0.25175,0.03025,0.00035100002,-1.5250001e-05,6.1000002e-05,1741884943.087075
-0.01075,-0.25225,0.02925,0.00036625,-0.00016775,0.00035100002,1741884943.101577
-0.0105,-0.25025,0.0295,0.000412,-0.00036625,0.0004425,1741884943.1160479
-0.0085,-0.24875,0.0305,0.00033575002,-0.00045775,0.00054925,1741884943.130581
-0.00775,-0.248,0.03025,6.1000002e-05,-0.00029,0.0007935,1741884943.145087
-0.0095,-0.24675,0.0285,-3.0500001e-05,-0.00024425,0.000824,1741884943.159713
-0.00975,-0.24775,0.0285,-0.00019825,-0.0005645,0.00080875,1741884943.174419
-0.0075,-0.24975,0.03075,-0.0002135,-0.00086975005,0.00083925005,1741884943.189055
-0.00625,-0.25,0.03125,-0.00019825,-0.00125125,0.00112925,1741884943.203459
-0.00375,-0.24925,0.032,-0.00019825,-0.0013275,0.00131225,1741884943.2180312
-0.0035,-0.24925,0.03225,-0.0002595,-0.001236,0.001419,1741884943.232683
-0.00325,-0.24925,0.03125,-0.00030525,-0.001175,0.0013580001,1741884943.248451
-0.00375,-0.249,0.03125,-0.00033575002,-0.001419,0.0013580001,1741884943.261906
-0.00725,-0.24875,0.032,-0.0003205,-0.001419,0.00137325,1741884943.276475
-0.00725,-0.249,0.0315,-0.00036625,-0.00119025,0.0012970001,1741884943.291071
-0.007,-0.25025,0.0305,-0.0004425,-0.001236,0.0012207499,1741884943.305643
-0.005,-0.25275,0.03175,-0.00045775,-0.00146475,0.0013580001,1741884943.32023
-0.002,-0.2525,0.0335,-0.00035100002,-0.0013885,0.001419,1741884943.334794
-0.00025,-0.25075,0.033,-0.00024425,-0.0012207499,0.00119025,1741884943.349471
-0.00025,-0.25,0.03175,-0.000412,-0.0010375,0.00093075,1741884943.3640819
-0.001,-0.2495,0.0315,-0.00045775,-0.00109875,0.00086975005,1741884943.378657
-0.0005,-0.24975,0.0325,-0.0002135,-0.0012665,0.00059500005,1741884943.393255
-0.0015,-0.25175,0.03325,0.0,-0.0012207499,0.00035100002,1741884943.4084868
-0.00275,-0.25175,0.0315,4.575e-05,-0.00119025,0.000183,1741884943.422326
-0.0035,-0.25025,0.03025,-0.00024425,-0.0014037499,0.00042725,1741884943.436942
-0.004,-0.24925,0.03125,-0.0004425,-0.00160225,0.00065625,1741884943.45154
-0.00375,-0.2485,0.032,-0.00024425,-0.0017395001,0.00051875,1741884943.46616
-0.0025,-0.24925,0.03425,-0.00010675,-0.001709,0.00033575002,1741884943.480781
-0.003,-0.25025,0.03425,0.00024425,-0.0012207499,6.1000002e-05,1741884943.495347
-0.00575,-0.25225,0.03125,0.00036625,-0.0010375,9.15e-05,1741884943.5098062
-0.00525,-0.25125,0.0315,0.00029,-0.000824,0.00027475,1741884943.524369
-0.0035,-0.24975,0.03325,0.0002595,-0.000534,0.0002135,1741884943.5390139
-0.00375,-0.25,0.03375,0.00057975,0.0,-0.000183,1741884943.55346
-0.0035,-0.25175,0.03275,0.00062550005,0.000122000005,-0.0001525,1741884943.568139
-0.0025,-0.252,0.033,0.00019825,0.00030525,0.00062550005,1741884943.582459
0.00225,-0.24925,0.03775,-3.0500001e-05,0.00070200005,0.001007,1741884943.5968142
0.0025,-0.24875,0.038,-4.575e-05,0.00143425,0.001175,1741884943.6113348
0.00075,-0.24875,0.0355,0.00061025,0.00296025,0.00090025004,1741884943.62567
-0.00175,-0.248,0.0305,0.0003815,0.003296,0.00109875,1741884943.640126
-0.00175,-0.249,0.031,-0.000824,0.0031889998,0.002411,1741884943.6545322
-0.0005,-0.25375,0.031,-0.0012817499,0.00296025,0.0031127501,1741884943.66906
-0.0005,-0.2545,0.03125,-0.001526,0.0025634998,0.0038757501,1741884943.683553
0.00125,-0.25125,0.03225,-0.0013885,0.0025025,0.00367725,1741884943.698144
0.002,-0.25025,0.031,-0.0010375,0.0019685,0.00308225,1741884943.7123652
0.0025,-0.2495,0.03125,-0.000946,0.00160225,0.0029449998,1741884943.7267
0.004,-0.24925,0.03175,-0.000946,0.00131225,0.0028535,1741884943.7412632
0.00575,-0.249,0.033,-0.0012665,0.00102225,0.003006,1741884943.755706
0.00875,-0.2505,0.0365,-0.00154125,0.0009765,0.0032347501,1741884943.7700741
0.009,-0.25,0.0365,-0.0017395001,0.000946,0.0036315,1741884943.7845519
0.007,-0.25,0.0335,-0.0017242499,0.00080875,0.0037079998,1741884943.798869
0.00725,-0.249,0.03425,-0.0013427499,0.00051875,0.003128,1741884943.8132749
0.00975,-0.24925,0.03675,-0.00115975,0.000534,0.0028687501,1741884943.828676
0.0105,-0.2495,0.03725,-0.001175,0.00070200005,0.00292975,1741884943.8421052
0.011,-0.2495,0.038,-0.0013580001,0.00115975,0.00354,1741884943.858117
0.01225,-0.2505,0.03775,-0.0014495,0.00125125,0.00381475,1741884943.870955
0.01275,-0.25075,0.03625,-0.0012970001,0.00090025004,0.0039825,1741884943.885355
0.016,-0.248,0.03875,-0.0012055,0.00067150005,0.00402825,1741884943.899712
0.016,-0.24925,0.0395,-0.00187675,0.0003815,0.0052337497,1741884943.9141572
0.01575,-0.2495,0.039,-0.002243,0.0005035,0.0059510004,1741884943.928711
0.017,-0.2385,0.037,-0.00131225,1.5250001e-05,0.004242,1741884943.943021
0.017,-0.25725,0.03975,-0.00030525,-0.000946,0.0022735,1741884943.958739
0.0185,-0.25525,0.03975,-0.0002595,-0.00115975,0.00213625,1741884943.972041
0.022,-0.24725,0.04,-0.00070200005,-0.0002595,0.0026092501,1741884943.986589
0.02475,-0.2465,0.04025,-0.00042725,3.0500001e-05,0.002121,1741884944.0009549
0.024,-0.2485,0.03975,-0.00068675,0.00048825,0.002411,1741884944.0153348
0.0205,-0.247,0.03875,-0.00070200005,0.000534,0.0024872501,1741884944.029703
0.02,-0.243,0.03925,-0.00035100002,0.0005035,0.0018615,1741884944.0440881
0.02,-0.2405,0.03925,-0.000122000005,0.000534,0.0012207499,1741884944.058759
0.021,-0.242,0.039,7.625e-05,0.000534,0.00042725,1741884944.0728168
0.02225,-0.24375,0.03875,0.0005645,0.0003815,-0.0012207499,1741884944.087175
0.02275,-0.24525,0.03725,0.00077825,0.00033575002,-0.001953,1741884944.101734
0.0225,-0.2445,0.037,0.001236,0.00030525,-0.00369275,1741884944.116031
0.02175,-0.24525,0.03725,0.0012665,0.0003815,-0.0045165,1741884944.130507
0.02175,-0.24575,0.0385,0.00131225,0.000473,-0.00541675,1741884944.144873
0.01925,-0.24325,0.04025,0.0015565,0.00061025,-0.005844,1741884944.1592581
0.0155,-0.2435,0.0375,0.0020295,0.000534,-0.0065612504,1741884944.1737568
0.01175,-0.24625,0.0375,0.0021515,0.0001525,-0.00637825,1741884944.18985
0.011,-0.24825,0.03925,0.0023345,-0.00010675,-0.00611875,1741884944.202654
0.0115,-0.2485,0.03975,0.00296025,0.0001525,-0.0063325,1741884944.2182558
0.0115,-0.24725,0.039,0.0031127501,0.0005035,-0.006546,1741884944.231463
0.011,-0.2465,0.03925,0.00352475,0.0014495,-0.0072937496,1741884944.245835
