acc_x,acc_y,acc_z,gyro_x,gyro_y,gyro_z,timestamp
0.24525,-0.00275,-0.01075,0.000412,-0.00019825,-0.0004425,1742092005.415828
0.24725,-0.00225,-0.00875,0.00033575002,1.5250001e-05,-0.0002135,1742092005.429226
0.24725,-0.00125,-0.00925,0.00033575002,0.000183,-0.000229,1742092005.443723
0.247,-0.001,-0.0095,0.00027475,0.00019825,-0.0002135,1742092005.458137
0.2485,-0.00175,-0.00875,0.00029,0.00010675,-0.0003205,1742092005.47259
0.25,-0.00175,-0.008,0.000412,4.575e-05,-0.00051875,1742092005.48702
0.251,-0.00075,-0.00725,0.00065625,0.00033575002,-0.000946,1742092005.5014741
0.248,-0.0015,-0.00975,0.00062550005,0.0005645,-0.0009765,1742092005.516031
0.2465,-0.0025,-0.012,0.0003205,0.00068675,-0.00062550005,1742092005.530515
0.246,-0.00275,-0.01425,0.000183,0.00062550005,-0.0004425,1742092005.545707
0.24575,-0.003,-0.01425,0.00029,0.0004425,-0.000412,1742092005.559416
0.24475,-0.00225,-0.0135,0.000473,0.00030525,-0.0005645,1742092005.5737731
0.24525,-0.00125,-0.01175,0.00064075,0.0002135,-0.00071725,1742092005.5882208
0.247,-0.00025,-0.00825,0.00074775,0.00035100002,-0.001068,1742092005.602725
0.246,-0.0005,-0.0095,0.00077825,0.00054925,-0.0013275,1742092005.6171808
0.2445,-0.00175,-0.01225,0.000763,0.00061025,-0.00149525,1742092005.631739
0.243,-0.00425,-0.0155,0.00071725,0.0005035,-0.00143425,1742092005.6461592
0.243,-0.00525,-0.015,0.00077825,-1.5250001e-05,-0.0012665,1742092005.660636
0.2445,-0.0045,-0.013,0.00077825,-0.0001525,-0.0012817499,1742092005.6758049
0.24475,-0.0035,-0.01225,0.00057975,0.0004425,-0.000946,1742092005.689493
0.24375,-0.0035,-0.0135,0.00033575002,0.00071725,-0.0005645,1742092005.7052748
0.24325,-0.00325,-0.01475,6.1000002e-05,0.0008545,-0.00016775,1742092005.7184372
0.24475,-0.00325,-0.01475,-0.00035100002,0.000763,0.000229,1742092005.732934
0.24625,-0.0045,-0.014,-0.000412,0.00061025,0.000122000005,1742092005.747415
0.2475,-0.00625,-0.014,-0.00019825,0.00010675,-0.00035100002,1742092005.7621062
0.248,-0.009,-0.0135,-6.1000002e-05,-0.00016775,-0.00057975,1742092005.7766678
0.248,-0.0095,-0.013,0.00019825,-0.000412,-0.00067150005,1742092005.7911181
0.24775,-0.0095,-0.01175,0.00029,-0.00033575002,-0.000534,1742092005.805696
0.2465,-0.0085,-0.01225,0.00019825,-6.1000002e-05,-0.000122000005,1742092005.8201642
0.24425,-0.0065,-0.01375,3.0500001e-05,-4.575e-05,9.15e-05,1742092005.83524
0.24375,-0.00575,-0.01425,-0.0002595,-0.00013725001,0.00042725,1742092005.8490849
0.244,-0.00675,-0.015,-0.00033575002,-0.000183,0.000534,1742092005.863513
0.2455,-0.00775,-0.01425,-0.00033575002,-0.00029,0.00054925,1742092005.8780658
0.2475,-0.00775,-0.01275,-9.15e-05,-0.0005645,0.00033575002,1742092005.8925922
0.25,-0.0075,-0.01025,0.0,-0.00061025,0.00027475,1742092005.9069781
0.25025,-0.00725,-0.00925,-0.0001525,-0.00051875,0.00045775,1742092005.921542
0.2505,-0.00625,-0.008,-0.00024425,-0.00045775,0.00057975,1742092005.9361122
0.2505,-0.005,-0.0085,-0.00036625,-0.00013725001,0.00059500005,1742092005.950615
0.24925,-0.004,-0.01075,-0.0004425,0.00010675,0.0005645,1742092005.9650502
0.24875,-0.00475,-0.01275,-0.00051875,0.000412,0.00054925,1742092005.979556
0.24625,-0.00675,-0.01575,-0.00045775,0.00042725,0.00054925,1742092005.993969
0.2455,-0.006,-0.0155,-0.00035100002,0.00036625,0.00054925,1742092006.0083132
0.2455,-0.0045,-0.01475,-0.0001525,0.000183,0.00051875,1742092006.0227158
0.245,-0.004,-0.0135,-0.00010675,0.00013725001,0.000473,1742092006.037181
0.245,-0.0045,-0.013,-0.00016775,7.625e-05,0.000412,1742092006.0517719
0.24475,-0.0055,-0.01275,-0.00016775,7.625e-05,0.000412,1742092006.066135
0.24475,-0.00575,-0.0125,-0.000122000005,0.0001525,0.0003815,1742092006.080609
0.24475,-0.00475,-0.0115,-0.000122000005,0.00013725001,0.00036625,1742092006.095642
0.2455,-0.00475,-0.0105,-0.00013725001,6.1000002e-05,0.0003815,1742092006.109442
0.247,-0.00675,-0.009,-0.0002135,-0.00010675,0.00048825,1742092006.124063
0.2475,-0.00675,-0.00825,-0.0002135,-0.0001525,0.0005645,1742092006.13856
0.24775,-0.006,-0.0075,-7.625e-05,-0.0002135,0.00071725,1742092006.153161
0.24875,-0.002,-0.006,6.1000002e-05,-0.0002135,0.0007325,1742092006.167566
0.24875,0.00125,-0.00575,0.00027475,-0.00010675,0.000534,1742092006.181878
0.2465,0.007,-0.00725,0.000229,-6.1000002e-05,0.0004425,1742092006.1961899
0.24525,0.00925,-0.009,-9.15e-05,0.0,0.00027475,1742092006.210627
0.24375,0.01025,-0.01125,-0.00029,4.575e-05,9.15e-05,1742092006.225966
0.24375,0.0095,-0.01225,-0.00045775,3.0500001e-05,-0.0001525,1742092006.239352
0.2445,0.008,-0.0125,-0.000763,-0.000122000005,-0.000534,1742092006.2538629
0.24575,0.00475,-0.01275,-0.0009155,-0.000122000005,-0.0005645,1742092006.2683709
0.2465,0.00325,-0.01275,-0.0012055,1.5250001e-05,-0.0005035,1742092006.282756
0.246,-0.001,-0.01525,-0.00125125,0.00010675,-0.0005645,1742092006.297238
0.245,-0.0035,-0.017,-0.0011445,0.000183,-0.00074775,1742092006.311799
0.24525,-0.008,-0.0185,-0.0010375,0.0001525,-0.0007935,1742092006.326318
0.2455,-0.00975,-0.01925,-0.00074775,6.1000002e-05,-0.000763,1742092006.340804
0.24525,-0.0115,-0.01975,-0.00059500005,-3.0500001e-05,-0.00065625,1742092006.355395
0.24575,-0.01125,-0.019,-0.00045775,-0.00010675,-0.000473,1742092006.3699641
0.246,-0.011,-0.018,-0.00016775,-0.000229,-0.000122000005,1742092006.3857338
0.24625,-0.00975,-0.01625,-1.5250001e-05,-0.00027475,1.5250001e-05,1742092006.399049
0.24625,-0.009,-0.0155,0.00024425,-0.00029,0.00019825,1742092006.4134872
0.24625,-0.0065,-0.01275,0.00030525,-0.00024425,0.00027475,1742092006.427972
0.24575,-0.005,-0.012,0.00036625,-9.15e-05,0.00035100002,1742092006.4423811
0.24475,-0.003,-0.01225,0.0003815,-6.1000002e-05,0.00033575002,1742092006.456733
0.2445,-0.002,-0.012,0.00035100002,-0.00019825,0.00024425,1742092006.4712079
0.24425,-0.00025,-0.0115,0.0003205,-0.00019825,0.0001525,1742092006.485706
0.24325,-0.00025,-0.012,0.00029,-0.00013725001,6.1000002e-05,1742092006.500159
0.2425,-0.00075,-0.01275,0.0002135,-9.15e-05,-4.575e-05,1742092006.5147269
0.2425,-0.002,-0.01375,0.000183,-0.0001525,-7.625e-05,1742092006.529202
0.243,-0.003,-0.0135,9.15e-05,-0.00039675,-0.00010675,1742092006.54385
0.246,-0.00325,-0.0115,4.575e-05,-0.000534,-3.0500001e-05,1742092006.558294
0.24775,-0.003,-0.01025,0.0,-0.00048825,9.15e-05,1742092006.57273
0.248,-0.00275,-0.01,0.0,-0.00039675,4.575e-05,1742092006.587161
0.24825,-0.00275,-0.01025,0.0,-0.00024425,-4.575e-05,1742092006.601664
0.2495,-0.00275,-0.00975,3.0500001e-05,-9.15e-05,-0.000122000005,1742092006.616214
0.24925,-0.003,-0.0105,7.625e-05,6.1000002e-05,-0.0002135,1742092006.630681
0.2495,-0.00325,-0.01125,0.0,-3.0500001e-05,-6.1000002e-05,1742092006.6455958
0.24975,-0.0035,-0.0105,-6.1000002e-05,-0.000183,7.625e-05,1742092006.6598
0.25025,-0.00375,-0.00975,-6.1000002e-05,-0.00027475,0.000183,1742092006.675179
0.25075,-0.003,-0.00825,1.5250001e-05,-0.000229,0.0001525,1742092006.688712
0.2505,-0.00225,-0.008,0.00010675,-7.625e-05,0.00010675,1742092006.7031622
0.25,-0.002,-0.00825,6.1000002e-05,3.0500001e-05,0.00010675,1742092006.717566
0.24975,-0.00225,-0.00875,-7.625e-05,0.0001525,0.00013725001,1742092006.731997
0.25,-0.00275,-0.0085,-0.00010675,0.0001525,0.0001525,1742092006.7463439
0.25025,-0.0035,-0.00875,-0.00010675,0.00013725001,0.0001525,1742092006.760702
0.25,-0.0045,-0.009,-0.000122000005,0.0002135,0.000183,1742092006.775338
0.25025,-0.006,-0.0075,-0.00013725001,0.00024425,0.00024425,1742092006.789577
0.251,-0.00575,-0.006,-7.625e-05,0.000473,0.00039675,1742092006.8050072
0.249,-0.00225,-0.00625,-1.5250001e-05,0.00071725,0.00045775,1742092006.818439
0.247,-0.0,-0.008,-6.1000002e-05,0.001114,0.00057975,1742092006.832947
0.24325,0.00175,-0.01275,-0.00013725001,0.00112925,0.000534,1742092006.847245
0.24225,0.0015,-0.014,-0.00024425,0.00086975005,0.000229,1742092006.861654
0.242,-0.001,-0.01425,-0.0002135,0.0007325,4.575e-05,1742092006.876161
0.24275,-0.00225,-0.01375,-0.000122000005,0.00059500005,-9.15e-05,1742092006.8906372
0.2435,-0.00225,-0.01325,7.625e-05,0.00045775,-0.00016775,1742092006.9053938
0.24275,0.0005,-0.01375,7.625e-05,0.00048825,-0.00013725001,1742092006.919379
0.24175,0.0015,-0.015,0.0,0.00054925,-0.0001525,1742092006.933789
0.24075,0.001,-0.01875,-6.1000002e-05,0.00048825,-0.0002135,1742092006.948189
0.241,-0.00025,-0.01925,-0.0001525,0.000183,-0.00033575002,1742092006.9626172
0.24375,-0.00275,-0.017,-0.000122000005,6.1000002e-05,-0.00036625,1742092006.977223
0.2455,-0.0025,-0.0155,-3.0500001e-05,7.625e-05,-0.00039675,1742092006.9917922
0.24575,-0.001,-0.01525,-3.0500001e-05,0.000122000005,-0.0003815,1742092007.00625
0.2455,-0.001,-0.016,-6.1000002e-05,0.000122000005,-0.0003205,1742092007.020802
0.24575,-0.00125,-0.017,-7.625e-05,-1.5250001e-05,-0.0002595,1742092007.035842
0.2475,-0.002,-0.01675,-4.575e-05,-7.625e-05,-0.00033575002,1742092007.0500412
0.24825,-0.00325,-0.016,3.0500001e-05,-0.000122000005,-0.00039675,1742092007.0645928
0.249,-0.00575,-0.015,4.575e-05,-0.00010675,-0.00030525,1742092007.079115
0.2485,-0.0065,-0.0145,0.00010675,0.0,-0.00013725001,1742092007.093529
0.24725,-0.0065,-0.0135,0.000183,6.1000002e-05,-7.625e-05,1742092007.1078458
0.2465,-0.0055,-0.0135,0.00039675,0.000229,-7.625e-05,1742092007.122298
0.24525,-0.0015,-0.01375,0.0004425,0.00027475,-9.15e-05,1742092007.136692
0.24475,0.00025,-0.014,0.0004425,0.0003205,-0.00010675,1742092007.151026
0.24375,0.00075,-0.01425,0.00033575002,0.0002595,-0.0002135,1742092007.166987
0.242,0.00025,-0.0155,0.00029,0.00013725001,-0.00030525,1742092007.1796072
0.242,-0.0,-0.01625,0.0002595,-0.00019825,-0.00048825,1742092007.194129
0.24225,-0.0015,-0.01775,0.0002135,-0.00035100002,-0.0005035,1742092007.2086558
0.24375,-0.00375,-0.01725,1.5250001e-05,-0.00061025,-0.00033575002,1742092007.223198
0.2495,-0.00725,-0.01325,3.0500001e-05,-0.00065625,-0.00027475,1742092007.2377658
0.2505,-0.00825,-0.012,0.000122000005,-0.00061025,-0.0002595,1742092007.25222
0.252,-0.00775,-0.00975,0.00029,-0.00048825,-3.0500001e-05,1742092007.26678
0.2525,-0.006,-0.00825,0.00029,-0.00042725,0.00016775,1742092007.281237
0.2525,-0.004,-0.00725,0.00024425,-0.0002135,0.00030525,1742092007.2957308
0.2515,-0.00225,-0.00775,0.00024425,-0.00010675,0.0002135,1742092007.3101928
0.2505,-0.002,-0.00875,0.00024425,-0.00010675,6.1000002e-05,1742092007.3257668
0.251,-0.004,-0.0085,0.00019825,-0.000183,0.00010675,1742092007.339066
0.25175,-0.005,-0.007,0.00019825,-0.000229,0.0002595,1742092007.353409
0.25175,-0.004,-0.00525,0.00024425,-0.000122000005,0.0003205,1742092007.367821
0.2495,-0.00225,-0.006,0.00024425,3.0500001e-05,0.0003815,1742092007.3821619
0.247,-0.00025,-0.0075,9.15e-05,0.0002135,0.00051875,1742092007.3964748
0.2435,0.003,-0.01,3.0500001e-05,0.0002595,0.0005035,1742092007.410769
0.242,0.004,-0.0115,-7.625e-05,0.00029,0.00019825,1742092007.425977
0.24,0.00325,-0.0145,-0.000183,0.0002595,6.1000002e-05,1742092007.4393861
0.24,0.002,-0.0155,-0.00035100002,0.00013725001,-0.0001525,1742092007.453939
0.241,-0.00075,-0.0165,-0.00036625,7.625e-05,-0.0002595,1742092007.468382
0.24125,-0.00225,-0.0175,-0.00033575002,-1.5250001e-05,-0.0004425,1742092007.4830809
0.242,-0.005,-0.02,-0.0003205,-9.15e-05,-0.00045775,1742092007.497605
0.24275,-0.00575,-0.02025,-0.0002595,-0.00019825,-0.0004425,1742092007.512203
0.2435,-0.0065,-0.0205,-9.15e-05,-0.0003205,-0.00033575002,1742092007.526957
0.24475,-0.008,-0.02125,-1.5250001e-05,-0.000412,-0.00024425,1742092007.5414898
0.24625,-0.00825,-0.02125,0.00010675,-0.00068675,3.0500001e-05,1742092007.555939
0.25125,-0.0075,-0.0175,0.000229,-0.000763,9.15e-05,1742092007.570303
0.2535,-0.00775,-0.015,0.000534,-0.0005035,9.15e-05,1742092007.58548
0.255,-0.00825,-0.01175,0.00068675,-0.00029,0.00019825,1742092007.599114
0.25475,-0.00675,-0.011,0.00083925005,0.0001525,0.000534,1742092007.613512
0.251,-0.00225,-0.0105,0.00083925005,0.00035100002,0.00065625,1742092007.6278222
0.24875,-0.00075,-0.01075,0.000824,0.00051875,0.00071725,1742092007.642154
0.2465,0.0005,-0.011,0.00083925005,0.00070200005,0.00064075,1742092007.656419
0.2435,0.00175,-0.0115,0.00080875,0.00074775,0.00061025,1742092007.670721
0.24225,0.002,-0.012,0.00070200005,0.00071725,0.00051875,1742092007.6851652
0.2415,0.00175,-0.01275,0.00059500005,0.000534,0.000473,1742092007.69923
0.24275,0.00125,-0.01175,0.00051875,7.625e-05,0.00036625,1742092007.713527
0.24675,0.00325,-0.00825,0.00054925,-3.0500001e-05,0.0002595,1742092007.7278311
0.24725,0.00425,-0.0075,0.0005035,3.0500001e-05,0.00013725001,1742092007.742035
0.247,0.00425,-0.0075,0.00013725001,0.00013725001,7.625e-05,1742092007.7563038
0.2475,0.002,-0.009,-3.0500001e-05,7.625e-05,0.000122000005,1742092007.770588
0.24775,0.00125,-0.0095,-0.000183,-6.1000002e-05,0.000122000005,1742092007.785207
0.248,0.001,-0.00925,-0.000229,-0.000122000005,0.000122000005,1742092007.7994182
0.248,0.00125,-0.00925,-0.00039675,-0.00027475,0.00029,1742092007.813921
0.24775,0.00275,-0.00925,-0.00054925,-0.00027475,0.0003815,1742092007.828368
0.247,0.003,-0.01,-0.00070200005,-0.00027475,0.0004425,1742092007.8427231
0.24575,0.003,-0.01125,-0.00080875,-0.000412,0.0004425,1742092007.857208
0.244,0.0015,-0.01375,-0.000763,-0.00061025,0.00039675,1742092007.871688
0.24475,0.0,-0.01375,-0.00071725,-0.0011445,0.00024425,1742092007.8860512
0.246,-0.002,-0.01225,-0.00062550005,-0.00137325,9.15e-05,1742092007.900566
0.24625,-0.00275,-0.011,-0.00048825,-0.0017242499,-7.625e-05,1742092007.915447
0.24825,-0.00325,-0.00875,-0.000534,-0.00175475,-4.575e-05,1742092007.929784
0.2475,-0.00325,-0.0095,-0.00070200005,-0.001526,4.575e-05,1742092007.944305
0.24475,-0.00275,-0.01275,-0.000763,-0.001419,0.000122000005,1742092007.958808
0.24375,-0.00225,-0.01375,-0.00071725,-0.0013427499,0.00016775,1742092007.9732502
0.243,-0.00125,-0.014,-0.00045775,-0.00125125,0.000122000005,1742092007.987726
0.24325,-0.0005,-0.0135,-0.0003205,-0.001236,0.00010675,1742092008.002202
0.244,-0.001,-0.01325,-0.00013725001,-0.001175,0.000229,1742092008.016832
0.248,0.0,-0.0085,-0.000122000005,-0.00109875,0.0003205,1742092008.031199
0.25075,0.0015,-0.00525,-9.15e-05,-0.00048825,0.0002135,1742092008.045671
0.2505,0.00075,-0.00575,-4.575e-05,-3.0500001e-05,0.0,1742092008.0601668
0.2495,-0.0005,-0.0075,-3.0500001e-05,0.0003205,-6.1000002e-05,1742092008.074593
0.2485,0.00025,-0.008,-1.5250001e-05,0.00024425,4.575e-05,1742092008.089014
0.248,0.00125,-0.0075,-1.5250001e-05,0.00016775,0.000122000005,1742092008.103319
0.247,0.00175,-0.007,-0.000122000005,0.00013725001,0.00019825,1742092008.11761
0.24525,0.00225,-0.00775,-0.000183,4.575e-05,0.0002135,1742092008.1320288
0.245,0.0025,-0.00775,-0.0002135,-4.575e-05,4.575e-05,1742092008.146388
0.24575,0.0035,-0.0065,-0.000122000005,0.0001525,-0.0002135,1742092008.160969
0.24475,0.0035,-0.00725,-1.5250001e-05,0.00059500005,-0.00070200005,1742092008.175709
0.24275,0.0015,-0.01125,-0.00010675,0.00057975,-0.0007325,1742092008.189676
0.24275,0.00125,-0.01175,-0.0002135,0.000412,-0.00064075,1742092008.2040682
0.2435,0.001,-0.011,-0.0003815,1.5250001e-05,-0.0005645,1742092008.218448
0.244,-0.00125,-0.01,-0.000412,-7.625e-05,-0.00064075,1742092008.233135
0.244,-0.00275,-0.0105,-0.00036625,-0.00013725001,-0.000763,1742092008.24777
0.24525,-0.00425,-0.0105,-0.00036625,-0.00029,-0.00077825,1742092008.2623549
0.247,-0.00375,-0.00975,-0.0002595,-0.00065625,-0.000946,1742092008.276951
0.2485,-0.00325,-0.011,-3.0500001e-05,-0.00080875,-0.001175,1742092008.291584
0.24775,-0.00325,-0.01225,0.00067150005,-0.0013580001,-0.001587,1742092008.30607
0.24725,-0.002,-0.01125,0.00102225,-0.00175475,-0.0017395001,1742092008.3206542
0.24675,-0.0005,-0.01,0.0012970001,-0.0032655,-0.0020599999,1742092008.3358562
0.246,-0.00125,-0.00825,0.0012207499,-0.0040587503,-0.0021819999,1742092008.3496408
0.24575,-0.004,-0.00775,0.001175,-0.00437925,-0.0023497501,1742092008.364218
0.2455,-0.00575,-0.007,0.00109875,-0.00413525,-0.0028535,1742092008.378776
0.2455,-0.0065,-0.00325,0.0007935,-0.00428775,-0.00289925,1742092008.3933141
0.24675,-0.00625,-0.00075,-0.00010675,-0.0037079998,-0.00231925,1742092008.4079208
0.247,-0.00625,0.001,-0.00048825,-0.00270075,-0.00216675,1742092008.422454
0.24675,-0.00625,0.001,-0.001114,-0.001236,-0.00193775,1742092008.4369931
0.2445,-0.00775,0.00025,-0.0013580001,-0.00105275,-0.00163275,1742092008.451593
0.2435,-0.00825,-0.0005,-0.001587,-0.00057975,-0.00080875,1742092008.4661849
0.24425,-0.00725,-0.00025,-0.00163275,-0.00035100002,-0.00045775,1742092008.480831
0.244,-0.00675,0.0,-0.00163275,-0.00035100002,3.0500001e-05,1742092008.495702
0.24325,-0.00475,-0.0,-0.00160225,-0.00045775,0.000122000005,1742092008.509762
0.24275,-0.00475,-0.0005,-0.00154125,-0.00061025,0.00013725001,1742092008.5242848
0.24325,-0.0055,-0.0005,-0.0013580001,-0.001068,6.1000002e-05,1742092008.538822
0.2455,-0.007,0.00075,-0.001236,-0.00119025,-7.625e-05,1742092008.553269
0.2465,-0.00825,0.00125,-0.00074775,-0.001007,-0.0003815,1742092008.567733
0.24675,-0.0115,0.0005,-0.0003815,-0.000824,-0.000412,1742092008.5822752
0.247,-0.01175,0.001,0.00013725001,-0.00054925,-0.0003205,1742092008.596777
0.24825,-0.009,0.003,0.000229,-0.00039675,-0.00024425,1742092008.61117
0.24775,-0.0085,0.0025,0.000183,-0.000122000005,-0.00013725001,1742092008.625652
0.2465,-0.00825,0.001,0.00010675,-0.00010675,-6.1000002e-05,1742092008.64007
0.246,-0.0085,0.0005,1.5250001e-05,-0.00013725001,6.1000002e-05,1742092008.655603
0.24525,-0.00875,0.0,-9.15e-05,-0.0003205,0.00027475,1742092008.6689122
0.24575,-0.00825,-0.00025,-9.15e-05,-0.00045775,0.00036625,1742092008.683296
0.246,-0.0075,0.00025,0.0,-0.00070200005,0.00048825,1742092008.697527
0.2465,-0.00475,0.00275,1.5250001e-05,-0.000763,0.00054925,1742092008.7118971
0.247,-0.00325,0.00375,-0.000122000005,-0.00065625,0.00054925,1742092008.726281
0.2465,-0.002,0.0045,-0.000229,-0.00048825,0.00048825,1742092008.7406158
0.24675,-0.002,0.00475,-0.00030525,-0.00027475,0.00035100002,1742092008.755681
0.2455,-0.003,0.0035,-0.00030525,0.0002595,-0.000122000005,1742092008.7694452
0.2425,-0.0075,-0.0015,-0.00030525,0.00033575002,-0.00027475,1742092008.7840111
0.24225,-0.00975,-0.003,-0.000229,1.5250001e-05,-0.0002595,1742092008.798544
0.24275,-0.012,-0.00325,-9.15e-05,-0.00019825,-0.00016775,1742092008.813098
0.244,-0.01175,-0.00225,0.000183,-0.0003815,-4.575e-05,1742092008.8276758
0.24675,-0.00975,0.00025,0.00024425,-0.000412,1.5250001e-05,1742092008.841996
0.247,-0.00975,0.00075,0.00033575002,-0.00045775,0.0001525,1742092008.8563142
0.24875,-0.00975,0.00075,0.0004425,-0.0005035,0.00016775,1742092008.870594
0.25075,-0.0095,0.002,0.00057975,-0.000473,0.00013725001,1742092008.885487
0.25175,-0.0095,0.00325,0.0009765,-6.1000002e-05,-1.5250001e-05,1742092008.899372
0.25075,-0.00925,0.00425,0.00105275,0.00010675,3.0500001e-05,1742092008.913616
0.25125,-0.009,0.005,0.00086975005,0.000183,0.00045775,1742092008.928053
0.25275,-0.0065,0.0065,0.00086975005,0.0003205,0.0005645,1742092008.942278
0.25225,-0.0055,0.006,0.001068,0.0010375,0.0002135,1742092008.956505
0.24675,-0.00525,-0.001,0.00074775,0.001419,4.575e-05,1742092008.970916
0.243,-0.00525,-0.00525,-0.00033575002,0.0016175,0.00033575002,1742092008.986314
0.24125,-0.006,-0.007,-0.0039825,0.00148,0.0027312501,1742092008.9997
0.24425,-0.00675,-0.00175,-0.0051574996,0.001526,0.00381475,1742092009.014226
0.24625,-0.00575,0.00225,-0.004013,0.0016175,0.0033875,1742092009.028749
0.247,-0.00475,0.003,-0.0025025,0.001648,0.00231925,1742092009.043214
0.246,-0.00475,0.00225,-0.00059500005,0.0015565,0.00108325,1742092009.0575821
0.24625,-0.004,0.002,-0.00035100002,0.001114,0.0013885,1742092009.072033
0.247,-0.003,0.0025,-0.00019825,0.00054925,0.00187675,1742092009.086428
0.24625,-0.0005,0.0015,0.00064075,-0.00029,0.00177,1742092009.10069
0.2465,0.0,0.00075,0.001175,-0.00057975,0.0012665,1742092009.1167119
0.2475,0.001,0.0015,0.0018005001,-0.000824,0.0004425,1742092009.12928
0.2475,0.002,0.00225,0.0018615,-0.0008545,0.00039675,1742092009.143527
0.2475,0.0015,0.0025,0.0017242499,-0.0010375,0.000763,1742092009.157784
0.24925,0.00075,0.004,0.0017395001,-0.001236,0.000946,1742092009.172013
0.25125,0.00175,0.00525,0.0017852499,-0.0013580001,0.0009765,1742092009.186307
0.25225,0.00275,0.006,0.00184625,-0.001114,0.000412,1742092009.2005749
0.25075,0.00275,0.005,0.0018005001,-0.000946,0.0001525,1742092009.216612
0.2495,0.00175,0.00375,0.0016632499,-0.0009765,0.0001525,1742092009.229235
0.24925,-0.00025,0.00225,0.001709,-0.001068,0.00027475,1742092009.24353
0.24975,-0.00075,0.00275,0.0016175,-0.00077825,0.000534,1742092009.2579148
0.2495,-0.00025,0.003,0.0012817499,-0.00048825,0.00062550005,1742092009.27228
0.24925,-0.00025,0.00275,0.000885,-0.00027475,0.00064075,1742092009.286589
0.249,-0.0005,0.00325,0.0005645,-0.00029,0.00048825,1742092009.300907
0.2495,-0.0005,0.00375,0.0005645,-0.0003205,0.00042725,1742092009.315286
0.2495,-0.001,0.00425,0.0004425,1.5250001e-05,0.00042725,1742092009.329516
0.25,-0.00075,0.00525,0.00035100002,0.0002135,0.00051875,1742092009.3438451
0.25025,-0.00075,0.00525,0.000412,0.00065625,0.00016775,1742092009.3580039
0.24625,-0.00125,0.002,0.00061025,0.00080875,-0.00029,1742092009.3723662
0.2445,-0.0015,0.0,0.00080875,0.00067150005,-0.00057975,1742092009.3867378
0.244,-0.0015,-0.0005,0.000885,0.00027475,-0.000412,1742092009.4012318
0.2455,-0.002,0.001,0.00086975005,0.00027475,-0.00027475,1742092009.4158669
0.24625,-0.00175,0.002,0.00105275,0.00029,-0.00019825,1742092009.430026
0.24675,-0.0005,0.00275,0.0012055,0.00036625,-0.00035100002,1742092009.44434
0.2465,0.0005,0.00225,0.00157175,0.00064075,-0.00077825,1742092009.4585989
0.24425,0.00075,0.0,0.0017242499,0.0007325,-0.0010375,1742092009.472995
0.24275,0.001,-0.00075,0.00181575,0.0007325,-0.00119025,1742092009.4873521
0.2435,0.0,-0.00125,0.0017242499,0.00057975,-0.0010375,1742092009.501675
0.24475,-0.0005,-0.00075,0.00169375,0.00048825,-0.000946,1742092009.516567
0.24525,-0.00175,-0.0005,0.001892,0.000229,-0.00080875,1742092009.5306911
0.24525,-0.005,0.0005,0.0020905002,0.0003815,-0.0009155,1742092009.545588
0.24475,-0.00475,0.00025,0.0024872501,0.00036625,-0.00112925,1742092009.5594969
0.244,-0.0025,-0.00125,0.0024872501,0.00019825,-0.000824,1742092009.574024
0.24375,-0.001,-0.00175,0.0021819999,0.00027475,-7.625e-05,1742092009.58846
0.24225,0.003,-0.002,0.0023345,0.0002595,7.625e-05,1742092009.6026828
0.24025,0.0035,-0.00325,0.0028535,-0.00010675,0.00016775,1742092009.617098
0.23925,0.003,-0.004,0.0042572496,-0.00048825,0.00045775,1742092009.6315231
0.24275,0.00125,-0.00325,0.0047912505,-0.00048825,0.00070200005,1742092009.6460228
0.24475,0.00125,-0.0025,0.00505075,-0.0007935,0.00083925005,1742092009.6604118
0.24875,0.003,0.001,0.0048979996,-0.00090025004,0.00059500005,1742092009.675971
0.25025,0.00425,0.0025,0.00434875,-0.0005645,0.00010675,1742092009.688892
0.251,0.00575,0.00675,0.00402825,-0.00033575002,0.000122000005,1742092009.703178
0.25025,0.00525,0.0075,0.003769,-0.00013725001,0.00030525,1742092009.7174962
0.2505,0.0045,0.00825,0.003769,0.00061025,0.000412,1742092009.731671
0.25275,0.004,0.0065,0.0042115003,0.00065625,0.00027475,1742092009.74592
0.2535,0.00425,0.005,0.0041044997,0.00067150005,0.00054925,1742092009.7601311
0.2545,0.003,0.00575,0.0031889998,0.00093075,0.00108325,1742092009.775502
0.256,0.00275,0.008,0.001709,0.00112925,0.0012665,1742092009.788587
0.25825,0.00475,0.014,0.0015565,0.001526,0.00064075,1742092009.802944
0.25675,0.0055,0.0135,0.0014495,0.002365,-0.00010675,1742092009.817384
0.25375,0.005,0.01,0.00067150005,0.003769,-0.000885,1742092009.831615
0.2495,0.005,0.00125,6.1000002e-05,0.00381475,-0.00064075,1742092009.8459399
0.24775,0.00525,-0.00025,-0.001236,0.0036315,0.000229,1742092009.860279
0.24675,0.00525,-0.00225,-0.001709,0.0037079998,0.0003815,1742092009.875183
0.247,0.004,-0.00325,-0.0020905002,0.00334175,0.0002595,1742092009.889104
0.247,0.00175,-0.0055,-0.002243,0.0030365,0.0001525,1742092009.903573
0.24625,0.0015,-0.00725,-0.0024414998,0.0028229998,9.15e-05,1742092009.918017
0.245,0.0015,-0.00875,-0.00308225,0.00251775,0.00016775,1742092009.93238
0.244,0.00275,-0.0105,-0.0033264998,0.00225825,0.0002135,1742092009.948033
0.24375,0.00275,-0.01125,-0.0033875,0.0012970001,0.0005035,1742092009.9611268
0.245,0.002,-0.0105,-0.0034484998,0.000824,0.000763,1742092009.975931
0.24675,0.001,-0.0085,-0.0036162501,0.00062550005,0.00112925,1742092009.9900181
0.24625,-0.0,-0.00975,-0.0036315,0.00062550005,0.0012055,1742092010.0056472
0.24525,0.0005,-0.01125,-0.004013,0.0003815,0.0017395001,1742092010.018892
0.245,0.00275,-0.01175,-0.00434875,0.00010675,0.0022125002,1742092010.033298
0.245,0.00325,-0.01075,-0.004593,-0.000229,0.00267025,1742092010.047704
0.245,0.00325,-0.0105,-0.00437925,-0.0009155,0.002777,1742092010.062212
0.2445,0.00375,-0.011,-0.0040435,-0.0009765,0.0025940002,1742092010.076694
0.24425,0.00425,-0.01075,-0.00352475,-0.0012817499,0.0025940002,1742092010.0913239
0.245,0.00575,-0.00875,-0.00340275,-0.0014495,0.0026092501,1742092010.105695
0.246,0.00775,-0.00625,-0.00296025,-0.00125125,0.00216675,1742092010.120219
0.2455,0.01025,-0.00625,-0.0025940002,-0.00115975,0.001953,1742092010.135256
0.24525,0.00925,-0.00725,-0.0022125002,-0.001236,0.00193775,1742092010.149211
0.24675,0.0075,-0.007,-0.00213625,-0.001068,0.001648,1742092010.163672
0.2485,0.007,-0.005,-0.001953,-0.000824,0.0012970001,1742092010.178061
0.2485,0.0075,-0.004,-0.0013427499,-0.0005645,0.001526,1742092010.1926742
0.2485,0.00925,-0.00375,-0.0012055,-0.0004425,0.0017242499,1742092010.20716
0.2485,0.0105,-0.003,-0.0011445,-1.5250001e-05,0.0017852499,1742092010.221687
0.24675,0.01175,-0.00375,-0.000946,3.0500001e-05,0.0018005001,1742092010.236109
0.24625,0.011,-0.005,-0.000183,-0.0004425,0.002243,1742092010.250577
0.2475,0.01025,-0.005,0.000183,-0.00062550005,0.0025025,1742092010.266697
0.248,0.01075,-0.004,0.00080875,-0.00065625,0.003006,1742092010.279296
0.24975,0.0115,-0.00275,0.0008545,-0.00054925,0.00308225,1742092010.2936919
0.24975,0.0125,-0.002,0.00067150005,-0.0003205,0.00283825,1742092010.3081868
0.24875,0.01325,-0.0025,0.0003205,0.00029,0.001953,1742092010.322483
0.247,0.01125,-0.0055,0.0003205,0.0003815,0.00163275,1742092010.33669
0.247,0.009,-0.007,0.0003815,0.000229,0.00090025004,1742092010.350996
0.2475,0.008,-0.008,0.00029,0.0002595,0.00042725,1742092010.3667462
0.2475,0.01,-0.007,-6.1000002e-05,0.0005645,-0.00019825,1742092010.379678
0.2465,0.01425,-0.00575,-0.00027475,0.00071725,-0.00029,1742092010.394179
0.24575,0.015,-0.006,-0.000473,0.00086975005,-0.00035100002,1742092010.4086442
0.24525,0.01475,-0.0065,-0.00065625,0.00108325,-0.00068675,1742092010.423112
0.24525,0.0125,-0.00825,-0.00071725,0.0012055,-0.00096125,1742092010.437641
0.24525,0.01075,-0.009,-0.00112925,0.00149525,-0.001526,1742092010.452055
0.2445,0.00825,-0.011,-0.0014037499,0.001587,-0.001709,1742092010.4668102
0.24375,0.00775,-0.01175,-0.00163275,0.0015105,-0.0019225,1742092010.481057
0.24225,0.009,-0.013,-0.00148,0.0013275,-0.00193775,1742092010.495753
0.24225,0.01075,-0.01225,-0.0012817499,0.00108325,-0.00184625,1742092010.5098932
0.2425,0.01125,-0.012,-0.00096125,0.00061025,-0.0013427499,1742092010.524365
0.2435,0.01,-0.01175,-0.00086975005,0.00036625,-0.00102225,1742092010.53875
0.245,0.009,-0.0105,-0.00059500005,0.00024425,-0.00068675,1742092010.553204
0.24575,0.00825,-0.00925,-0.00036625,0.00039675,-0.00068675,1742092010.5676548
0.245,0.00775,-0.01025,0.0,0.00045775,-0.0005645,1742092010.582227
0.24375,0.0085,-0.011,4.575e-05,0.0003815,-0.00042725,1742092010.59655
0.2435,0.00975,-0.01075,0.000229,7.625e-05,-0.000122000005,1742092010.610976
0.24375,0.01075,-0.01075,0.00035100002,-6.1000002e-05,-1.5250001e-05,1742092010.6255639
0.24425,0.011,-0.01,0.0004425,-0.00010675,0.0,1742092010.639772
0.2445,0.01125,-0.00925,0.00057975,-3.0500001e-05,-6.1000002e-05,1742092010.654183
0.24475,0.0115,-0.009,0.0005645,1.5250001e-05,-4.575e-05,1742092010.668545
