acc_x,acc_y,acc_z,gyro_x,gyro_y,gyro_z,timestamp
0.0055,0.00725,0.25025,1.5250001e-05,1.5250001e-05,-6.1000002e-05,1742092784.928873
0.00575,0.00725,0.24975,3.0500001e-05,1.5250001e-05,-7.625e-05,1742092784.942423
0.00525,0.007,0.25375,-1.5250001e-05,0.0,-7.625e-05,1742092784.956613
0.005,0.007,0.25175,0.0,4.575e-05,-7.625e-05,1742092784.971126
0.00525,0.008,0.25,-3.0500001e-05,3.0500001e-05,-6.1000002e-05,1742092784.985489
0.00575,0.008,0.25175,0.0,1.5250001e-05,-6.1000002e-05,1742092784.999636
0.00575,0.0075,0.25125,0.0,1.5250001e-05,-7.625e-05,1742092785.01406
0.00525,0.00725,0.25,1.5250001e-05,1.5250001e-05,-7.625e-05,1742092785.028417
0.00525,0.00725,0.2505,0.0,1.5250001e-05,-7.625e-05,1742092785.042611
0.0055,0.007,0.25225,0.0,3.0500001e-05,-6.1000002e-05,1742092785.0572329
0.00575,0.007,0.25175,3.0500001e-05,1.5250001e-05,-6.1000002e-05,1742092785.071455
0.0055,0.00775,0.251,1.5250001e-05,1.5250001e-05,-6.1000002e-05,1742092785.0857532
0.00525,0.00775,0.2515,0.0,1.5250001e-05,-6.1000002e-05,1742092785.101224
0.005,0.0075,0.25125,1.5250001e-05,1.5250001e-05,-6.1000002e-05,1742092785.114282
0.00525,0.00775,0.25075,1.5250001e-05,1.5250001e-05,-7.625e-05,1742092785.1285388
0.00525,0.00775,0.251,3.0500001e-05,1.5250001e-05,-6.1000002e-05,1742092785.142831
0.0055,0.00775,0.25225,1.5250001e-05,1.5250001e-05,-4.575e-05,1742092785.157069
0.00575,0.0075,0.252,0.0,1.5250001e-05,-4.575e-05,1742092785.171236
0.00575,0.00725,0.251,0.0,1.5250001e-05,-6.1000002e-05,1742092785.185456
0.0055,0.0075,0.2515,0.0,1.5250001e-05,-6.1000002e-05,1742092785.199761
0.0055,0.0075,0.25225,0.0,1.5250001e-05,-6.1000002e-05,1742092785.213995
0.0055,0.0075,0.2515,1.5250001e-05,1.5250001e-05,-4.575e-05,1742092785.228448
0.00525,0.00725,0.251,1.5250001e-05,3.0500001e-05,-4.575e-05,1742092785.242754
0.00525,0.0075,0.25175,1.5250001e-05,3.0500001e-05,-6.1000002e-05,1742092785.256923
0.00525,0.0075,0.252,0.0,1.5250001e-05,-7.625e-05,1742092785.2711658
0.00525,0.00725,0.25125,0.0,1.5250001e-05,-6.1000002e-05,1742092785.285462
0.00525,0.0075,0.25125,0.0,1.5250001e-05,-6.1000002e-05,1742092785.30094
0.00525,0.0075,0.2515,0.0,3.0500001e-05,-4.575e-05,1742092785.3139148
0.0055,0.00775,0.25175,1.5250001e-05,1.5250001e-05,-6.1000002e-05,1742092785.3282402
0.0055,0.0075,0.25125,1.5250001e-05,0.0,-6.1000002e-05,1742092785.342418
0.0055,0.00725,0.2515,0.0,1.5250001e-05,-6.1000002e-05,1742092785.356742
0.0055,0.00725,0.25175,0.0,3.0500001e-05,-7.625e-05,1742092785.371159
0.00525,0.0075,0.25125,1.5250001e-05,3.0500001e-05,-6.1000002e-05,1742092785.385462
0.00525,0.0075,0.251,1.5250001e-05,3.0500001e-05,-4.575e-05,1742092785.399741
0.00525,0.0075,0.25075,1.5250001e-05,3.0500001e-05,-4.575e-05,1742092785.414241
0.00525,0.0075,0.2515,0.0,3.0500001e-05,-6.1000002e-05,1742092785.428511
0.00525,0.0075,0.2515,0.0,1.5250001e-05,-6.1000002e-05,1742092785.442742
0.00525,0.0075,0.251,1.5250001e-05,3.0500001e-05,-7.625e-05,1742092785.456913
0.00525,0.0075,0.251,4.575e-05,6.1000002e-05,-4.575e-05,1742092785.4712288
0.00525,0.0075,0.25175,4.575e-05,6.1000002e-05,-4.575e-05,1742092785.485545
0.00525,0.0075,0.2515,3.0500001e-05,6.1000002e-05,-6.1000002e-05,1742092785.49982
0.0055,0.0075,0.25125,3.0500001e-05,6.1000002e-05,-6.1000002e-05,1742092785.514097
0.0055,0.00725,0.25175,1.5250001e-05,6.1000002e-05,-6.1000002e-05,1742092785.528542
0.0055,0.007,0.2515,3.0500001e-05,4.575e-05,-6.1000002e-05,1742092785.542872
0.00575,0.00725,0.25175,1.5250001e-05,3.0500001e-05,-6.1000002e-05,1742092785.5577211
0.00575,0.0075,0.25175,1.5250001e-05,3.0500001e-05,-6.1000002e-05,1742092785.5722601
0.00575,0.0075,0.25175,3.0500001e-05,4.575e-05,-6.1000002e-05,1742092785.585693
0.00575,0.0075,0.25125,3.0500001e-05,4.575e-05,-6.1000002e-05,1742092785.606982
0.00575,0.0075,0.25125,3.0500001e-05,3.0500001e-05,-4.575e-05,1742092785.628287
0.0055,0.00725,0.25175,3.0500001e-05,1.5250001e-05,-4.575e-05,1742092785.628448
0.00575,0.00725,0.2515,1.5250001e-05,3.0500001e-05,-6.1000002e-05,1742092785.643323
0.0055,0.007,0.25125,0.0,3.0500001e-05,-6.1000002e-05,1742092785.657283
0.00525,0.007,0.2515,3.0500001e-05,3.0500001e-05,-6.1000002e-05,1742092785.671792
0.00525,0.00775,0.2515,3.0500001e-05,3.0500001e-05,-6.1000002e-05,1742092785.6858299
0.00525,0.00775,0.25125,3.0500001e-05,4.575e-05,-4.575e-05,1742092785.700122
0.00525,0.0075,0.251,4.575e-05,4.575e-05,-4.575e-05,1742092785.71485
0.0055,0.00725,0.2515,4.575e-05,4.575e-05,-6.1000002e-05,1742092785.728805
0.00575,0.00725,0.252,3.0500001e-05,3.0500001e-05,-4.575e-05,1742092785.743222
0.00625,0.00725,0.25275,1.5250001e-05,1.5250001e-05,-4.575e-05,1742092785.757428
0.006,0.00725,0.25175,0.0,-1.5250001e-05,-4.575e-05,1742092785.771808
0.0055,0.00725,0.25025,1.5250001e-05,-1.5250001e-05,-4.575e-05,1742092785.786161
0.00525,0.0075,0.25125,1.5250001e-05,0.0,-6.1000002e-05,1742092785.800589
0.00525,0.00775,0.252,0.0,1.5250001e-05,-6.1000002e-05,1742092785.814827
0.00525,0.0075,0.25125,0.0,1.5250001e-05,-6.1000002e-05,1742092785.829129
0.0055,0.0075,0.25075,3.0500001e-05,1.5250001e-05,-7.625e-05,1742092785.843454
0.0055,0.00725,0.25175,1.5250001e-05,1.5250001e-05,-6.1000002e-05,1742092785.85775
0.0055,0.007,0.25175,3.0500001e-05,0.0,-6.1000002e-05,1742092785.872142
0.0055,0.007,0.25125,1.5250001e-05,0.0,-7.625e-05,1742092785.886389
0.00575,0.00725,0.251,1.5250001e-05,0.0,-7.625e-05,1742092785.900942
0.00575,0.00725,0.2515,1.5250001e-05,1.5250001e-05,-7.625e-05,1742092785.914935
0.00575,0.00725,0.2515,1.5250001e-05,3.0500001e-05,-6.1000002e-05,1742092785.929249
0.00575,0.0075,0.25125,1.5250001e-05,1.5250001e-05,-4.575e-05,1742092785.943408
0.0055,0.0075,0.2515,1.5250001e-05,1.5250001e-05,-7.625e-05,1742092785.957808
0.0055,0.00725,0.2515,0.0,1.5250001e-05,-6.1000002e-05,1742092785.9721081
0.00575,0.007,0.25175,-1.5250001e-05,1.5250001e-05,-6.1000002e-05,1742092785.986463
0.00575,0.00675,0.25175,1.5250001e-05,0.0,-4.575e-05,1742092786.0008872
0.0055,0.00675,0.2515,1.5250001e-05,1.5250001e-05,-6.1000002e-05,1742092786.0149398
0.0055,0.00725,0.2515,0.0,1.5250001e-05,-6.1000002e-05,1742092786.02921
0.0055,0.0075,0.2515,1.5250001e-05,1.5250001e-05,-4.575e-05,1742092786.043443
0.00525,0.0075,0.25175,1.5250001e-05,1.5250001e-05,-3.0500001e-05,1742092786.057856
0.00525,0.0075,0.25175,1.5250001e-05,3.0500001e-05,-6.1000002e-05,1742092786.0720892
0.0055,0.00775,0.25125,1.5250001e-05,1.5250001e-05,-7.625e-05,1742092786.086565
0.0055,0.00775,0.251,1.5250001e-05,0.0,-7.625e-05,1742092786.1009972
0.00575,0.00775,0.25125,1.5250001e-05,1.5250001e-05,-6.1000002e-05,1742092786.1150231
0.006,0.0075,0.25175,1.5250001e-05,3.0500001e-05,-6.1000002e-05,1742092786.129348
0.006,0.00725,0.25175,1.5250001e-05,3.0500001e-05,-6.1000002e-05,1742092786.143611
0.0055,0.00725,0.2515,1.5250001e-05,3.0500001e-05,-7.625e-05,1742092786.1580448
0.0055,0.00725,0.2515,0.0,3.0500001e-05,-6.1000002e-05,1742092786.1723452
0.0055,0.0075,0.2515,1.5250001e-05,1.5250001e-05,-4.575e-05,1742092786.186665
0.00525,0.0075,0.2515,1.5250001e-05,1.5250001e-05,-3.0500001e-05,1742092786.2017841
0.00525,0.0075,0.25125,0.0,1.5250001e-05,-6.1000002e-05,1742092786.215251
0.0055,0.0075,0.25125,0.0,1.5250001e-05,-6.1000002e-05,1742092786.229533
0.006,0.00725,0.2515,0.0,0.0,-4.575e-05,1742092786.243822
0.0055,0.007,0.25125,0.0,0.0,-6.1000002e-05,1742092786.258091
0.00525,0.007,0.25125,3.0500001e-05,1.5250001e-05,-7.625e-05,1742092786.272661
0.0055,0.007,0.2515,1.5250001e-05,3.0500001e-05,-7.625e-05,1742092786.286964
0.0055,0.00725,0.25125,0.0,3.0500001e-05,-6.1000002e-05,1742092786.3016949
0.0055,0.00725,0.25125,1.5250001e-05,3.0500001e-05,-6.1000002e-05,1742092786.315557
0.0055,0.0075,0.25125,1.5250001e-05,3.0500001e-05,-6.1000002e-05,1742092786.3307369
0.0055,0.00775,0.25125,1.5250001e-05,1.5250001e-05,-4.575e-05,1742092786.344151
0.0055,0.0075,0.2515,3.0500001e-05,1.5250001e-05,-4.575e-05,1742092786.358455
0.0055,0.00725,0.25175,1.5250001e-05,1.5250001e-05,-9.15e-05,1742092786.3727438
0.00525,0.007,0.2515,1.5250001e-05,3.0500001e-05,-7.625e-05,1742092786.3872151
0.00525,0.007,0.25125,1.5250001e-05,3.0500001e-05,-7.625e-05,1742092786.4020638
0.00575,0.00725,0.25125,1.5250001e-05,1.5250001e-05,-4.575e-05,1742092786.415853
0.006,0.0075,0.25175,1.5250001e-05,1.5250001e-05,-3.0500001e-05,1742092786.430764
0.00575,0.0075,0.252,1.5250001e-05,1.5250001e-05,-4.575e-05,1742092786.444426
0.0055,0.00725,0.25175,1.5250001e-05,1.5250001e-05,-4.575e-05,1742092786.458816
0.00525,0.00725,0.2515,1.5250001e-05,1.5250001e-05,-6.1000002e-05,1742092786.4731112
0.00525,0.0075,0.2515,1.5250001e-05,1.5250001e-05,-6.1000002e-05,1742092786.4873831
0.0055,0.0075,0.2515,1.5250001e-05,3.0500001e-05,-6.1000002e-05,1742092786.501882
0.00575,0.0075,0.2515,0.0,3.0500001e-05,-7.625e-05,1742092786.51584
0.00575,0.00725,0.2515,0.0,1.5250001e-05,-6.1000002e-05,1742092786.5308611
0.00575,0.00725,0.2515,1.5250001e-05,0.0,-4.575e-05,1742092786.544445
0.00525,0.00725,0.25125,1.5250001e-05,0.0,-6.1000002e-05,1742092786.558804
0.00525,0.00725,0.25125,3.0500001e-05,0.0,-4.575e-05,1742092786.5732322
0.00525,0.00725,0.2515,3.0500001e-05,1.5250001e-05,-6.1000002e-05,1742092786.5875359
0.00525,0.0075,0.2515,1.5250001e-05,3.0500001e-05,-6.1000002e-05,1742092786.602296
0.00525,0.0075,0.2515,0.0,4.575e-05,-7.625e-05,1742092786.616234
0.00525,0.00725,0.25125,1.5250001e-05,3.0500001e-05,-6.1000002e-05,1742092786.630954
0.00525,0.00725,0.2515,1.5250001e-05,1.5250001e-05,-7.625e-05,1742092786.644907
0.006,0.00725,0.2515,0.0,1.5250001e-05,-7.625e-05,1742092786.6591942
0.00575,0.00725,0.25125,-1.5250001e-05,3.0500001e-05,-7.625e-05,1742092786.673528
0.00575,0.00725,0.2515,0.0,1.5250001e-05,-6.1000002e-05,1742092786.687814
0.00575,0.00725,0.2515,0.0,0.0,-6.1000002e-05,1742092786.702077
0.0055,0.00725,0.2515,0.0,1.5250001e-05,-6.1000002e-05,1742092786.7165198
0.00575,0.00725,0.25125,-1.5250001e-05,1.5250001e-05,-6.1000002e-05,1742092786.730908
0.0055,0.0075,0.25125,-1.5250001e-05,1.5250001e-05,-6.1000002e-05,1742092786.745307
0.0055,0.00725,0.25125,1.5250001e-05,1.5250001e-05,-7.625e-05,1742092786.760414
0.0055,0.0075,0.2515,3.0500001e-05,1.5250001e-05,-4.575e-05,1742092786.7738008
0.0055,0.0075,0.2515,1.5250001e-05,3.0500001e-05,-4.575e-05,1742092786.7881448
0.0055,0.0075,0.2515,1.5250001e-05,3.0500001e-05,-6.1000002e-05,1742092786.802567
0.00575,0.00725,0.2515,3.0500001e-05,0.0,-7.625e-05,1742092786.8169322
0.00575,0.00725,0.25125,1.5250001e-05,1.5250001e-05,-7.625e-05,1742092786.8311691
0.00575,0.00725,0.25125,1.5250001e-05,3.0500001e-05,-7.625e-05,1742092786.8454368
0.00525,0.0075,0.25125,1.5250001e-05,1.5250001e-05,-7.625e-05,1742092786.860833
0.00525,0.0075,0.25125,1.5250001e-05,1.5250001e-05,-6.1000002e-05,1742092786.87411
0.0055,0.00725,0.251,1.5250001e-05,3.0500001e-05,-4.575e-05,1742092786.888426
0.00525,0.00725,0.251,1.5250001e-05,3.0500001e-05,-6.1000002e-05,1742092786.90276
0.00525,0.0075,0.25125,3.0500001e-05,1.5250001e-05,-6.1000002e-05,1742092786.91696
0.00575,0.00725,0.2515,3.0500001e-05,0.0,-7.625e-05,1742092786.9311738
0.006,0.007,0.2515,1.5250001e-05,1.5250001e-05,-7.625e-05,1742092786.945432
0.006,0.00675,0.2515,1.5250001e-05,3.0500001e-05,-7.625e-05,1742092786.959766
0.00575,0.007,0.25125,3.0500001e-05,1.5250001e-05,-6.1000002e-05,1742092786.973888
0.0055,0.00725,0.25125,3.0500001e-05,0.0,-6.1000002e-05,1742092786.9881752
0.0055,0.00725,0.25125,1.5250001e-05,0.0,-6.1000002e-05,1742092787.002398
0.00525,0.0075,0.25125,-1.5250001e-05,1.5250001e-05,-7.625e-05,1742092787.0168371
0.0055,0.00725,0.25125,-1.5250001e-05,1.5250001e-05,-7.625e-05,1742092787.031265
0.0055,0.00725,0.25125,1.5250001e-05,3.0500001e-05,-7.625e-05,1742092787.0455759
0.00575,0.00725,0.2515,0.0,4.575e-05,-6.1000002e-05,1742092787.0598001
0.0055,0.00725,0.25175,1.5250001e-05,1.5250001e-05,-6.1000002e-05,1742092787.074223
0.00575,0.00725,0.25175,1.5250001e-05,0.0,-6.1000002e-05,1742092787.088484
0.00575,0.00725,0.2515,1.5250001e-05,1.5250001e-05,-4.575e-05,1742092787.1027489
0.0055,0.00725,0.25125,0.0,3.0500001e-05,-6.1000002e-05,1742092787.1169028
0.0055,0.0075,0.25125,1.5250001e-05,3.0500001e-05,-7.625e-05,1742092787.131211
0.0055,0.0075,0.25125,1.5250001e-05,3.0500001e-05,-6.1000002e-05,1742092787.145535
0.0055,0.00725,0.2515,0.0,3.0500001e-05,-6.1000002e-05,1742092787.159778
0.0055,0.00725,0.2515,0.0,3.0500001e-05,-6.1000002e-05,1742092787.174094
0.00575,0.0075,0.2515,0.0,3.0500001e-05,-7.625e-05,1742092787.1885471
0.006,0.00725,0.2515,1.5250001e-05,1.5250001e-05,-7.625e-05,1742092787.20283
0.00575,0.00725,0.2515,1.5250001e-05,0.0,-6.1000002e-05,1742092787.217197
0.0055,0.007,0.25125,1.5250001e-05,0.0,-6.1000002e-05,1742092787.231393
0.00525,0.00725,0.2515,0.0,1.5250001e-05,-6.1000002e-05,1742092787.245737
0.0055,0.00725,0.2515,0.0,1.5250001e-05,-6.1000002e-05,1742092787.2605388
0.0055,0.00725,0.25125,0.0,1.5250001e-05,-6.1000002e-05,1742092787.2743511
0.00575,0.00725,0.25125,0.0,1.5250001e-05,-6.1000002e-05,1742092787.2887292
0.00575,0.00725,0.25125,-1.5250001e-05,3.0500001e-05,-7.625e-05,1742092787.303116
0.0055,0.007,0.2515,0.0,1.5250001e-05,-4.575e-05,1742092787.31744
0.00575,0.00725,0.2515,1.5250001e-05,1.5250001e-05,-4.575e-05,1742092787.33173
0.00575,0.00725,0.25125,-1.5250001e-05,3.0500001e-05,-7.625e-05,1742092787.346047
0.0055,0.007,0.25125,-1.5250001e-05,3.0500001e-05,-7.625e-05,1742092787.361113
0.0055,0.00725,0.2515,1.5250001e-05,3.0500001e-05,-7.625e-05,1742092787.374629
0.0055,0.00725,0.252,1.5250001e-05,1.5250001e-05,-6.1000002e-05,1742092787.389018
0.0055,0.00725,0.25175,1.5250001e-05,1.5250001e-05,-6.1000002e-05,1742092787.403562
0.00525,0.00725,0.2515,3.0500001e-05,3.0500001e-05,-6.1000002e-05,1742092787.4179
0.00525,0.0075,0.25125,1.5250001e-05,3.0500001e-05,-7.625e-05,1742092787.432214
0.0055,0.0075,0.25125,1.5250001e-05,1.5250001e-05,-6.1000002e-05,1742092787.446496
0.0055,0.0075,0.2515,1.5250001e-05,1.5250001e-05,-4.575e-05,1742092787.460862
0.0055,0.00725,0.2515,0.0,1.5250001e-05,-4.575e-05,1742092787.475191
0.0055,0.00725,0.25125,0.0,1.5250001e-05,-6.1000002e-05,1742092787.489546
0.0055,0.0075,0.25125,1.5250001e-05,1.5250001e-05,-6.1000002e-05,1742092787.504061
0.0055,0.0075,0.2515,1.5250001e-05,0.0,-6.1000002e-05,1742092787.5184152
0.00575,0.00725,0.25175,0.0,-1.5250001e-05,-6.1000002e-05,1742092787.532903
0.0055,0.0075,0.2515,0.0,1.5250001e-05,-6.1000002e-05,1742092787.547203
0.00525,0.0075,0.25125,1.5250001e-05,1.5250001e-05,-6.1000002e-05,1742092787.5614522
0.0055,0.0075,0.25125,0.0,0.0,-6.1000002e-05,1742092787.575758
0.00575,0.007,0.2515,0.0,1.5250001e-05,-6.1000002e-05,1742092787.591174
0.00575,0.007,0.2515,1.5250001e-05,1.5250001e-05,-6.1000002e-05,1742092787.6042671
0.00575,0.00725,0.2515,1.5250001e-05,1.5250001e-05,-4.575e-05,1742092787.618536
0.00575,0.007,0.2515,1.5250001e-05,1.5250001e-05,-4.575e-05,1742092787.6329322
0.00575,0.007,0.2515,1.5250001e-05,0.0,-4.575e-05,1742092787.647226
0.00575,0.00725,0.25125,0.0,1.5250001e-05,-6.1000002e-05,1742092787.661566
0.0055,0.00725,0.25125,0.0,3.0500001e-05,-6.1000002e-05,1742092787.6758962
0.0055,0.0075,0.25175,0.0,3.0500001e-05,-4.575e-05,1742092787.691139
0.00575,0.00725,0.25175,1.5250001e-05,1.5250001e-05,-4.575e-05,1742092787.704374
0.006,0.007,0.25175,3.0500001e-05,1.5250001e-05,-7.625e-05,1742092787.7187479
0.00575,0.007,0.25125,1.5250001e-05,3.0500001e-05,-6.1000002e-05,1742092787.7331488
0.00575,0.007,0.251,3.0500001e-05,1.5250001e-05,-6.1000002e-05,1742092787.747424
0.00575,0.00725,0.25125,3.0500001e-05,1.5250001e-05,-6.1000002e-05,1742092787.7617211
0.00575,0.007,0.25125,1.5250001e-05,1.5250001e-05,-9.15e-05,1742092787.7759192
0.00575,0.00725,0.2515,1.5250001e-05,3.0500001e-05,-9.15e-05,1742092787.7905018
0.00575,0.00725,0.2515,1.5250001e-05,3.0500001e-05,-7.625e-05,1742092787.804471
0.00525,0.00725,0.25125,1.5250001e-05,1.5250001e-05,-4.575e-05,1742092787.818741
0.00525,0.00725,0.25125,0.0,1.5250001e-05,-6.1000002e-05,1742092787.8328938
0.00525,0.00725,0.25125,1.5250001e-05,3.0500001e-05,-7.625e-05,1742092787.847213
0.0055,0.0075,0.2515,1.5250001e-05,1.5250001e-05,-7.625e-05,1742092787.8615181
0.00575,0.0075,0.2515,1.5250001e-05,1.5250001e-05,-6.1000002e-05,1742092787.8758981
0.0055,0.00725,0.2515,1.5250001e-05,1.5250001e-05,-4.575e-05,1742092787.890997
0.00575,0.007,0.2515,1.5250001e-05,0.0,-4.575e-05,1742092787.904636
0.00575,0.007,0.2515,1.5250001e-05,1.5250001e-05,-6.1000002e-05,1742092787.9189272
0.00575,0.00725,0.2515,1.5250001e-05,1.5250001e-05,-4.575e-05,1742092787.9333918
0.00575,0.00725,0.25175,0.0,1.5250001e-05,-4.575e-05,1742092787.947712
0.00525,0.0075,0.2515,1.5250001e-05,1.5250001e-05,-6.1000002e-05,1742092787.962027
0.0055,0.0075,0.25125,1.5250001e-05,1.5250001e-05,-6.1000002e-05,1742092787.976209
0.00575,0.0075,0.2515,1.5250001e-05,3.0500001e-05,-6.1000002e-05,1742092787.991092
0.00575,0.0075,0.2515,1.5250001e-05,3.0500001e-05,-6.1000002e-05,1742092788.0047412
0.0055,0.0075,0.25125,0.0,1.5250001e-05,-4.575e-05,1742092788.018987
0.00525,0.00725,0.25125,0.0,1.5250001e-05,-4.575e-05,1742092788.033209
0.00525,0.00725,0.2515,0.0,0.0,-6.1000002e-05,1742092788.047504
0.0055,0.00725,0.25125,1.5250001e-05,0.0,-7.625e-05,1742092788.0617101
0.0055,0.00725,0.25125,3.0500001e-05,0.0,-6.1000002e-05,1742092788.0758772
0.0055,0.0075,0.25125,0.0,1.5250001e-05,-6.1000002e-05,1742092788.090613
0.00575,0.00725,0.2515,0.0,3.0500001e-05,-6.1000002e-05,1742092788.1044228
0.00575,0.00725,0.2515,3.0500001e-05,1.5250001e-05,-4.575e-05,1742092788.1187048
0.00575,0.007,0.25125,3.0500001e-05,1.5250001e-05,-4.575e-05,1742092788.132909
0.00575,0.007,0.2515,3.0500001e-05,1.5250001e-05,-6.1000002e-05,1742092788.147209
0.00575,0.00725,0.2515,1.5250001e-05,1.5250001e-05,-6.1000002e-05,1742092788.1615071
0.00575,0.0075,0.2515,0.0,0.0,-6.1000002e-05,1742092788.1757839
0.00575,0.0075,0.2515,-1.5250001e-05,1.5250001e-05,-4.575e-05,1742092788.1906729
0.00575,0.00725,0.251,-1.5250001e-05,3.0500001e-05,-6.1000002e-05,1742092788.204632
0.0055,0.00725,0.25125,1.5250001e-05,3.0500001e-05,-6.1000002e-05,1742092788.2188869
0.0055,0.00725,0.2515,1.5250001e-05,1.5250001e-05,-4.575e-05,1742092788.2331169
0.00525,0.0075,0.25175,0.0,1.5250001e-05,-7.625e-05,1742092788.247343
0.0055,0.00775,0.25125,0.0,1.5250001e-05,-7.625e-05,1742092788.261624
0.00575,0.00775,0.25125,0.0,1.5250001e-05,-7.625e-05,1742092788.275916
0.00575,0.0075,0.25125,1.5250001e-05,3.0500001e-05,-6.1000002e-05,1742092788.29105
0.0055,0.00725,0.25125,3.0500001e-05,3.0500001e-05,-4.575e-05,1742092788.30455
0.0055,0.00725,0.25125,1.5250001e-05,0.0,-6.1000002e-05,1742092788.319017
0.00575,0.00725,0.25125,0.0,0.0,-6.1000002e-05,1742092788.333201
0.00575,0.0075,0.2515,1.5250001e-05,0.0,-6.1000002e-05,1742092788.3475718
0.0055,0.00725,0.2515,1.5250001e-05,1.5250001e-05,-6.1000002e-05,1742092788.3620338
0.0055,0.0075,0.2515,1.5250001e-05,1.5250001e-05,-6.1000002e-05,1742092788.3762078
0.00525,0.0075,0.2515,0.0,1.5250001e-05,-7.625e-05,1742092788.391061
0.0055,0.00725,0.25125,0.0,1.5250001e-05,-6.1000002e-05,1742092788.4048629
0.0055,0.00725,0.2515,1.5250001e-05,0.0,-6.1000002e-05,1742092788.419178
0.00575,0.00725,0.25125,1.5250001e-05,1.5250001e-05,-6.1000002e-05,1742092788.433537
0.00575,0.0075,0.25125,1.5250001e-05,1.5250001e-05,-6.1000002e-05,1742092788.447946
0.00575,0.0075,0.25175,1.5250001e-05,3.0500001e-05,-7.625e-05,1742092788.462175
0.006,0.00725,0.25175,0.0,3.0500001e-05,-9.15e-05,1742092788.476413
0.00575,0.00725,0.2515,0.0,3.0500001e-05,-6.1000002e-05,1742092788.4910452
0.00525,0.007,0.25125,1.5250001e-05,1.5250001e-05,-4.575e-05,1742092788.505016
0.00575,0.00725,0.2515,1.5250001e-05,1.5250001e-05,-6.1000002e-05,1742092788.520423
0.00575,0.0075,0.2515,0.0,1.5250001e-05,-6.1000002e-05,1742092788.5338519
0.00575,0.0075,0.2515,0.0,1.5250001e-05,-7.625e-05,1742092788.548239
0.0055,0.00725,0.2515,0.0,1.5250001e-05,-7.625e-05,1742092788.562583
0.00525,0.00725,0.2515,0.0,1.5250001e-05,-6.1000002e-05,1742092788.5769
0.00525,0.007,0.2515,1.5250001e-05,1.5250001e-05,-6.1000002e-05,1742092788.591224
0.006,0.0075,0.2515,3.0500001e-05,1.5250001e-05,-4.575e-05,1742092788.605518
0.00575,0.0075,0.2515,1.5250001e-05,1.5250001e-05,-4.575e-05,1742092788.620456
0.0055,0.0075,0.25125,1.5250001e-05,1.5250001e-05,-6.1000002e-05,1742092788.634156
0.0055,0.00725,0.2515,0.0,3.0500001e-05,-7.625e-05,1742092788.648322
0.0055,0.0075,0.25175,1.5250001e-05,3.0500001e-05,-7.625e-05,1742092788.662719
0.00525,0.0075,0.2515,3.0500001e-05,1.5250001e-05,-7.625e-05,1742092788.677126
0.00525,0.0075,0.25125,1.5250001e-05,3.0500001e-05,-6.1000002e-05,1742092788.6914098
0.0055,0.00725,0.25125,0.0,1.5250001e-05,-6.1000002e-05,1742092788.7057438
0.0055,0.00725,0.25125,1.5250001e-05,1.5250001e-05,-6.1000002e-05,1742092788.720593
0.0055,0.00725,0.25125,3.0500001e-05,1.5250001e-05,-6.1000002e-05,1742092788.734305
0.0055,0.00725,0.251,1.5250001e-05,1.5250001e-05,-4.575e-05,1742092788.748597
0.00525,0.0075,0.25125,1.5250001e-05,1.5250001e-05,-4.575e-05,1742092788.76291
0.0055,0.0075,0.25125,1.5250001e-05,1.5250001e-05,-6.1000002e-05,1742092788.777389
0.00575,0.0075,0.2515,3.0500001e-05,1.5250001e-05,-9.15e-05,1742092788.7917
0.0055,0.00725,0.25125,3.0500001e-05,3.0500001e-05,-9.15e-05,1742092788.806129
0.0055,0.00725,0.25125,1.5250001e-05,4.575e-05,-6.1000002e-05,1742092788.820935
0.00525,0.0075,0.25125,1.5250001e-05,3.0500001e-05,-6.1000002e-05,1742092788.834649
0.00525,0.0075,0.25125,3.0500001e-05,0.0,-6.1000002e-05,1742092788.848942
0.0055,0.0075,0.2515,3.0500001e-05,1.5250001e-05,-6.1000002e-05,1742092788.863192
0.00525,0.0075,0.2515,1.5250001e-05,3.0500001e-05,-6.1000002e-05,1742092788.8774242
0.00525,0.00725,0.2515,1.5250001e-05,3.0500001e-05,-6.1000002e-05,1742092788.8916328
0.00575,0.007,0.25125,1.5250001e-05,1.5250001e-05,-6.1000002e-05,1742092788.905922
0.00575,0.00725,0.2515,0.0,1.5250001e-05,-7.625e-05,1742092788.921095
0.0055,0.00775,0.25175,0.0,0.0,-6.1000002e-05,1742092788.934331
0.00525,0.00775,0.25125,1.5250001e-05,0.0,-4.575e-05,1742092788.948624
0.005,0.00775,0.251,1.5250001e-05,0.0,-4.575e-05,1742092788.962871
0.00525,0.0075,0.25125,3.0500001e-05,1.5250001e-05,-6.1000002e-05,1742092788.977097
0.00575,0.0075,0.2515,1.5250001e-05,3.0500001e-05,-7.625e-05,1742092788.991341
0.006,0.007,0.2515,1.5250001e-05,3.0500001e-05,-6.1000002e-05,1742092789.005654
0.006,0.00675,0.2515,3.0500001e-05,0.0,-4.575e-05,1742092789.02098
0.00575,0.00675,0.2515,4.575e-05,0.0,-4.575e-05,1742092789.034118
0.0055,0.007,0.25175,3.0500001e-05,0.0,-6.1000002e-05,1742092789.0483992
0.0055,0.00725,0.25175,0.0,3.0500001e-05,-7.625e-05,1742092789.062572
0.0055,0.0075,0.2515,0.0,1.5250001e-05,-6.1000002e-05,1742092789.0769138
0.00525,0.0075,0.25125,0.0,1.5250001e-05,-6.1000002e-05,1742092789.0911129
0.00525,0.0075,0.25075,1.5250001e-05,1.5250001e-05,-6.1000002e-05,1742092789.105344
0.0055,0.00725,0.25075,3.0500001e-05,1.5250001e-05,-6.1000002e-05,1742092789.119638
0.00575,0.007,0.25125,1.5250001e-05,0.0,-6.1000002e-05,1742092789.133882
0.00575,0.007,0.25125,0.0,0.0,-6.1000002e-05,1742092789.148088
0.00575,0.00725,0.25125,0.0,1.5250001e-05,-6.1000002e-05,1742092789.162505
0.0055,0.008,0.2515,1.5250001e-05,1.5250001e-05,-6.1000002e-05,1742092789.176878
0.00525,0.0075,0.2515,3.0500001e-05,1.5250001e-05,-4.575e-05,1742092789.191183
0.00525,0.0075,0.2515,1.5250001e-05,1.5250001e-05,-6.1000002e-05,1742092789.2054322
0.00525,0.0075,0.25125,0.0,3.0500001e-05,-7.625e-05,1742092789.2197618
0.0055,0.00725,0.2515,0.0,1.5250001e-05,-7.625e-05,1742092789.234015
0.00575,0.00725,0.2515,1.5250001e-05,3.0500001e-05,-6.1000002e-05,1742092789.248317
0.00575,0.00725,0.2515,1.5250001e-05,3.0500001e-05,-6.1000002e-05,1742092789.262586
0.0055,0.00725,0.2515,1.5250001e-05,1.5250001e-05,-6.1000002e-05,1742092789.276892
0.0055,0.007,0.25125,0.0,1.5250001e-05,-7.625e-05,1742092789.291182
0.00575,0.007,0.2515,1.5250001e-05,1.5250001e-05,-7.625e-05,1742092789.305484
0.0055,0.00725,0.2515,3.0500001e-05,0.0,-4.575e-05,1742092789.320371
0.00525,0.0075,0.25125,1.5250001e-05,0.0,-4.575e-05,1742092789.334056
0.005,0.0075,0.25125,0.0,1.5250001e-05,-6.1000002e-05,1742092789.3483038
0.00475,0.0075,0.25125,1.5250001e-05,1.5250001e-05,-6.1000002e-05,1742092789.362601
0.0055,0.0075,0.2515,1.5250001e-05,3.0500001e-05,-6.1000002e-05,1742092789.376884
0.0055,0.0075,0.25125,1.5250001e-05,3.0500001e-05,-4.575e-05,1742092789.391084
0.00525,0.00725,0.2515,1.5250001e-05,1.5250001e-05,-4.575e-05,1742092789.405348
0.0055,0.007,0.2515,1.5250001e-05,1.5250001e-05,-4.575e-05,1742092789.419615
0.006,0.00675,0.25125,1.5250001e-05,1.5250001e-05,-4.575e-05,1742092789.4339101
0.006,0.007,0.2515,1.5250001e-05,1.5250001e-05,-4.575e-05,1742092789.4482062
0.006,0.007,0.2515,0.0,0.0,-4.575e-05,1742092789.462553
0.0055,0.00775,0.2515,-1.5250001e-05,0.0,-4.575e-05,1742092789.476877
0.005,0.008,0.25125,3.0500001e-05,0.0,-6.1000002e-05,1742092789.4910378
0.005,0.008,0.2515,3.0500001e-05,1.5250001e-05,-6.1000002e-05,1742092789.505323
0.00525,0.00775,0.25125,3.0500001e-05,1.5250001e-05,-6.1000002e-05,1742092789.519579
0.00575,0.007,0.25125,0.0,4.575e-05,-7.625e-05,1742092789.5338721
0.00575,0.00675,0.2515,0.0,3.0500001e-05,-7.625e-05,1742092789.548077
0.00575,0.007,0.2515,1.5250001e-05,1.5250001e-05,-6.1000002e-05,1742092789.562498
0.00575,0.00725,0.2515,1.5250001e-05,3.0500001e-05,-6.1000002e-05,1742092789.5769322
0.00575,0.0075,0.2515,0.0,1.5250001e-05,-4.575e-05,1742092789.591178
0.0055,0.0075,0.2515,0.0,0.0,-4.575e-05,1742092789.605443
0.00525,0.0075,0.2515,1.5250001e-05,0.0,-4.575e-05,1742092789.61974
0.00525,0.00775,0.25125,0.0,1.5250001e-05,-6.1000002e-05,1742092789.633992
0.0055,0.00775,0.25125,0.0,1.5250001e-05,-7.625e-05,1742092789.648313
0.00575,0.0075,0.2515,1.5250001e-05,1.5250001e-05,-7.625e-05,1742092789.662613
0.0055,0.00675,0.25175,1.5250001e-05,1.5250001e-05,-6.1000002e-05,1742092789.676922
0.00525,0.007,0.25175,3.0500001e-05,3.0500001e-05,-4.575e-05,1742092789.6911201
0.005,0.007,0.25125,3.0500001e-05,3.0500001e-05,-6.1000002e-05,1742092789.705506
0.00525,0.00725,0.25125,3.0500001e-05,1.5250001e-05,-6.1000002e-05,1742092789.720938
0.00525,0.00725,0.2515,1.5250001e-05,0.0,-4.575e-05,1742092789.734331
0.00525,0.0075,0.25175,0.0,0.0,-4.575e-05,1742092789.748534
0.00525,0.0075,0.25125,1.5250001e-05,0.0,-6.1000002e-05,1742092789.762787
0.00525,0.008,0.25125,1.5250001e-05,1.5250001e-05,-6.1000002e-05,1742092789.777121
0.0055,0.00775,0.25125,3.0500001e-05,1.5250001e-05,-6.1000002e-05,1742092789.79153
0.00575,0.007,0.25175,3.0500001e-05,1.5250001e-05,-6.1000002e-05,1742092789.8059158
0.00575,0.00675,0.25175,1.5250001e-05,1.5250001e-05,-7.625e-05,1742092789.821079
0.00575,0.007,0.2515,0.0,1.5250001e-05,-6.1000002e-05,1742092789.834722
0.00575,0.00675,0.2515,0.0,1.5250001e-05,-6.1000002e-05,1742092789.8488462
0.00575,0.00675,0.2515,0.0,3.0500001e-05,-7.625e-05,1742092789.863071
0.006,0.00725,0.25125,0.0,1.5250001e-05,-7.625e-05,1742092789.8773959
0.0055,0.0075,0.25125,1.5250001e-05,1.5250001e-05,-4.575e-05,1742092789.891587
0.005,0.008,0.25125,1.5250001e-05,1.5250001e-05,-4.575e-05,1742092789.90588
0.00475,0.008,0.25125,0.0,1.5250001e-05,-4.575e-05,1742092789.921094
0.00475,0.00775,0.251,0.0,1.5250001e-05,-7.625e-05,1742092789.9345322
0.0055,0.0075,0.25125,1.5250001e-05,3.0500001e-05,-6.1000002e-05,1742092789.948855
0.00575,0.00725,0.2515,3.0500001e-05,0.0,-4.575e-05,1742092789.9630878
0.00575,0.00725,0.2515,1.5250001e-05,0.0,-4.575e-05,1742092789.977512
0.0055,0.00725,0.2515,1.5250001e-05,1.5250001e-05,-6.1000002e-05,1742092789.992142
0.00525,0.007,0.25175,1.5250001e-05,1.5250001e-05,-7.625e-05,1742092790.0065558
0.00525,0.00725,0.25175,0.0,1.5250001e-05,-6.1000002e-05,1742092790.0206661
0.0055,0.0075,0.25125,0.0,0.0,-6.1000002e-05,1742092790.034975
0.0055,0.00775,0.25125,1.5250001e-05,0.0,-6.1000002e-05,1742092790.049045
0.0055,0.00775,0.2515,0.0,3.0500001e-05,-7.625e-05,1742092790.063321
0.00525,0.00725,0.2515,0.0,1.5250001e-05,-9.15e-05,1742092790.077601
0.0055,0.00725,0.25125,0.0,1.5250001e-05,-6.1000002e-05,1742092790.091871
0.0055,0.007,0.25175,1.5250001e-05,1.5250001e-05,-6.1000002e-05,1742092790.106078
0.0055,0.007,0.25175,0.0,1.5250001e-05,-4.575e-05,1742092790.121015
0.0055,0.00725,0.25125,-1.5250001e-05,3.0500001e-05,-6.1000002e-05,1742092790.1347232
0.0055,0.0075,0.25125,0.0,3.0500001e-05,-6.1000002e-05,1742092790.148895
0.00525,0.00725,0.2515,3.0500001e-05,1.5250001e-05,-6.1000002e-05,1742092790.163081
0.0055,0.0075,0.2515,1.5250001e-05,3.0500001e-05,-7.625e-05,1742092790.177522
0.0055,0.0075,0.2515,0.0,3.0500001e-05,-7.625e-05,1742092790.191767
0.00575,0.0075,0.25125,1.5250001e-05,1.5250001e-05,-6.1000002e-05,1742092790.2060852
0.00575,0.0075,0.25125,1.5250001e-05,1.5250001e-05,-6.1000002e-05,1742092790.221066
0.00575,0.0075,0.2515,1.5250001e-05,1.5250001e-05,-6.1000002e-05,1742092790.234772
0.00575,0.00725,0.2515,1.5250001e-05,1.5250001e-05,-6.1000002e-05,1742092790.249034
0.00575,0.00725,0.25175,0.0,1.5250001e-05,-4.575e-05,1742092790.263396
0.0055,0.00725,0.25175,0.0,1.5250001e-05,-6.1000002e-05,1742092790.277729
0.00525,0.0075,0.2515,3.0500001e-05,0.0,-6.1000002e-05,1742092790.291986
0.005,0.0075,0.25125,3.0500001e-05,0.0,-6.1000002e-05,1742092790.3063092
0.005,0.0075,0.25125,3.0500001e-05,1.5250001e-05,-6.1000002e-05,1742092790.321105
0.005,0.0075,0.251,1.5250001e-05,3.0500001e-05,-6.1000002e-05,1742092790.3349051
0.00575,0.00725,0.2515,1.5250001e-05,1.5250001e-05,-7.625e-05,1742092790.3494139
0.00575,0.007,0.25175,1.5250001e-05,0.0,-7.625e-05,1742092790.363699
0.00575,0.00725,0.25125,1.5250001e-05,1.5250001e-05,-7.625e-05,1742092790.377865
0.0055,0.00725,0.2515,3.0500001e-05,1.5250001e-05,-4.575e-05,1742092790.392075
0.00575,0.0075,0.2515,1.5250001e-05,1.5250001e-05,-4.575e-05,1742092790.406386
0.00575,0.0075,0.25125,1.5250001e-05,1.5250001e-05,-4.575e-05,1742092790.42143
0.0055,0.0075,0.25125,0.0,1.5250001e-05,-7.625e-05,1742092790.435081
0.00525,0.00725,0.25125,0.0,1.5250001e-05,-7.625e-05,1742092790.4494798
0.00525,0.00725,0.25125,0.0,3.0500001e-05,-7.625e-05,1742092790.463775
0.0055,0.00725,0.25175,0.0,3.0500001e-05,-6.1000002e-05,1742092790.4780889
0.0055,0.0075,0.25175,0.0,1.5250001e-05,-7.625e-05,1742092790.492426
0.0055,0.007,0.2515,1.5250001e-05,1.5250001e-05,-7.625e-05,1742092790.506815
0.0055,0.00725,0.2515,1.5250001e-05,1.5250001e-05,-6.1000002e-05,1742092790.521067
0.0055,0.00725,0.25125,1.5250001e-05,0.0,-4.575e-05,1742092790.535485
0.00575,0.0075,0.2515,1.5250001e-05,0.0,-6.1000002e-05,1742092790.551661
0.00575,0.0075,0.2515,1.5250001e-05,3.0500001e-05,-9.15e-05,1742092790.56432
0.0055,0.0075,0.251,1.5250001e-05,1.5250001e-05,-7.625e-05,1742092790.5786219
0.0055,0.0075,0.251,1.5250001e-05,1.5250001e-05,-3.0500001e-05,1742092790.592906
0.0055,0.007,0.2515,0.0,3.0500001e-05,-4.575e-05,1742092790.6070662
0.0055,0.007,0.2515,0.0,3.0500001e-05,-6.1000002e-05,1742092790.621391
0.0055,0.007,0.2515,1.5250001e-05,3.0500001e-05,-7.625e-05,1742092790.6357498
0.00525,0.007,0.25125,0.0,1.5250001e-05,-4.575e-05,1742092790.6508532
0.0055,0.007,0.2515,1.5250001e-05,0.0,-4.575e-05,1742092790.6644511
0.0055,0.00725,0.25125,1.5250001e-05,1.5250001e-05,-4.575e-05,1742092790.6788712
0.0055,0.0075,0.2515,1.5250001e-05,0.0,-6.1000002e-05,1742092790.693082
0.0055,0.0075,0.25125,0.0,1.5250001e-05,-6.1000002e-05,1742092790.707488
0.0055,0.0075,0.25125,0.0,3.0500001e-05,-4.575e-05,1742092790.7219079
0.0055,0.0075,0.2515,1.5250001e-05,3.0500001e-05,-6.1000002e-05,1742092790.736081
0.0055,0.0075,0.2515,1.5250001e-05,3.0500001e-05,-6.1000002e-05,1742092790.7518048
0.00575,0.00725,0.25125,1.5250001e-05,1.5250001e-05,-4.575e-05,1742092790.7649221
0.006,0.007,0.2515,1.5250001e-05,1.5250001e-05,-4.575e-05,1742092790.7791831
0.00575,0.007,0.2515,1.5250001e-05,1.5250001e-05,-6.1000002e-05,1742092790.793492
0.00575,0.00725,0.2515,0.0,1.5250001e-05,-6.1000002e-05,1742092790.807879
0.00575,0.00725,0.2515,1.5250001e-05,1.5250001e-05,-6.1000002e-05,1742092790.822104
0.0055,0.00725,0.25125,0.0,1.5250001e-05,-6.1000002e-05,1742092790.836429
0.00525,0.0075,0.25125,0.0,1.5250001e-05,-6.1000002e-05,1742092790.851975
0.00525,0.00725,0.25125,0.0,1.5250001e-05,-7.625e-05,1742092790.864856
0.00575,0.0075,0.2515,0.0,1.5250001e-05,-7.625e-05,1742092790.879082
0.0055,0.0075,0.25175,1.5250001e-05,3.0500001e-05,-6.1000002e-05,1742092790.893384
0.0055,0.00725,0.2515,0.0,3.0500001e-05,-6.1000002e-05,1742092790.907702
0.0055,0.007,0.2515,0.0,3.0500001e-05,-6.1000002e-05,1742092790.921969
0.0055,0.00675,0.2515,1.5250001e-05,1.5250001e-05,-4.575e-05,1742092790.936374
0.0055,0.007,0.2515,1.5250001e-05,1.5250001e-05,-4.575e-05,1742092790.9515991
0.0055,0.00725,0.2515,1.5250001e-05,3.0500001e-05,-4.575e-05,1742092790.965173
0.0055,0.00725,0.2515,1.5250001e-05,3.0500001e-05,-6.1000002e-05,1742092790.979508
0.0055,0.0075,0.2515,1.5250001e-05,3.0500001e-05,-7.625e-05,1742092790.9939141
0.0055,0.00725,0.2515,1.5250001e-05,1.5250001e-05,-7.625e-05,1742092791.0084522
0.0055,0.0075,0.25175,0.0,1.5250001e-05,-6.1000002e-05,1742092791.022493
0.00575,0.0075,0.2515,1.5250001e-05,0.0,-6.1000002e-05,1742092791.037001
0.006,0.007,0.25125,1.5250001e-05,1.5250001e-05,-7.625e-05,1742092791.051568
0.00575,0.00725,0.2515,1.5250001e-05,3.0500001e-05,-6.1000002e-05,1742092791.0656042
0.0055,0.00725,0.2515,1.5250001e-05,3.0500001e-05,-6.1000002e-05,1742092791.079875
0.0055,0.00725,0.2515,1.5250001e-05,1.5250001e-05,-6.1000002e-05,1742092791.094103
0.0055,0.00725,0.25125,1.5250001e-05,1.5250001e-05,-4.575e-05,1742092791.1087859
0.0055,0.0075,0.2515,1.5250001e-05,3.0500001e-05,-3.0500001e-05,1742092791.122974
0.0055,0.00725,0.2515,3.0500001e-05,3.0500001e-05,-6.1000002e-05,1742092791.137263
0.0055,0.00725,0.25125,3.0500001e-05,3.0500001e-05,-6.1000002e-05,1742092791.152483
0.0055,0.0075,0.25125,1.5250001e-05,1.5250001e-05,-6.1000002e-05,1742092791.1659808
0.00525,0.0075,0.25125,0.0,1.5250001e-05,-6.1000002e-05,1742092791.180809
0.00525,0.0075,0.2515,0.0,1.5250001e-05,-6.1000002e-05,1742092791.194697
0.0055,0.0075,0.25125,0.0,0.0,-6.1000002e-05,1742092791.208948
0.0055,0.00775,0.25125,1.5250001e-05,0.0,-7.625e-05,1742092791.2232552
0.0055,0.0075,0.25125,1.5250001e-05,3.0500001e-05,-7.625e-05,1742092791.237563
0.00525,0.00725,0.25125,1.5250001e-05,3.0500001e-05,-6.1000002e-05,1742092791.25185
0.0055,0.00725,0.2515,0.0,1.5250001e-05,-6.1000002e-05,1742092791.266023
0.0055,0.00725,0.2515,1.5250001e-05,1.5250001e-05,-6.1000002e-05,1742092791.2806988
0.00525,0.00725,0.25125,1.5250001e-05,3.0500001e-05,-4.575e-05,1742092791.294572
0.00525,0.00725,0.25125,1.5250001e-05,3.0500001e-05,-6.1000002e-05,1742092791.3089888
0.0055,0.00725,0.2515,0.0,1.5250001e-05,-7.625e-05,1742092791.3232698
0.0055,0.00725,0.25175,1.5250001e-05,1.5250001e-05,-6.1000002e-05,1742092791.337562
0.00525,0.0075,0.2515,0.0,1.5250001e-05,-6.1000002e-05,1742092791.351844
0.00525,0.00725,0.2515,-1.5250001e-05,1.5250001e-05,-6.1000002e-05,1742092791.3661509
0.00525,0.007,0.2515,0.0,1.5250001e-05,-6.1000002e-05,1742092791.380695
0.0055,0.00725,0.25125,0.0,1.5250001e-05,-4.575e-05,1742092791.394897
0.00575,0.0075,0.2515,0.0,1.5250001e-05,-6.1000002e-05,1742092791.409167
0.0055,0.0075,0.2515,1.5250001e-05,1.5250001e-05,-6.1000002e-05,1742092791.423581
0.0055,0.0075,0.2515,1.5250001e-05,1.5250001e-05,-7.625e-05,1742092791.437941
0.0055,0.00725,0.25125,0.0,1.5250001e-05,-6.1000002e-05,1742092791.452157
0.0055,0.00725,0.25125,3.0500001e-05,3.0500001e-05,-4.575e-05,1742092791.466409
0.00525,0.00725,0.25175,1.5250001e-05,1.5250001e-05,-4.575e-05,1742092791.4815621
0.00525,0.0075,0.2515,0.0,1.5250001e-05,-7.625e-05,1742092791.4950788
0.00525,0.00775,0.25125,0.0,1.5250001e-05,-7.625e-05,1742092791.5103428
0.00525,0.00775,0.2515,0.0,1.5250001e-05,-7.625e-05,1742092791.52369
0.0055,0.0075,0.2515,3.0500001e-05,1.5250001e-05,-6.1000002e-05,1742092791.537994
0.0055,0.0075,0.2515,3.0500001e-05,1.5250001e-05,-4.575e-05,1742092791.552295
0.00575,0.00725,0.2515,0.0,3.0500001e-05,-6.1000002e-05,1742092791.566613
0.0055,0.0075,0.2515,0.0,3.0500001e-05,-6.1000002e-05,1742092791.580978
0.0055,0.00725,0.25175,1.5250001e-05,3.0500001e-05,-4.575e-05,1742092791.595127
0.006,0.00675,0.2515,1.5250001e-05,3.0500001e-05,-4.575e-05,1742092791.6093812
0.00575,0.007,0.25125,1.5250001e-05,3.0500001e-05,-4.575e-05,1742092791.623602
0.0055,0.00725,0.2515,1.5250001e-05,1.5250001e-05,-6.1000002e-05,1742092791.637939
0.00525,0.0075,0.2515,1.5250001e-05,1.5250001e-05,-6.1000002e-05,1742092791.652558
0.00525,0.0075,0.2515,0.0,1.5250001e-05,-6.1000002e-05,1742092791.6665971
0.005,0.00775,0.25125,0.0,1.5250001e-05,-6.1000002e-05,1742092791.68111
0.00525,0.0075,0.25125,1.5250001e-05,1.5250001e-05,-6.1000002e-05,1742092791.695134
0.0055,0.00725,0.25125,1.5250001e-05,1.5250001e-05,-7.625e-05,1742092791.710746
0.00575,0.00725,0.25125,3.0500001e-05,3.0500001e-05,-6.1000002e-05,1742092791.7239969
0.00575,0.00725,0.25125,0.0,1.5250001e-05,-6.1000002e-05,1742092791.7385201
0.0055,0.0075,0.25125,0.0,1.5250001e-05,-6.1000002e-05,1742092791.7527921
0.00525,0.00725,0.25125,1.5250001e-05,1.5250001e-05,-4.575e-05,1742092791.767075
0.0055,0.0075,0.2515,1.5250001e-05,3.0500001e-05,-3.0500001e-05,1742092791.7816021
0.0055,0.0075,0.25175,1.5250001e-05,1.5250001e-05,-6.1000002e-05,1742092791.796129
0.0055,0.00725,0.2515,3.0500001e-05,1.5250001e-05,-6.1000002e-05,1742092791.81108
0.0055,0.007,0.2515,3.0500001e-05,3.0500001e-05,-4.575e-05,1742092791.824685
0.0055,0.007,0.2515,1.5250001e-05,3.0500001e-05,-4.575e-05,1742092791.838979
0.0055,0.00725,0.2515,0.0,1.5250001e-05,-6.1000002e-05,1742092791.853513
0.00525,0.0075,0.25125,1.5250001e-05,0.0,-6.1000002e-05,1742092791.8677912
0.00525,0.00725,0.25125,0.0,1.5250001e-05,-6.1000002e-05,1742092791.8820622
0.005,0.0075,0.25125,0.0,1.5250001e-05,-6.1000002e-05,1742092791.89645
0.00525,0.00725,0.25125,0.0,3.0500001e-05,-6.1000002e-05,1742092791.911456
0.00575,0.00725,0.2515,1.5250001e-05,3.0500001e-05,-4.575e-05,1742092791.925048
0.00575,0.00725,0.2515,3.0500001e-05,1.5250001e-05,-6.1000002e-05,1742092791.939378
0.00575,0.00725,0.25175,1.5250001e-05,1.5250001e-05,-6.1000002e-05,1742092791.953682
0.00575,0.00725,0.25175,-1.5250001e-05,3.0500001e-05,-4.575e-05,1742092791.968073
0.00575,0.00725,0.2515,-1.5250001e-05,3.0500001e-05,-4.575e-05,1742092791.982469
0.00525,0.00725,0.25125,0.0,0.0,-7.625e-05,1742092791.996788
0.00525,0.00775,0.2515,0.0,0.0,-7.625e-05,1742092792.011273
0.0055,0.00775,0.25175,1.5250001e-05,0.0,-6.1000002e-05,1742092792.0253282
0.0055,0.0075,0.2515,0.0,0.0,-6.1000002e-05,1742092792.040568
0.00525,0.0075,0.2515,0.0,1.5250001e-05,-6.1000002e-05,1742092792.0537589
0.0055,0.00725,0.2515,1.5250001e-05,1.5250001e-05,-7.625e-05,1742092792.068085
0.00575,0.00725,0.2515,0.0,3.0500001e-05,-6.1000002e-05,1742092792.0835872
0.0055,0.0075,0.2515,0.0,3.0500001e-05,-6.1000002e-05,1742092792.096986
0.00575,0.0075,0.2515,1.5250001e-05,3.0500001e-05,-6.1000002e-05,1742092792.1113348
0.00575,0.00725,0.25175,0.0,3.0500001e-05,-7.625e-05,1742092792.125597
0.00575,0.00725,0.252,-1.5250001e-05,0.0,-6.1000002e-05,1742092792.1407459
0.0055,0.007,0.252,-1.5250001e-05,-1.5250001e-05,-6.1000002e-05,1742092792.1544771
0.0055,0.007,0.25225,0.0,-3.0500001e-05,-4.575e-05,1742092792.16887
0.0055,0.00675,0.252,0.0,-4.575e-05,-3.0500001e-05,1742092792.1831949
0.00575,0.00675,0.25175,-1.5250001e-05,-4.575e-05,-4.575e-05,1742092792.197679
0.00525,0.00725,0.2515,-1.5250001e-05,-3.0500001e-05,-7.625e-05,1742092792.212276
0.005,0.0075,0.25125,-1.5250001e-05,-3.0500001e-05,-7.625e-05,1742092792.226785
0.0055,0.00775,0.251,0.0,-1.5250001e-05,-6.1000002e-05,1742092792.241097
0.00525,0.0075,0.25125,1.5250001e-05,-3.0500001e-05,-6.1000002e-05,1742092792.255391
0.00525,0.0075,0.25125,0.0,-1.5250001e-05,-6.1000002e-05,1742092792.27055
0.0055,0.0075,0.25125,0.0,-3.0500001e-05,-6.1000002e-05,1742092792.284147
0.00525,0.0075,0.25125,0.0,-1.5250001e-05,-4.575e-05,1742092792.298444
0.00475,0.0075,0.25075,0.0,-1.5250001e-05,-3.0500001e-05,1742092792.312872
0.0045,0.00775,0.25075,-1.5250001e-05,0.0,-7.625e-05,1742092792.327157
0.00525,0.00775,0.2515,-1.5250001e-05,1.5250001e-05,-7.625e-05,1742092792.341472
0.00575,0.00775,0.2515,-1.5250001e-05,3.0500001e-05,-7.625e-05,1742092792.3558762
0.006,0.0075,0.25125,1.5250001e-05,1.5250001e-05,-6.1000002e-05,1742092792.371109
0.00575,0.00725,0.25125,1.5250001e-05,0.0,-6.1000002e-05,1742092792.384379
0.0055,0.00725,0.2515,0.0,0.0,-4.575e-05,1742092792.398535
0.00525,0.00725,0.25125,0.0,1.5250001e-05,-6.1000002e-05,1742092792.4128692
0.00525,0.00725,0.25125,1.5250001e-05,1.5250001e-05,-6.1000002e-05,1742092792.4270499
0.00525,0.00775,0.25125,1.5250001e-05,1.5250001e-05,-6.1000002e-05,1742092792.44151
0.005,0.00775,0.25125,0.0,1.5250001e-05,-6.1000002e-05,1742092792.455752
0.005,0.00775,0.25125,3.0500001e-05,1.5250001e-05,-6.1000002e-05,1742092792.471114
0.005,0.0075,0.25125,3.0500001e-05,1.5250001e-05,-6.1000002e-05,1742092792.4843369
0.00525,0.0075,0.2515,0.0,0.0,-4.575e-05,1742092792.4985962
0.0055,0.00775,0.2515,-1.5250001e-05,0.0,-4.575e-05,1742092792.5130508
0.0055,0.0075,0.25125,0.0,0.0,-4.575e-05,1742092792.527487
0.0055,0.007,0.25175,0.0,0.0,-6.1000002e-05,1742092792.541882
0.0055,0.00725,0.25175,0.0,1.5250001e-05,-7.625e-05,1742092792.556051
0.0055,0.0075,0.2515,0.0,4.575e-05,-7.625e-05,1742092792.5710652
0.0055,0.00775,0.25125,0.0,3.0500001e-05,-6.1000002e-05,1742092792.584741
0.00525,0.00775,0.25125,-1.5250001e-05,1.5250001e-05,-6.1000002e-05,1742092792.599189
0.00525,0.0075,0.2515,-1.5250001e-05,1.5250001e-05,-7.625e-05,1742092792.6137059
0.0055,0.00725,0.2515,1.5250001e-05,1.5250001e-05,-6.1000002e-05,1742092792.627869
0.0055,0.0075,0.2515,1.5250001e-05,1.5250001e-05,-6.1000002e-05,1742092792.6420312
0.0055,0.0075,0.25125,1.5250001e-05,0.0,-4.575e-05,1742092792.656288
0.0055,0.00725,0.251,1.5250001e-05,1.5250001e-05,-6.1000002e-05,1742092792.6709938
0.0055,0.00725,0.25125,1.5250001e-05,1.5250001e-05,-6.1000002e-05,1742092792.684876
0.0055,0.00725,0.2515,1.5250001e-05,0.0,-6.1000002e-05,1742092792.699053
0.0055,0.0075,0.25175,1.5250001e-05,0.0,-6.1000002e-05,1742092792.713501
0.00525,0.0075,0.25175,0.0,1.5250001e-05,-7.625e-05,1742092792.727813
0.005,0.0075,0.251,1.5250001e-05,1.5250001e-05,-7.625e-05,1742092792.742145
0.005,0.0075,0.251,1.5250001e-05,1.5250001e-05,-7.625e-05,1742092792.756352
0.005,0.00725,0.25125,1.5250001e-05,0.0,-7.625e-05,1742092792.770915
0.00525,0.00775,0.2515,1.5250001e-05,0.0,-7.625e-05,1742092792.7850041
0.0055,0.0075,0.25125,0.0,1.5250001e-05,-6.1000002e-05,1742092792.799275
0.00575,0.007,0.2515,1.5250001e-05,1.5250001e-05,-6.1000002e-05,1742092792.813538
0.0055,0.00675,0.25175,3.0500001e-05,0.0,-3.0500001e-05,1742092792.827913
0.00525,0.0075,0.25075,1.5250001e-05,0.0,-4.575e-05,1742092792.84207
0.00525,0.00775,0.251,1.5250001e-05,1.5250001e-05,-4.575e-05,1742092792.856388
0.00525,0.00775,0.2515,0.0,3.0500001e-05,-6.1000002e-05,1742092792.870903
0.005,0.008,0.2515,0.0,3.0500001e-05,-4.575e-05,1742092792.885016
0.005,0.00775,0.25125,1.5250001e-05,1.5250001e-05,-6.1000002e-05,1742092792.899374
0.00525,0.0075,0.2515,1.5250001e-05,1.5250001e-05,-6.1000002e-05,1742092792.913711
0.00525,0.00725,0.2515,0.0,1.5250001e-05,-6.1000002e-05,1742092792.928007
0.006,0.007,0.25125,0.0,3.0500001e-05,-6.1000002e-05,1742092792.942349
0.006,0.007,0.25125,1.5250001e-05,3.0500001e-05,-6.1000002e-05,1742092792.9567192
0.00575,0.007,0.2515,3.0500001e-05,-1.5250001e-05,-6.1000002e-05,1742092792.9713101
0.00525,0.00775,0.2515,1.5250001e-05,-1.5250001e-05,-6.1000002e-05,1742092792.985348
0.005,0.008,0.25125,0.0,1.5250001e-05,-4.575e-05,1742092792.999691
0.0055,0.008,0.24925,0.0,1.5250001e-05,-4.575e-05,1742092793.014037
0.006,0.008,0.2485,4.575e-05,1.5250001e-05,-6.1000002e-05,1742092793.028398
