acc_x,acc_y,acc_z,gyro_x,gyro_y,gyro_z,timestamp
0.24675,-0.012,0.009,-0.0008545,0.00033575002,0.00042725,1742092835.323712
0.24825,-0.0115,0.0065,-0.001526,0.0003205,0.0005035,1742092835.338429
0.2485,-0.01075,0.0025,-0.00143425,6.1000002e-05,0.000534,1742092835.3524501
0.24875,-0.0115,0.0035,-0.00090025004,-0.00029,0.0005035,1742092835.366901
0.251,-0.0135,0.0055,-0.000885,-0.000183,0.00054925,1742092835.3823428
0.25125,-0.0135,0.00475,-0.00105275,0.0001525,0.00065625,1742092835.395788
0.24925,-0.01125,0.0005,-0.001175,0.00070200005,0.0008545,1742092835.410144
0.24675,-0.01,-0.0,-0.0008545,0.0005645,0.0009155,1742092835.424601
0.24625,-0.00875,0.00025,-9.15e-05,-0.00019825,0.00096125,1742092835.4392729
0.248,-0.00725,0.00175,0.0003815,-0.00033575002,0.0013885,1742092835.453762
0.2435,-0.0075,0.0015,0.0012665,0.000824,0.0021819999,1742092835.4679308
0.23925,-0.0075,0.00175,0.0012665,0.00108325,0.00177,1742092835.482317
0.242,-0.00775,0.005,0.00027475,-4.575e-05,0.00062550005,1742092835.496604
0.24725,-0.007,0.00775,-0.000534,-0.0007935,0.00051875,1742092835.5118358
0.24675,-0.0065,0.00775,-0.00093075,-0.00108325,0.00065625,1742092835.5256221
0.2455,-0.00625,0.006,-0.00077825,-1.5250001e-05,0.00065625,1742092835.540121
0.24425,-0.0055,0.00375,-0.00029,0.0003815,0.00048825,1742092835.554525
0.24475,-0.00575,0.0065,0.000122000005,0.00010675,0.00027475,1742092835.568795
0.24525,-0.00575,0.00875,-0.0002135,-7.625e-05,0.0002595,1742092835.583214
0.24725,-0.00675,0.00825,-0.00059500005,-3.0500001e-05,0.00027475,1742092835.5976949
0.2515,-0.008,0.0045,-0.00067150005,0.000122000005,0.00030525,1742092835.612148
0.2505,-0.00775,0.00325,-0.00061025,0.00013725001,0.0004425,1742092835.626559
0.2475,-0.0065,0.00225,-0.00062550005,7.625e-05,0.00045775,1742092835.641887
0.24675,-0.00575,0.00175,-0.00065625,0.0,0.000473,1742092835.655328
0.24525,-0.0055,0.00225,-0.0005645,-0.00010675,0.000473,1742092835.669813
0.2405,-0.0035,0.00125,-0.00061025,-9.15e-05,0.00042725,1742092835.684182
0.239,-0.003,0.00125,-0.00033575002,-1.5250001e-05,4.575e-05,1742092835.698617
0.24325,-0.00525,0.0015,-0.0002135,1.5250001e-05,-0.0001525,1742092835.713106
0.246,-0.00675,0.0015,-9.15e-05,-7.625e-05,-9.15e-05,1742092835.727735
0.249,-0.00725,0.0025,-1.5250001e-05,-0.0002135,1.5250001e-05,1742092835.74233
0.249,-0.00675,0.00475,9.15e-05,-0.0003815,0.00010675,1742092835.756719
0.2465,-0.006,0.007,0.0,-0.00048825,0.00019825,1742092835.771678
0.24475,-0.0055,0.00675,-0.00019825,-0.000412,0.00016775,1742092835.785428
0.24475,-0.00475,0.00575,-0.00036625,-0.00010675,-7.625e-05,1742092835.8012538
0.24875,-0.00675,0.00625,-0.00016775,4.575e-05,-0.0001525,1742092835.8146298
0.2495,-0.00725,0.007,-9.15e-05,0.000229,-9.15e-05,1742092835.829362
0.251,-0.0075,0.00425,-0.0001525,0.0002595,-7.625e-05,1742092835.843928
0.25175,-0.00775,0.00375,0.00013725001,0.00029,1.5250001e-05,1742092835.8581052
0.25075,-0.008,0.00675,0.00024425,0.00024425,0.00010675,1742092835.872463
0.24975,-0.0075,0.007,0.00010675,0.000122000005,0.0002135,1742092835.886745
0.24825,-0.0065,0.00575,-0.00039675,-0.0003205,0.00039675,1742092835.901481
0.243,-0.00425,0.004,-0.0004425,-0.00045775,0.00039675,1742092835.915632
0.2415,-0.00375,0.004,-0.00024425,-0.000229,0.00010675,1742092835.931215
0.2455,-0.005,0.0025,-7.625e-05,-3.0500001e-05,-6.1000002e-05,1742092835.944701
0.24875,-0.00675,0.00325,0.00016775,6.1000002e-05,-3.0500001e-05,1742092835.959135
0.249,-0.00625,0.00275,-3.0500001e-05,4.575e-05,0.00013725001,1742092835.973546
0.2465,-0.00525,0.00325,3.0500001e-05,-6.1000002e-05,0.00029,1742092835.987958
0.24475,-0.0045,0.0055,7.625e-05,-1.5250001e-05,0.000229,1742092836.002217
0.24575,-0.00475,0.00625,6.1000002e-05,0.00010675,0.000122000005,1742092836.0165
0.2465,-0.00525,0.00625,-0.000122000005,0.00029,1.5250001e-05,1742092836.031213
0.251,-0.005,0.00275,1.5250001e-05,0.000183,0.00019825,1742092836.045027
0.25025,-0.00575,0.003,0.001236,0.00042725,0.00125125,1742092836.059333
0.2445,-0.00525,0.00575,0.0013275,0.00086975005,0.00119025,1742092836.073657
0.24575,-0.005,0.0045,0.00045775,0.00042725,0.000183,1742092836.088065
0.25,-0.0065,0.0065,-4.575e-05,-0.0003815,0.00010675,1742092836.102464
0.2475,-0.005,0.00525,-0.00061025,-0.000763,0.0003205,1742092836.1169212
0.24475,-0.00325,0.003,-0.00048825,-1.5250001e-05,0.00039675,1742092836.131587
0.246,-0.00425,0.00425,0.0,0.00029,0.000183,1742092836.145625
0.2475,-0.00475,0.00575,-4.575e-05,7.625e-05,6.1000002e-05,1742092836.1600199
0.24725,-0.00475,0.00375,-0.0003205,-0.0001525,0.0001525,1742092836.174561
0.246,-0.0045,0.00225,-0.0005645,-0.0002595,0.00035100002,1742092836.189161
0.24525,-0.003,0.0015,-0.0003815,-0.000229,0.00033575002,1742092836.2036228
0.2465,-0.0035,0.0035,4.575e-05,-0.0001525,0.00029,1742092836.217982
0.2455,-0.00325,0.0055,-7.625e-05,-0.00013725001,0.0003205,1742092836.2324522
0.2435,-0.00225,0.00575,-0.00024425,-0.00016775,0.0003205,1742092836.2468789
0.2445,-0.00125,0.0045,-0.00013725001,-0.000229,0.00042725,1742092836.261806
0.2465,-0.00275,0.0045,0.0004425,3.0500001e-05,0.00080875,1742092836.275647
0.244,-0.004,0.00525,0.00057975,0.001236,0.00065625,1742092836.291413
0.24825,-0.00425,0.00225,0.00027475,0.0012055,0.000122000005,1742092836.304352
0.251,-0.00475,0.006,-0.00010675,-0.00045775,6.1000002e-05,1742092836.318848
0.24675,-0.0025,0.0065,-0.00067150005,-0.00070200005,0.00033575002,1742092836.33324
0.24325,-0.00125,0.0035,-0.0008545,-0.0004425,0.00042725,1742092836.34765
0.2435,-0.00125,0.00475,6.1000002e-05,0.00019825,-3.0500001e-05,1742092836.3621068
0.25,-0.0025,0.00875,0.00016775,0.00035100002,-0.000183,1742092836.376409
0.25,-0.003,0.00775,-0.0002595,0.0002135,-4.575e-05,1742092836.391028
0.24775,-0.00275,0.005,-0.00035100002,6.1000002e-05,-3.0500001e-05,1742092836.405419
0.248,-0.003,0.005,-0.00019825,9.15e-05,-9.15e-05,1742092836.419929
0.248,-0.0035,0.0055,-0.00019825,0.00029,-6.1000002e-05,1742092836.434346
0.247,-0.003,0.00475,-0.00036625,0.00042725,7.625e-05,1742092836.448691
0.246,-0.00225,0.0035,-0.00035100002,0.00027475,6.1000002e-05,1742092836.463039
0.2465,-0.003,0.0035,-0.000229,9.15e-05,0.0,1742092836.477355
0.24675,-0.0035,0.00325,-0.00010675,1.5250001e-05,-3.0500001e-05,1742092836.4916852
0.247,-0.004,0.002,-0.00010675,7.625e-05,-3.0500001e-05,1742092836.5062559
0.248,-0.00425,0.0025,6.1000002e-05,0.0001525,3.0500001e-05,1742092836.520475
0.24825,-0.00325,0.004,6.1000002e-05,0.000183,0.00010675,1742092836.534701
0.24675,-0.0025,0.00375,-0.00019825,9.15e-05,0.0001525,1742092836.5491772
0.246,-0.00175,0.00425,-0.00019825,4.575e-05,7.625e-05,1742092836.563492
0.247,-0.00175,0.005,-9.15e-05,0.000122000005,-3.0500001e-05,1742092836.577933
0.2475,-0.00225,0.005,-1.5250001e-05,0.0003815,-0.000122000005,1742092836.592426
0.24875,-0.00325,0.004,-9.15e-05,0.00035100002,-0.000122000005,1742092836.606924
0.249,-0.004,0.0035,-0.0003815,-6.1000002e-05,1.5250001e-05,1742092836.621443
0.24725,-0.00375,0.00225,-0.00051875,-0.0002135,0.00010675,1742092836.635932
0.24675,-0.00325,0.00225,-0.000229,-0.000183,0.00010675,1742092836.6514308
0.24675,-0.00275,0.0055,-7.625e-05,-6.1000002e-05,9.15e-05,1742092836.664774
0.246,-0.00175,0.00575,-0.00027475,0.00013725001,9.15e-05,1742092836.679088
0.24475,-0.00075,0.0045,-0.00033575002,9.15e-05,4.575e-05,1742092836.693388
0.24525,-0.001,0.0045,-0.00030525,-1.5250001e-05,0.0,1742092836.7078679
0.246,-0.00175,0.004,-0.00033575002,3.0500001e-05,-0.00010675,1742092836.722403
0.2485,-0.0035,0.00175,-0.0002595,0.000183,-0.00010675,1742092836.736907
0.2485,-0.0035,0.0025,-0.00019825,0.0003815,7.625e-05,1742092836.751533
0.246,-0.0015,0.0035,-0.00027475,0.00035100002,0.000183,1742092836.7655208
0.24675,-0.00125,0.00375,-0.00016775,0.000183,0.00030525,1742092836.780985
0.25025,-0.0015,0.002,0.0002595,0.0002135,0.000824,1742092836.794105
0.245,-0.0015,0.0035,0.0009155,0.000534,0.0014037499,1742092836.8085551
0.2405,-0.00125,0.004,0.00080875,0.0015105,0.00061025,1742092836.8229172
0.24725,-0.0025,0.003,0.00042725,0.00115975,-0.000122000005,1742092836.837335
0.251,-0.0035,0.00575,-0.0005035,-0.00033575002,-0.00010675,1742092836.852461
0.24775,-0.00175,-0.00025,-0.00099175,-0.000229,0.0002135,1742092836.86653
0.245,-0.0005,-0.00325,-0.000122000005,0.0005035,0.00016775,1742092836.881064
0.2445,0.00025,0.003,0.00048825,0.00048825,-3.0500001e-05,1742092836.8955278
0.245,-0.0,0.00575,0.00019825,0.0002135,-0.00010675,1742092836.910948
0.24525,-0.0005,0.00375,-0.00019825,0.00016775,-9.15e-05,1742092836.9242141
0.2465,-0.001,0.002,-0.00033575002,0.000122000005,-9.15e-05,1742092836.938616
0.248,-0.00225,0.00075,-9.15e-05,7.625e-05,-0.00013725001,1742092836.953137
0.249,-0.003,-0.00025,0.000122000005,9.15e-05,-0.00010675,1742092836.967593
0.24775,-0.0025,0.00075,0.00051875,0.000122000005,0.0,1742092836.9820092
0.2455,-0.0005,0.00375,0.0005645,6.1000002e-05,1.5250001e-05,1742092836.996362
0.2455,-0.00025,0.005,0.00016775,-0.0001525,1.5250001e-05,1742092837.011359
0.24475,-0.00025,0.003,-0.00019825,-0.0001525,3.0500001e-05,1742092837.0254452
0.24475,0.0,0.00175,-0.000229,9.15e-05,-1.5250001e-05,1742092837.039778
0.24525,0.0005,0.002,-6.1000002e-05,0.00027475,-7.625e-05,1742092837.0540302
0.2465,-0.0,0.003,9.15e-05,0.00039675,-0.00013725001,1742092837.0685592
0.24825,-0.001,0.0045,0.000122000005,0.00030525,-0.00016775,1742092837.082819
0.24875,-0.00125,0.00475,-0.00010675,0.00019825,-9.15e-05,1742092837.0973089
0.24775,-0.00125,0.00325,-0.0004425,7.625e-05,6.1000002e-05,1742092837.1117508
0.2455,-0.0005,0.00275,-0.00039675,0.00016775,1.5250001e-05,1742092837.1259909
0.2455,-0.0005,0.00325,-0.00019825,0.00057975,-0.0001525,1742092837.141609
0.24575,-0.001,0.00175,-0.00019825,0.00064075,-0.00016775,1742092837.154922
0.24575,-0.00125,0.00125,-0.0002135,0.00051875,-0.00016775,1742092837.1693928
0.2465,-0.00125,0.00125,-0.00019825,0.00019825,-0.000183,1742092837.183907
0.2475,-0.00225,0.002,-0.0002135,0.00024425,-0.0001525,1742092837.198315
0.2475,-0.00175,0.00175,-0.00029,0.00045775,-9.15e-05,1742092837.2127402
0.24775,-0.0015,0.0005,-0.000229,0.0004425,-0.000122000005,1742092837.227193
0.24725,-0.00125,0.0005,-0.000183,0.00027475,-7.625e-05,1742092837.2417102
0.2455,-0.00075,0.00075,-0.0001525,0.00019825,-0.00010675,1742092837.256097
0.246,-0.00125,0.001,3.0500001e-05,0.000122000005,-0.00019825,1742092837.2715158
0.249,-0.003,0.001,6.1000002e-05,0.000122000005,-0.000183,1742092837.2847528
0.24925,-0.0035,0.0005,-1.5250001e-05,0.000122000005,-0.00010675,1742092837.299198
0.24875,-0.003,0.00025,-0.00024425,7.625e-05,7.625e-05,1742092837.31351
0.2475,-0.0015,0.002,-0.0002595,3.0500001e-05,0.00013725001,1742092837.327874
0.24625,-0.00075,0.002,-0.00045775,-0.000122000005,0.00029,1742092837.3424058
0.24375,0.0005,0.00125,-0.0005035,-0.0002135,0.0002595,1742092837.3568058
0.2435,0.0005,0.0005,-0.00035100002,-0.0001525,1.5250001e-05,1742092837.3718212
0.2465,-0.001,0.0005,-0.0001525,1.5250001e-05,-9.15e-05,1742092837.385586
0.2485,-0.002,0.002,4.575e-05,0.00016775,-0.00013725001,1742092837.400003
0.24875,-0.00225,0.00275,-7.625e-05,0.000229,-3.0500001e-05,1742092837.414444
0.24775,-0.0015,0.00275,-0.00016775,0.00010675,1.5250001e-05,1742092837.428799
0.24775,-0.0015,0.00275,-0.00036625,4.575e-05,6.1000002e-05,1742092837.443124
0.2465,-0.0005,0.00025,-0.000473,0.00010675,9.15e-05,1742092837.4575338
0.2455,-0.0005,0.0005,-0.00019825,0.00013725001,1.5250001e-05,1742092837.471925
0.24575,-0.00075,0.001,-0.00016775,0.00016775,-3.0500001e-05,1742092837.4864352
0.2455,-0.00075,0.00025,-0.00016775,0.00013725001,-4.575e-05,1742092837.502327
0.24625,-0.00125,-0.00025,-0.0001525,4.575e-05,-7.625e-05,1742092837.5155141
0.2475,-0.002,-0.0005,-9.15e-05,-4.575e-05,-0.00010675,1742092837.531164
0.2485,-0.0025,-0.00025,3.0500001e-05,-0.0001525,1.5250001e-05,1742092837.5446222
0.24675,-0.001,-0.0,-1.5250001e-05,-0.00013725001,9.15e-05,1742092837.559257
0.24575,-0.00025,0.001,6.1000002e-05,-0.000122000005,4.575e-05,1742092837.573506
0.24475,0.0005,0.002,0.0,-4.575e-05,0.0,1742092837.587696
0.245,-0.0,0.0015,-4.575e-05,7.625e-05,-0.00010675,1742092837.602321
0.24575,-0.001,0.0005,-6.1000002e-05,9.15e-05,-0.00013725001,1742092837.6168058
0.24625,-0.001,0.0,0.000122000005,4.575e-05,-0.00019825,1742092837.631198
0.24875,-0.00175,0.0015,0.0002135,1.5250001e-05,-0.000183,1742092837.645531
0.24825,-0.00125,0.00175,0.00016775,3.0500001e-05,-9.15e-05,1742092837.659798
0.247,-0.001,0.0025,0.0,0.0,0.0,1742092837.674001
0.2465,-0.00025,0.00275,-0.0001525,3.0500001e-05,-1.5250001e-05,1742092837.6884868
0.24675,-0.00025,0.002,-0.00024425,0.00010675,-4.575e-05,1742092837.702917
0.246,-0.0015,0.00125,-0.000229,0.000122000005,-6.1000002e-05,1742092837.717403
0.246,-0.0015,0.0,-0.0002595,4.575e-05,-6.1000002e-05,1742092837.731919
0.2475,-0.00125,0.001,-0.00010675,0.0,-7.625e-05,1742092837.746506
0.24825,-0.0015,0.00125,-6.1000002e-05,1.5250001e-05,-6.1000002e-05,1742092837.761518
0.24825,-0.00125,0.00075,-7.625e-05,0.00010675,-1.5250001e-05,1742092837.77538
0.2465,-0.0005,0.002,0.0,7.625e-05,-3.0500001e-05,1742092837.791049
0.2465,-0.00025,0.00275,-7.625e-05,3.0500001e-05,-6.1000002e-05,1742092837.804342
0.24675,-0.0005,0.003,-0.00019825,1.5250001e-05,-4.575e-05,1742092837.8189042
0.24675,-0.001,0.002,-0.00033575002,0.0,-6.1000002e-05,1742092837.833397
0.24875,-0.00275,0.001,-0.00027475,3.0500001e-05,-4.575e-05,1742092837.847807
0.24875,-0.0025,0.001,-0.00024425,0.000122000005,0.00010675,1742092837.862208
0.246,-0.0015,0.0005,-0.00029,6.1000002e-05,0.00013725001,1742092837.876501
0.2455,-0.00075,0.0,-0.000412,-1.5250001e-05,0.00013725001,1742092837.891377
0.24575,-0.0,-0.0005,-0.00039675,-1.5250001e-05,6.1000002e-05,1742092837.905503
0.247,-0.00025,0.00075,-0.000183,6.1000002e-05,-1.5250001e-05,1742092837.919945
0.248,-0.0005,0.001,-4.575e-05,6.1000002e-05,-4.575e-05,1742092837.934417
0.248,-0.00125,0.001,-0.0001525,-7.625e-05,3.0500001e-05,1742092837.948879
0.24825,-0.00225,0.00075,-0.00059500005,-0.000412,0.0002595,1742092837.9634051
0.2465,-0.0015,0.001,-0.000763,-0.0005645,0.00042725,1742092837.9778738
0.2445,-0.00025,0.00175,-0.00061025,-0.0005035,0.0003815,1742092837.992382
0.245,0.0005,0.0025,-0.0003815,-0.0003205,0.000183,1742092838.006826
0.24675,-0.0005,0.003,-0.00010675,-0.00013725001,1.5250001e-05,1742092838.021625
0.24925,-0.0015,0.00325,-7.625e-05,3.0500001e-05,-6.1000002e-05,1742092838.0358982
0.24975,-0.00175,0.002,-0.000229,1.5250001e-05,4.575e-05,1742092838.0514822
0.2495,-0.00075,0.0005,-1.5250001e-05,3.0500001e-05,0.00039675,1742092838.0646698
0.24875,-0.0005,0.00275,0.00054925,3.0500001e-05,0.00086975005,1742092838.0789409
0.245,-0.00075,0.005,0.00029,0.0008545,0.000885,1742092838.0932019
0.2425,0.00225,-0.001,-0.000122000005,0.00108325,0.00035100002,1742092838.107506
0.245,0.0015,0.001,-7.625e-05,0.00064075,-0.00010675,1742092838.121814
0.247,0.0005,0.00325,-0.000412,-0.0002135,-4.575e-05,1742092838.136201
0.24475,0.00125,-0.0005,-0.00059500005,4.575e-05,7.625e-05,1742092838.1511092
0.24475,0.00125,-0.00125,-3.0500001e-05,0.00070200005,-9.15e-05,1742092838.16491
0.2475,0.0,0.00175,0.00013725001,0.00071725,-0.00013725001,1742092838.179206
0.24675,0.0,0.0025,-0.00016775,0.00029,3.0500001e-05,1742092838.19344
0.24575,0.0005,0.0015,-0.00035100002,0.00010675,6.1000002e-05,1742092838.207675
0.24575,0.00075,0.00075,-0.0004425,9.15e-05,4.575e-05,1742092838.222073
0.2455,0.00125,0.0005,-0.0003205,0.00039675,-0.00010675,1742092838.236536
0.24525,0.00125,-0.00075,-0.000183,0.000534,-0.000183,1742092838.251501
0.246,0.00075,-0.0005,3.0500001e-05,0.0003815,-0.0002595,1742092838.2654169
0.24675,0.00025,0.0,-6.1000002e-05,0.0002595,-0.000229,1742092838.279763
0.24775,-0.00025,-0.00025,-7.625e-05,0.000183,-0.00016775,1742092838.294312
0.2495,-0.00125,0.00075,0.0,0.0002135,-0.00010675,1742092838.30866
0.24925,-0.001,0.001,-0.00013725001,0.00024425,-1.5250001e-05,1742092838.323123
0.249,-0.00075,0.00175,-0.000183,0.000229,-1.5250001e-05,1742092838.337593
0.24875,-0.00075,0.00125,-0.00030525,0.00024425,0.0,1742092838.3519459
0.248,-0.00075,-0.00025,-0.0004425,0.000183,7.625e-05,1742092838.36637
0.24575,0.00025,-0.00075,-0.00036625,0.00010675,7.625e-05,1742092838.380863
0.24525,0.00075,-0.00125,-0.0003205,4.575e-05,4.575e-05,1742092838.395099
0.24425,0.001,-0.0015,-0.00019825,1.5250001e-05,1.5250001e-05,1742092838.4096682
0.245,0.00075,-0.001,4.575e-05,-4.575e-05,-7.625e-05,1742092838.424096
0.2475,-0.0005,0.0,0.00010675,-6.1000002e-05,-4.575e-05,1742092838.4386282
0.24625,0.0005,0.00025,-0.0001525,-3.0500001e-05,9.15e-05,1742092838.453024
0.2455,0.002,0.00025,-0.00016775,-3.0500001e-05,3.0500001e-05,1742092838.46738
0.24575,0.0015,0.00025,-0.00010675,-3.0500001e-05,-4.575e-05,1742092838.4818618
0.24575,0.00125,-0.0,-3.0500001e-05,0.0,-9.15e-05,1742092838.496406
0.24625,0.0005,0.0005,3.0500001e-05,0.0,-9.15e-05,1742092838.510848
0.2475,-0.00025,0.00075,-4.575e-05,4.575e-05,-3.0500001e-05,1742092838.5254452
0.246,0.0005,0.00025,-0.00016775,6.1000002e-05,3.0500001e-05,1742092838.539707
0.2445,0.00125,-0.00025,-0.00016775,-1.5250001e-05,-3.0500001e-05,1742092838.5543418
0.24525,0.00125,-0.0005,-6.1000002e-05,-4.575e-05,-0.00013725001,1742092838.569025
0.246,0.00075,-0.0,6.1000002e-05,1.5250001e-05,-0.00024425,1742092838.5832992
0.24775,-0.00025,-0.0,6.1000002e-05,6.1000002e-05,-0.00024425,1742092838.5977979
0.24825,-0.0005,0.0,0.00010675,7.625e-05,-0.000229,1742092838.612213
0.24875,-0.00075,0.00025,7.625e-05,7.625e-05,-0.000122000005,1742092838.6264808
0.2485,-0.001,0.00025,1.5250001e-05,6.1000002e-05,-3.0500001e-05,1742092838.64147
0.24775,-0.00075,0.0005,3.0500001e-05,-4.575e-05,4.575e-05,1742092838.655189
0.247,-0.00025,0.00075,0.0,0.0,3.0500001e-05,1742092838.6693802
0.247,0.0,0.0,-3.0500001e-05,0.000183,-3.0500001e-05,1742092838.683786
0.24625,0.00025,-0.00075,0.0,0.00016775,-6.1000002e-05,1742092838.698208
0.24625,0.00025,-0.00025,0.0,9.15e-05,-6.1000002e-05,1742092838.7125812
0.246,0.00025,-0.00025,-0.00010675,6.1000002e-05,-3.0500001e-05,1742092838.727078
0.2455,0.00075,-0.001,-7.625e-05,9.15e-05,-3.0500001e-05,1742092838.741628
0.24575,0.0005,-0.001,0.00013725001,6.1000002e-05,-3.0500001e-05,1742092838.7561002
0.24625,0.0005,-0.00025,0.00016775,1.5250001e-05,-3.0500001e-05,1742092838.7716532
0.247,0.00025,0.0005,0.000122000005,3.0500001e-05,-6.1000002e-05,1742092838.7846751
0.24775,0.00025,0.00075,3.0500001e-05,0.00010675,-4.575e-05,1742092838.7991118
0.24775,0.0005,0.00025,-4.575e-05,0.00016775,-6.1000002e-05,1742092838.813474
0.248,0.0005,-0.0,0.0,0.00013725001,-6.1000002e-05,1742092838.827769
0.247,-0.00025,-0.00075,-3.0500001e-05,0.00010675,-1.5250001e-05,1742092838.8423061
0.246,0.0,-0.00125,0.0,-4.575e-05,3.0500001e-05,1742092838.856692
0.245,0.0005,-0.00025,3.0500001e-05,-9.15e-05,1.5250001e-05,1742092838.871566
0.24475,0.001,-0.00025,-1.5250001e-05,-1.5250001e-05,-7.625e-05,1742092838.885689
0.24675,0.00025,-0.00025,4.575e-05,3.0500001e-05,-0.000122000005,1742092838.901515
0.2475,-0.00025,-0.00075,-1.5250001e-05,0.00013725001,-7.625e-05,1742092838.914459
0.2465,0.00025,-0.001,1.5250001e-05,7.625e-05,-4.575e-05,1742092838.928768
0.24575,0.001,-0.00025,4.575e-05,0.0,-3.0500001e-05,1742092838.943207
0.24525,0.00125,0.00025,3.0500001e-05,-0.00010675,-3.0500001e-05,1742092838.957671
0.246,0.00075,0.00025,0.0,-9.15e-05,-7.625e-05,1742092838.97219
0.24675,0.00075,-0.0,0.0,3.0500001e-05,-7.625e-05,1742092838.9864728
0.2465,0.00075,0.00075,6.1000002e-05,7.625e-05,-7.625e-05,1742092839.00066
0.24675,0.00075,0.00075,1.5250001e-05,0.000122000005,-9.15e-05,1742092839.014861
0.24625,0.00025,0.00025,1.5250001e-05,9.15e-05,-9.15e-05,1742092839.029085
0.24625,0.00025,0.0,-3.0500001e-05,7.625e-05,-9.15e-05,1742092839.0435011
0.24675,0.00025,-0.0005,-0.00019825,0.00010675,-3.0500001e-05,1742092839.0578518
0.247,-0.0,-0.001,-0.00016775,9.15e-05,-3.0500001e-05,1742092839.0724092
0.24675,-0.0,-0.0005,6.1000002e-05,0.0,-7.625e-05,1742092839.086812
0.2475,0.00025,0.0015,0.0001525,0.0,-0.00010675,1742092839.1014771
0.24875,0.0,0.00175,0.0001525,0.00010675,-0.000122000005,1742092839.115324
0.2495,-0.00125,0.002,7.625e-05,0.0001525,-7.625e-05,1742092839.129579
0.24825,-0.00075,0.00075,-0.00010675,0.00016775,0.0,1742092839.143952
0.247,0.0,-0.00025,-0.00027475,0.0001525,4.575e-05,1742092839.1583118
0.24625,0.0005,0.0,-0.0002135,0.00016775,0.0,1742092839.172601
0.24675,0.00025,-0.00025,-0.000229,0.00019825,0.0,1742092839.1869462
0.2465,0.0005,-0.00075,-0.000229,0.00016775,1.5250001e-05,1742092839.2013628
0.24575,0.0005,-0.00125,-0.00027475,0.00016775,3.0500001e-05,1742092839.215795
0.24625,-0.0,-0.00175,-0.0001525,0.000183,-1.5250001e-05,1742092839.230827
0.24725,-0.0005,-0.00125,-3.0500001e-05,0.0002135,-4.575e-05,1742092839.244875
0.248,0.00025,-0.00075,1.5250001e-05,0.00016775,1.5250001e-05,1742092839.259107
0.2475,0.001,-0.00025,-1.5250001e-05,0.00010675,4.575e-05,1742092839.2734778
0.24725,0.0015,-0.0,-4.575e-05,4.575e-05,6.1000002e-05,1742092839.28789
0.246,0.00125,-0.0005,-0.000122000005,9.15e-05,6.1000002e-05,1742092839.302298
0.246,0.00125,-0.0005,-0.00010675,0.00016775,-1.5250001e-05,1742092839.31679
0.2465,0.00075,-0.0005,-7.625e-05,0.00019825,-3.0500001e-05,1742092839.331309
0.24625,0.0005,-0.00125,-0.000122000005,0.0002135,-1.5250001e-05,1742092839.345769
0.24575,0.0005,-0.001,-6.1000002e-05,0.0001525,-1.5250001e-05,1742092839.360072
0.24625,0.0005,-0.0,1.5250001e-05,0.00013725001,-3.0500001e-05,1742092839.3744981
0.247,0.0005,0.0005,1.5250001e-05,0.00016775,-4.575e-05,1742092839.388814
0.2475,0.00075,0.00075,-1.5250001e-05,0.0001525,-3.0500001e-05,1742092839.40319
0.24775,0.001,0.0005,-0.00013725001,9.15e-05,-1.5250001e-05,1742092839.417475
0.24775,0.001,-0.00025,-0.000183,7.625e-05,0.0,1742092839.431764
0.24675,0.001,-0.001,-0.0002595,0.000183,0.0,1742092839.4462311
0.2465,0.00075,-0.00125,-0.00019825,0.0002595,-3.0500001e-05,1742092839.461694
0.24625,0.0005,-0.00125,-0.00019825,0.00030525,-1.5250001e-05,1742092839.4750578
0.2455,0.0005,-0.002,-0.00024425,0.000229,3.0500001e-05,1742092839.4894028
0.24575,0.00075,-0.00175,-0.0001525,0.00013725001,0.0,1742092839.5037801
0.24625,0.00075,-0.001,1.5250001e-05,0.0001525,-4.575e-05,1742092839.518108
0.247,0.00025,-0.001,-1.5250001e-05,0.000229,-3.0500001e-05,1742092839.532489
0.247,0.00025,-0.00175,-7.625e-05,0.00029,-9.15e-05,1742092839.5469701
0.248,0.0,-0.00125,1.5250001e-05,0.00030525,-0.00010675,1742092839.561816
0.2475,0.00025,-0.00175,-0.0002135,0.00024425,0.0,1742092839.575778
0.2445,0.00125,-0.0045,-0.0003205,7.625e-05,4.575e-05,1742092839.5914612
0.244,0.0015,-0.00375,-0.00019825,-0.00010675,3.0500001e-05,1742092839.6046028
0.24425,0.00125,-0.00225,1.5250001e-05,-1.5250001e-05,-9.15e-05,1742092839.619133
0.248,0.0015,-0.00375,0.0001525,0.00010675,-4.575e-05,1742092839.633471
0.25025,0.00025,-0.002,0.00108325,-1.5250001e-05,0.00061025,1742092839.647785
0.24625,-0.00025,0.00175,0.00083925005,0.00027475,0.00065625,1742092839.662163
0.2465,0.001,-0.00175,1.5250001e-05,0.00051875,1.5250001e-05,1742092839.6763651
0.24925,0.0005,0.0015,1.5250001e-05,6.1000002e-05,-7.625e-05,1742092839.691606
0.24775,0.001,0.0005,-0.0003205,-0.00016775,6.1000002e-05,1742092839.704958
0.24475,0.00225,-0.00375,-0.00061025,0.00010675,0.000183,1742092839.719309
0.2445,0.002,-0.0025,-0.00010675,0.0002135,1.5250001e-05,1742092839.733651
0.24625,0.0015,0.0,9.15e-05,0.00027475,-0.00010675,1742092839.7478552
0.2465,0.0015,-0.001,-0.0001525,0.000183,-1.5250001e-05,1742092839.762337
0.24675,0.001,-0.00175,-0.00030525,-3.0500001e-05,1.5250001e-05,1742092839.7767959
0.247,0.0005,-0.0025,-0.00029,6.1000002e-05,1.5250001e-05,1742092839.791115
0.24675,0.00125,-0.0025,-0.0002135,0.000229,3.0500001e-05,1742092839.80549
0.24625,0.002,-0.00225,0.0,0.0003815,-4.575e-05,1742092839.821175
0.24575,0.0025,-0.00175,-1.5250001e-05,0.00030525,-7.625e-05,1742092839.834486
0.24575,0.00225,-0.00175,-1.5250001e-05,0.0002135,-0.0001525,1742092839.848953
0.24625,0.00125,-0.003,-6.1000002e-05,0.0002595,-0.00016775,1742092839.8633559
0.246,0.001,-0.00325,-6.1000002e-05,0.00024425,-0.000122000005,1742092839.87785
0.24575,0.00125,-0.00225,-4.575e-05,0.00016775,-0.000122000005,1742092839.8923929
0.24625,0.0015,-0.00225,-7.625e-05,0.000122000005,-0.00013725001,1742092839.906844
0.2465,0.0015,-0.00125,-6.1000002e-05,0.0001525,-0.00013725001,1742092839.921558
0.246,0.0015,-0.00225,-0.000122000005,0.000229,-0.00013725001,1742092839.9357498
0.24575,0.00125,-0.00325,-0.00010675,0.0002595,-0.00024425,1742092839.951514
0.24625,0.001,-0.00275,-4.575e-05,0.0002595,-0.00029,1742092839.9647622
0.24775,0.0005,-0.00225,0.00010675,0.00030525,-0.0003205,1742092839.9792361
0.24875,0.00025,-0.002,9.15e-05,0.00030525,-0.00027475,1742092839.993691
0.24825,0.0005,-0.00225,4.575e-05,0.00016775,-0.00019825,1742092840.007937
0.2475,0.00025,-0.00225,0.0,0.0001525,-0.0001525,1742092840.022315
0.24675,0.00075,-0.0035,-0.00013725001,0.00019825,-0.000122000005,1742092840.036601
0.247,0.00025,-0.00475,-0.00019825,0.000183,-9.15e-05,1742092840.052275
0.24725,0.0005,-0.00425,-0.00010675,0.00013725001,-4.575e-05,1742092840.0655591
0.24575,0.001,-0.004,-6.1000002e-05,4.575e-05,4.575e-05,1742092840.0809321
0.2445,0.00175,-0.0035,1.5250001e-05,-4.575e-05,-3.0500001e-05,1742092840.094476
0.24575,0.00125,-0.0025,0.00010675,-1.5250001e-05,-0.00013725001,1742092840.109025
0.24775,0.00075,-0.00225,0.0,0.000122000005,-0.000122000005,1742092840.123358
0.24725,0.001,-0.002,-4.575e-05,0.000183,-6.1000002e-05,1742092840.137742
0.246,0.00175,-0.00125,-4.575e-05,0.00013725001,-9.15e-05,1742092840.1521978
0.2465,0.00125,-0.0015,-7.625e-05,9.15e-05,-0.000122000005,1742092840.166664
0.24725,0.00075,-0.00175,-0.000122000005,4.575e-05,-0.0001525,1742092840.181081
0.24725,0.00075,-0.0035,-0.00019825,4.575e-05,-0.000122000005,1742092840.195565
0.247,0.00075,-0.0035,-6.1000002e-05,0.00010675,-7.625e-05,1742092840.211134
0.2465,0.001,-0.00275,-4.575e-05,0.000183,-7.625e-05,1742092840.224571
0.2465,0.001,-0.00325,-7.625e-05,0.0002135,-9.15e-05,1742092840.239094
0.2465,0.0005,-0.0035,-7.625e-05,0.00013725001,-7.625e-05,1742092840.253855
0.24625,0.00075,-0.00375,-0.00013725001,1.5250001e-05,-6.1000002e-05,1742092840.26816
0.24525,0.00175,-0.00375,-9.15e-05,0.0,-7.625e-05,1742092840.282625
0.2455,0.00175,-0.00325,-3.0500001e-05,-1.5250001e-05,-0.00010675,1742092840.2970932
0.24675,0.00075,-0.00325,-4.575e-05,-1.5250001e-05,-0.00013725001,1742092840.3116531
0.2475,0.0005,-0.0035,-9.15e-05,0.0,-0.000122000005,1742092840.326062
0.247,0.00075,-0.0035,-0.0001525,3.0500001e-05,-3.0500001e-05,1742092840.3417358
0.24525,0.00175,-0.00375,-9.15e-05,3.0500001e-05,-4.575e-05,1742092840.355087
0.24525,0.00175,-0.003,6.1000002e-05,0.0,-0.00013725001,1742092840.369487
0.2465,0.00075,-0.003,3.0500001e-05,0.0,-0.0001525,1742092840.383857
0.24575,0.00075,-0.00375,0.0,1.5250001e-05,-0.000183,1742092840.39819
0.24575,0.001,-0.00375,0.00010675,6.1000002e-05,-0.00024425,1742092840.4126022
0.246,0.00075,-0.0035,0.000183,0.000122000005,-0.00027475,1742092840.427026
0.2465,0.00025,-0.00375,4.575e-05,0.00013725001,-0.0002135,1742092840.441628
0.248,-0.0005,-0.00375,-1.5250001e-05,3.0500001e-05,-0.00016775,1742092840.4560661
0.2475,-0.0005,-0.0035,-6.1000002e-05,-6.1000002e-05,-0.00010675,1742092840.471646
0.2465,0.0,-0.00475,-1.5250001e-05,-1.5250001e-05,-0.00013725001,1742092840.485296
0.24725,0.0,-0.00375,0.000229,7.625e-05,-0.000183,1742092840.4996579
0.2485,0.0,-0.00275,0.00016775,9.15e-05,-0.0001525,1742092840.5140128
0.24875,0.00025,-0.0025,6.1000002e-05,4.575e-05,-0.00010675,1742092840.528376
0.2485,-0.00025,-0.0025,4.575e-05,3.0500001e-05,-0.00010675,1742092840.542759
0.24775,-0.00025,-0.00325,-3.0500001e-05,4.575e-05,-7.625e-05,1742092840.557479
0.247,-0.0,-0.00425,-0.000122000005,1.5250001e-05,-1.5250001e-05,1742092840.571973
0.2475,-0.00025,-0.004,-0.00010675,0.0,-1.5250001e-05,1742092840.586498
0.2475,-0.0005,-0.00375,-3.0500001e-05,3.0500001e-05,1.5250001e-05,1742092840.601279
0.24775,-0.001,-0.00225,3.0500001e-05,4.575e-05,3.0500001e-05,1742092840.6154208
0.24775,-0.00025,-0.002,-7.625e-05,1.5250001e-05,0.00010675,1742092840.630808
0.24775,0.00125,-0.0015,-0.0001525,-4.575e-05,0.00013725001,1742092840.644377
0.2475,0.0015,-0.0015,-0.00027475,-0.00010675,0.00016775,1742092840.658751
0.246,0.0015,-0.0025,-0.00027475,-4.575e-05,0.00013725001,1742092840.6731808
0.24525,0.00175,-0.00275,-0.00024425,7.625e-05,9.15e-05,1742092840.687496
0.245,0.00225,-0.0025,-0.000122000005,0.00029,3.0500001e-05,1742092840.701792
0.24475,0.00225,-0.00125,-0.0001525,0.00030525,1.5250001e-05,1742092840.7161028
0.24475,0.0025,-0.003,-0.00035100002,0.000122000005,-3.0500001e-05,1742092840.7308621
0.2455,0.00125,-0.00175,-0.000229,3.0500001e-05,-6.1000002e-05,1742092840.7451231
0.24625,0.001,-0.00175,-0.00029,0.0002595,-6.1000002e-05,1742092840.759486
0.2465,0.00075,-0.00225,-0.00019825,0.00036625,-9.15e-05,1742092840.773946
0.247,0.00075,-0.00175,-0.00013725001,0.0003815,-0.00010675,1742092840.788383
0.24725,0.00075,-0.0025,-0.00029,0.00027475,-9.15e-05,1742092840.802809
0.24675,0.00125,-0.00275,-0.00035100002,0.0002135,-7.625e-05,1742092840.8171751
0.2465,0.0015,-0.00325,-0.00035100002,0.00027475,-0.00010675,1742092840.831647
0.24725,0.00075,-0.00425,-0.00030525,0.00033575002,-0.00013725001,1742092840.846084
0.24625,0.0005,-0.00525,-0.00035100002,0.00035100002,-9.15e-05,1742092840.860899
0.24475,0.00125,-0.005,-0.00035100002,0.00029,-0.00010675,1742092840.874998
0.24525,0.001,-0.00475,-0.0002135,0.0003205,-0.000229,1742092840.889469
0.24675,0.0,-0.006,-0.0001525,0.00035100002,-0.0002595,1742092840.903957
0.248,-0.00075,-0.00625,-9.15e-05,0.00033575002,-0.0002135,1742092840.918494
0.2465,-0.00025,-0.0065,-0.00019825,0.000122000005,-3.0500001e-05,1742092840.933092
0.24475,0.00075,-0.00625,-0.00024425,1.5250001e-05,0.0,1742092840.9473789
0.244,0.0015,-0.006,-0.0001525,-3.0500001e-05,-0.00010675,1742092840.961982
0.2455,0.001,-0.0055,-6.1000002e-05,-1.5250001e-05,-0.0001525,1742092840.9765482
0.246,0.00075,-0.005,-0.000122000005,-7.625e-05,-7.625e-05,1742092840.9911911
0.24475,0.002,-0.004,-0.0001525,-0.00010675,-4.575e-05,1742092841.005745
0.2445,0.00225,-0.0035,-6.1000002e-05,-3.0500001e-05,-0.00013725001,1742092841.021219
0.24675,0.001,-0.0025,-6.1000002e-05,7.625e-05,-0.000183,1742092841.0347788
0.24725,0.00075,-0.0035,-0.000183,9.15e-05,-0.000183,1742092841.0491881
0.2465,0.00075,-0.004,-0.0001525,3.0500001e-05,-0.000183,1742092841.063779
0.2465,0.001,-0.00325,-9.15e-05,0.0,-0.00019825,1742092841.078198
0.247,0.001,-0.0025,-6.1000002e-05,9.15e-05,-0.000229,1742092841.092557
0.2485,-0.0,-0.0015,-0.00013725001,0.000122000005,-0.000229,1742092841.107172
0.2485,-0.00025,-0.00225,-0.00030525,0.00013725001,-0.0002135,1742092841.121748
0.2485,-0.00025,-0.00325,-0.00027475,0.00013725001,-0.0002135,1742092841.136292
0.2485,-0.0005,-0.004,-0.0003205,0.00024425,-0.00016775,1742092841.1522958
0.2475,-0.00075,-0.00475,-0.00030525,0.00029,-0.0001525,1742092841.1652842
0.247,-0.00075,-0.0055,-0.00024425,0.00029,-0.0001525,1742092841.1811259
0.24825,-0.00125,-0.006,-0.00019825,0.00029,-0.0001525,1742092841.194509
0.24825,-0.00125,-0.0065,-0.000183,0.00027475,-9.15e-05,1742092841.209214
0.2475,-0.001,-0.0065,-6.1000002e-05,0.0001525,-6.1000002e-05,1742092841.2237198
0.24775,-0.001,-0.00475,7.625e-05,0.000122000005,-7.625e-05,1742092841.2381482
0.2475,-0.001,-0.00475,-9.15e-05,0.0002135,-6.1000002e-05,1742092841.25267
0.2475,-0.001,-0.007,-0.00010675,0.00016775,-3.0500001e-05,1742092841.267117
0.24775,-0.00125,-0.007,-3.0500001e-05,1.5250001e-05,3.0500001e-05,1742092841.281578
0.24675,-0.0005,-0.00775,-3.0500001e-05,1.5250001e-05,7.625e-05,1742092841.2961018
0.24575,0.0,-0.007,0.000183,1.5250001e-05,4.575e-05,1742092841.310797
0.24575,0.0,-0.00525,0.00019825,1.5250001e-05,-1.5250001e-05,1742092841.324654
0.2465,-0.0,-0.00575,0.000122000005,4.575e-05,-4.575e-05,1742092841.339085
0.24725,-0.00025,-0.0065,0.00010675,1.5250001e-05,1.5250001e-05,1742092841.353528
0.247,0.0,-0.0055,0.0002135,-4.575e-05,4.575e-05,1742092841.367776
0.2465,0.00025,-0.00425,0.00027475,-0.00013725001,3.0500001e-05,1742092841.382092
0.2475,-0.0,-0.0035,0.00024425,-0.00013725001,3.0500001e-05,1742092841.396506
0.24775,-0.0,-0.003,0.000122000005,-7.625e-05,9.15e-05,1742092841.411341
0.24675,0.001,-0.003,3.0500001e-05,-3.0500001e-05,9.15e-05,1742092841.4254038
0.246,0.00125,-0.00325,-1.5250001e-05,1.5250001e-05,7.625e-05,1742092841.4397461
0.24625,0.00125,-0.00225,0.00010675,6.1000002e-05,0.0,1742092841.453949
0.247,0.001,-0.00275,6.1000002e-05,9.15e-05,-3.0500001e-05,1742092841.468294
0.2475,0.00075,-0.004,-0.00010675,4.575e-05,3.0500001e-05,1742092841.4825659
0.24625,0.00075,-0.00475,-0.0001525,0.0,6.1000002e-05,1742092841.496958
0.24525,0.00125,-0.00525,-0.00016775,7.625e-05,3.0500001e-05,1742092841.51141
0.24625,0.00075,-0.00525,-6.1000002e-05,0.000183,-4.575e-05,1742092841.525826
0.24675,0.0005,-0.00425,9.15e-05,0.00027475,-4.575e-05,1742092841.540718
0.24575,0.00075,-0.0045,1.5250001e-05,0.0002135,-1.5250001e-05,1742092841.554603
0.24525,0.00075,-0.005,-7.625e-05,0.00010675,-3.0500001e-05,1742092841.569041
0.24525,0.0005,-0.00525,-0.000122000005,4.575e-05,-7.625e-05,1742092841.583498
0.24775,-0.0005,-0.006,-9.15e-05,0.00013725001,-0.00010675,1742092841.598055
0.249,-0.0005,-0.0055,7.625e-05,0.00027475,-3.0500001e-05,1742092841.6124558
0.249,0.00025,-0.005,6.1000002e-05,0.000229,1.5250001e-05,1742092841.626785
0.2485,0.0005,-0.00425,4.575e-05,6.1000002e-05,6.1000002e-05,1742092841.641063
0.247,0.0005,-0.00425,0.0,7.625e-05,6.1000002e-05,1742092841.655286
0.2465,0.00025,-0.00525,-6.1000002e-05,0.000122000005,4.575e-05,1742092841.6696599
0.24575,0.0005,-0.00625,-9.15e-05,0.000183,0.0,1742092841.683947
0.24625,0.00025,-0.007,-4.575e-05,0.00019825,-1.5250001e-05,1742092841.698347
0.24675,0.0,-0.007,3.0500001e-05,0.0001525,0.0,1742092841.712666
0.247,0.0005,-0.0065,0.00010675,6.1000002e-05,3.0500001e-05,1742092841.726857
0.247,0.0005,-0.00575,0.000183,-1.5250001e-05,4.575e-05,1742092841.741288
0.24675,0.00125,-0.00475,0.00016775,3.0500001e-05,3.0500001e-05,1742092841.7556102
0.24725,0.00125,-0.00375,0.00019825,0.000122000005,-1.5250001e-05,1742092841.769952
0.2475,0.00125,-0.00325,0.000122000005,0.00030525,-3.0500001e-05,1742092841.7843049
0.24725,0.00125,-0.00425,7.625e-05,0.00033575002,-3.0500001e-05,1742092841.79867
0.2465,0.001,-0.005,-1.5250001e-05,0.0002595,0.0,1742092841.8130949
0.2455,0.00125,-0.0055,-7.625e-05,0.00024425,3.0500001e-05,1742092841.827473
0.245,0.00175,-0.0065,-9.15e-05,0.000229,1.5250001e-05,1742092841.841761
0.24825,0.0015,-0.0075,7.625e-05,0.000229,1.5250001e-05,1742092841.856024
0.25075,0.00125,-0.00725,0.00045775,0.00019825,0.0003205,1742092841.8710961
0.2475,0.00125,-0.00475,0.0012970001,0.00074775,0.001114,1742092841.884574
0.24275,0.00175,-0.00475,0.00099175,0.00125125,0.00065625,1742092841.8988822
0.248,0.001,-0.0045,0.000229,0.0004425,-0.00030525,1742092841.913297
0.25,-0.00025,-0.00225,-0.00039675,-0.00033575002,-7.625e-05,1742092841.927839
0.2455,0.00125,-0.009,-0.001007,-4.575e-05,0.00029,1742092841.942416
0.2435,0.00225,-0.01125,-0.0001525,0.00036625,7.625e-05,1742092841.956743
0.245,0.00175,-0.00725,0.0004425,0.00045775,-0.00010675,1742092841.9713101
0.245,0.0025,-0.00725,1.5250001e-05,9.15e-05,0.0,1742092841.985366
0.24375,0.003,-0.00875,-0.0003205,-0.00027475,4.575e-05,1742092841.999881
0.244,0.003,-0.00875,-3.0500001e-05,-0.000122000005,-0.00010675,1742092842.014498
0.24675,0.00175,-0.005,0.00024425,0.00033575002,-0.000183,1742092842.028861
0.247,0.0015,-0.00425,0.00013725001,0.00057975,-0.0001525,1742092842.0432918
0.2475,0.00125,-0.00425,-9.15e-05,0.0002595,-0.00013725001,1742092842.05774
0.247,0.001,-0.005,-0.0004425,-9.15e-05,-6.1000002e-05,1742092842.0722728
0.24475,0.002,-0.00725,-0.00035100002,3.0500001e-05,-6.1000002e-05,1742092842.0867798
0.24475,0.00225,-0.0075,-0.00016775,0.0002135,-0.000122000005,1742092842.101301
0.24675,0.002,-0.00575,-1.5250001e-05,0.00030525,-0.00019825,1742092842.1157582
0.24775,0.00125,-0.00575,-0.00010675,0.000229,-0.00016775,1742092842.131116
0.24775,0.001,-0.00675,-0.0003205,0.000122000005,-9.15e-05,1742092842.144804
0.24625,0.0015,-0.00825,-0.00027475,0.00013725001,-0.00010675,1742092842.159165
0.2465,0.0015,-0.008,-0.00010675,0.00029,-0.00016775,1742092842.173759
0.24675,0.00125,-0.007,-7.625e-05,0.00029,-0.000122000005,1742092842.1881611
0.2455,0.00175,-0.00725,-0.000229,0.000122000005,-4.575e-05,1742092842.202684
0.24425,0.002,-0.008,-0.0002595,7.625e-05,-6.1000002e-05,1742092842.2170959
0.2445,0.0015,-0.00875,-0.000229,0.00013725001,-0.000122000005,1742092842.231497
0.24575,0.001,-0.0095,-6.1000002e-05,0.0003205,-0.000229,1742092842.246005
0.2475,0.00075,-0.00825,7.625e-05,0.0003205,-0.000229,1742092842.2603729
0.24725,0.001,-0.0075,-4.575e-05,0.0001525,-0.00010675,1742092842.274862
0.246,0.00125,-0.008,-0.00016775,3.0500001e-05,-4.575e-05,1742092842.289363
0.2455,0.0015,-0.0085,-0.00027475,-0.000122000005,1.5250001e-05,1742092842.303877
0.245,0.00175,-0.00825,-0.0002135,-0.00010675,0.0,1742092842.318333
0.24475,0.002,-0.008,-4.575e-05,-4.575e-05,-9.15e-05,1742092842.3328362
0.24575,0.002,-0.00625,3.0500001e-05,-3.0500001e-05,-0.00013725001,1742092842.347403
0.24625,0.0015,-0.00625,0.0,3.0500001e-05,-0.0001525,1742092842.361779
0.2465,0.00125,-0.007,-4.575e-05,0.000122000005,-0.00013725001,1742092842.3763049
0.247,0.001,-0.0065,0.0,6.1000002e-05,-0.0001525,1742092842.3913789
0.24725,0.00075,-0.007,-0.000122000005,-1.5250001e-05,-0.00010675,1742092842.405171
0.24775,0.00075,-0.008,-0.0001525,-3.0500001e-05,-9.15e-05,1742092842.419626
0.24725,0.001,-0.00875,-0.00010675,-3.0500001e-05,-1.5250001e-05,1742092842.4341471
0.245,0.0015,-0.00825,-1.5250001e-05,-7.625e-05,-1.5250001e-05,1742092842.448755
0.2445,0.00175,-0.00775,-0.00010675,-6.1000002e-05,-9.15e-05,1742092842.4633632
0.247,0.00075,-0.00825,-0.00010675,-1.5250001e-05,-0.00013725001,1742092842.4778209
0.2475,0.00025,-0.0075,-1.5250001e-05,1.5250001e-05,-0.00013725001,1742092842.492269
0.24675,0.00075,-0.007,6.1000002e-05,1.5250001e-05,-7.625e-05,1742092842.506631
0.2475,0.00075,-0.0065,0.00010675,-3.0500001e-05,-9.15e-05,1742092842.52106
0.24775,0.0005,-0.0065,-6.1000002e-05,-9.15e-05,-6.1000002e-05,1742092842.53557
0.247,0.0005,-0.0085,-0.0001525,-7.625e-05,-4.575e-05,1742092842.551444
0.24625,0.0005,-0.00875,-1.5250001e-05,-4.575e-05,-7.625e-05,1742092842.5648232
0.247,0.00025,-0.008,0.00010675,0.0,-0.00013725001,1742092842.5791528
0.24825,0.00025,-0.0075,0.0002595,1.5250001e-05,-0.0001525,1742092842.593606
0.2495,0.0,-0.0055,0.000229,0.0,-9.15e-05,1742092842.607966
0.24825,0.00075,-0.006,6.1000002e-05,1.5250001e-05,1.5250001e-05,1742092842.622275
0.24675,0.0015,-0.00625,-0.000122000005,1.5250001e-05,4.575e-05,1742092842.6366599
0.24525,0.0015,-0.007,-0.000122000005,4.575e-05,0.0,1742092842.651977
